@prefix NCIT: <http://purl.obolibrary.org/obo/NCIT_> .
@prefix cosmos_sdtm: <https://www.cdisc.org/cosmos/sdtm_v1.0/> .
@prefix dcterms: <http://purl.org/dc/terms/> .
@prefix owl: <http://www.w3.org/2002/07/owl#> .
@prefix rdf: <http://www.w3.org/1999/02/22-rdf-syntax-ns#> .
@prefix rdfs: <http://www.w3.org/2000/01/rdf-schema#> .
@prefix skos: <http://www.w3.org/2004/02/skos/core#> .
@prefix xsd: <http://www.w3.org/2001/XMLSchema#> .

<https://w3id.org/cdisc/cosmos/dss/DD> a owl:Ontology ;
    rdfs:label "CDISC COSMoS Dataset Specializations, DD (instances)" ;
    dcterms:identifier "2026-07-14" ;
    dcterms:source <https://raw.githubusercontent.com/cdisc-org/COSMoS/031429b1d14823721991cd23ee88a11616686ce3/export/cdisc_sdtm_dataset_specializations_latest.csv> ;
    rdfs:comment "Dataset Specialization instances for domain DD, rendered from the pinned COSMoS export. Variable order is the export's row order, carried as rdf:_n membership beside the variables edges. length and significantDigits are cast from the export's decimal form to integer; packageType is not in the export and is set to the enum's single value. A biomedicalConceptId or dataElementConceptId that resolves to no node is carried as the published string. The concept nodes those edges reach are declared in the Biomedical Concept instance graph, which is not imported. Draft - not a normative CDISC artifact." ;
    owl:imports <https://w3id.org/cdisc/cosmos/sdtm/> ;
    owl:versionIRI <https://w3id.org/cdisc/cosmos/dss/DD/0.4.0> ;
    owl:versionInfo "v0.4.0" .

<https://w3id.org/cdisc/cosmos/dss/DD/AGEDTH> a cosmos_sdtm:SDTMGroup ;
    dcterms:identifier "AGEDTH" ;
    rdf:_1 <https://w3id.org/cdisc/cosmos/dss/DD/AGEDTH/DDTESTCD> ;
    rdf:_2 <https://w3id.org/cdisc/cosmos/dss/DD/AGEDTH/DDTEST> ;
    rdf:_3 <https://w3id.org/cdisc/cosmos/dss/DD/AGEDTH/DDORRES> ;
    rdf:_4 <https://w3id.org/cdisc/cosmos/dss/DD/AGEDTH/DDORRESU> ;
    rdf:_5 <https://w3id.org/cdisc/cosmos/dss/DD/AGEDTH/DDSTRESC> ;
    rdf:_6 <https://w3id.org/cdisc/cosmos/dss/DD/AGEDTH/DDSTRESN> ;
    rdf:_7 <https://w3id.org/cdisc/cosmos/dss/DD/AGEDTH/DDSTRESU> ;
    rdf:_8 <https://w3id.org/cdisc/cosmos/dss/DD/AGEDTH/DDDTC> ;
    cosmos_sdtm:biomedicalConceptId NCIT:C135383 ;
    cosmos_sdtm:domain "DD" ;
    cosmos_sdtm:packageDate "2026-05-26"^^xsd:date ;
    cosmos_sdtm:packageType <https://www.cdisc.org/cosmos/sdtm_v1.0/PackageTypeEnum#sdtm> ;
    cosmos_sdtm:sdtmigStartVersion "3-2" ;
    cosmos_sdtm:shortName "Age at Death" ;
    cosmos_sdtm:source "DD.DDTESTCD" ;
    cosmos_sdtm:variables <https://w3id.org/cdisc/cosmos/dss/DD/AGEDTH/DDDTC>,
        <https://w3id.org/cdisc/cosmos/dss/DD/AGEDTH/DDORRES>,
        <https://w3id.org/cdisc/cosmos/dss/DD/AGEDTH/DDORRESU>,
        <https://w3id.org/cdisc/cosmos/dss/DD/AGEDTH/DDSTRESC>,
        <https://w3id.org/cdisc/cosmos/dss/DD/AGEDTH/DDSTRESN>,
        <https://w3id.org/cdisc/cosmos/dss/DD/AGEDTH/DDSTRESU>,
        <https://w3id.org/cdisc/cosmos/dss/DD/AGEDTH/DDTEST>,
        <https://w3id.org/cdisc/cosmos/dss/DD/AGEDTH/DDTESTCD> .

<https://w3id.org/cdisc/cosmos/dss/DD/AUTOPIND> a cosmos_sdtm:SDTMGroup ;
    dcterms:identifier "AUTOPIND" ;
    rdf:_1 <https://w3id.org/cdisc/cosmos/dss/DD/AUTOPIND/DDTESTCD> ;
    rdf:_2 <https://w3id.org/cdisc/cosmos/dss/DD/AUTOPIND/DDTEST> ;
    rdf:_3 <https://w3id.org/cdisc/cosmos/dss/DD/AUTOPIND/DDORRES> ;
    rdf:_4 <https://w3id.org/cdisc/cosmos/dss/DD/AUTOPIND/DDSTRESC> ;
    rdf:_5 <https://w3id.org/cdisc/cosmos/dss/DD/AUTOPIND/DDDTC> ;
    cosmos_sdtm:biomedicalConceptId NCIT:C135384 ;
    cosmos_sdtm:domain "DD" ;
    cosmos_sdtm:packageDate "2026-05-26"^^xsd:date ;
    cosmos_sdtm:packageType <https://www.cdisc.org/cosmos/sdtm_v1.0/PackageTypeEnum#sdtm> ;
    cosmos_sdtm:sdtmigStartVersion "3-2" ;
    cosmos_sdtm:shortName "Autopsy Indicator" ;
    cosmos_sdtm:source "DD.DDTESTCD" ;
    cosmos_sdtm:variables <https://w3id.org/cdisc/cosmos/dss/DD/AUTOPIND/DDDTC>,
        <https://w3id.org/cdisc/cosmos/dss/DD/AUTOPIND/DDORRES>,
        <https://w3id.org/cdisc/cosmos/dss/DD/AUTOPIND/DDSTRESC>,
        <https://w3id.org/cdisc/cosmos/dss/DD/AUTOPIND/DDTEST>,
        <https://w3id.org/cdisc/cosmos/dss/DD/AUTOPIND/DDTESTCD> .

<https://w3id.org/cdisc/cosmos/dss/DD/CUSCDIND> a cosmos_sdtm:SDTMGroup ;
    dcterms:identifier "CUSCDIND" ;
    rdf:_1 <https://w3id.org/cdisc/cosmos/dss/DD/CUSCDIND/DDTESTCD> ;
    rdf:_2 <https://w3id.org/cdisc/cosmos/dss/DD/CUSCDIND/DDTEST> ;
    rdf:_3 <https://w3id.org/cdisc/cosmos/dss/DD/CUSCDIND/DDORRES> ;
    rdf:_4 <https://w3id.org/cdisc/cosmos/dss/DD/CUSCDIND/DDSTRESC> ;
    rdf:_5 <https://w3id.org/cdisc/cosmos/dss/DD/CUSCDIND/DDDTC> ;
    cosmos_sdtm:biomedicalConceptId NCIT:C199843 ;
    cosmos_sdtm:domain "DD" ;
    cosmos_sdtm:packageDate "2026-05-26"^^xsd:date ;
    cosmos_sdtm:packageType <https://www.cdisc.org/cosmos/sdtm_v1.0/PackageTypeEnum#sdtm> ;
    cosmos_sdtm:sdtmigStartVersion "3-2" ;
    cosmos_sdtm:shortName "Cond Under Study Contrib to Death Ind" ;
    cosmos_sdtm:source "DD.DDTESTCD" ;
    cosmos_sdtm:variables <https://w3id.org/cdisc/cosmos/dss/DD/CUSCDIND/DDDTC>,
        <https://w3id.org/cdisc/cosmos/dss/DD/CUSCDIND/DDORRES>,
        <https://w3id.org/cdisc/cosmos/dss/DD/CUSCDIND/DDSTRESC>,
        <https://w3id.org/cdisc/cosmos/dss/DD/CUSCDIND/DDTEST>,
        <https://w3id.org/cdisc/cosmos/dss/DD/CUSCDIND/DDTESTCD> .

<https://w3id.org/cdisc/cosmos/dss/DD/DTHCOIND> a cosmos_sdtm:SDTMGroup ;
    dcterms:identifier "DTHCOIND" ;
    rdf:_1 <https://w3id.org/cdisc/cosmos/dss/DD/DTHCOIND/DDTESTCD> ;
    rdf:_2 <https://w3id.org/cdisc/cosmos/dss/DD/DTHCOIND/DDTEST> ;
    rdf:_3 <https://w3id.org/cdisc/cosmos/dss/DD/DTHCOIND/DDORRES> ;
    rdf:_4 <https://w3id.org/cdisc/cosmos/dss/DD/DTHCOIND/DDSTRESC> ;
    rdf:_5 <https://w3id.org/cdisc/cosmos/dss/DD/DTHCOIND/DDDTC> ;
    cosmos_sdtm:biomedicalConceptId NCIT:C135385 ;
    cosmos_sdtm:domain "DD" ;
    cosmos_sdtm:packageDate "2026-05-26"^^xsd:date ;
    cosmos_sdtm:packageType <https://www.cdisc.org/cosmos/sdtm_v1.0/PackageTypeEnum#sdtm> ;
    cosmos_sdtm:sdtmigStartVersion "3-2" ;
    cosmos_sdtm:shortName "Death Certificate Obtained Indicator" ;
    cosmos_sdtm:source "DD.DDTESTCD" ;
    cosmos_sdtm:variables <https://w3id.org/cdisc/cosmos/dss/DD/DTHCOIND/DDDTC>,
        <https://w3id.org/cdisc/cosmos/dss/DD/DTHCOIND/DDORRES>,
        <https://w3id.org/cdisc/cosmos/dss/DD/DTHCOIND/DDSTRESC>,
        <https://w3id.org/cdisc/cosmos/dss/DD/DTHCOIND/DDTEST>,
        <https://w3id.org/cdisc/cosmos/dss/DD/DTHCOIND/DDTESTCD> .

<https://w3id.org/cdisc/cosmos/dss/DD/DTHEXIND> a cosmos_sdtm:SDTMGroup ;
    dcterms:identifier "DTHEXIND" ;
    rdf:_1 <https://w3id.org/cdisc/cosmos/dss/DD/DTHEXIND/DDTESTCD> ;
    rdf:_2 <https://w3id.org/cdisc/cosmos/dss/DD/DTHEXIND/DDTEST> ;
    rdf:_3 <https://w3id.org/cdisc/cosmos/dss/DD/DTHEXIND/DDORRES> ;
    rdf:_4 <https://w3id.org/cdisc/cosmos/dss/DD/DTHEXIND/DDSTRESC> ;
    rdf:_5 <https://w3id.org/cdisc/cosmos/dss/DD/DTHEXIND/DDDTC> ;
    cosmos_sdtm:biomedicalConceptId NCIT:C184505 ;
    cosmos_sdtm:domain "DD" ;
    cosmos_sdtm:packageDate "2026-05-26"^^xsd:date ;
    cosmos_sdtm:packageType <https://www.cdisc.org/cosmos/sdtm_v1.0/PackageTypeEnum#sdtm> ;
    cosmos_sdtm:sdtmigStartVersion "3-2" ;
    cosmos_sdtm:shortName "Death Expected Indicator" ;
    cosmos_sdtm:source "DD.DDTESTCD" ;
    cosmos_sdtm:variables <https://w3id.org/cdisc/cosmos/dss/DD/DTHEXIND/DDDTC>,
        <https://w3id.org/cdisc/cosmos/dss/DD/DTHEXIND/DDORRES>,
        <https://w3id.org/cdisc/cosmos/dss/DD/DTHEXIND/DDSTRESC>,
        <https://w3id.org/cdisc/cosmos/dss/DD/DTHEXIND/DDTEST>,
        <https://w3id.org/cdisc/cosmos/dss/DD/DTHEXIND/DDTESTCD> .

<https://w3id.org/cdisc/cosmos/dss/DD/DTHWIND> a cosmos_sdtm:SDTMGroup ;
    dcterms:identifier "DTHWIND" ;
    rdf:_1 <https://w3id.org/cdisc/cosmos/dss/DD/DTHWIND/DDTESTCD> ;
    rdf:_2 <https://w3id.org/cdisc/cosmos/dss/DD/DTHWIND/DDTEST> ;
    rdf:_3 <https://w3id.org/cdisc/cosmos/dss/DD/DTHWIND/DDORRES> ;
    rdf:_4 <https://w3id.org/cdisc/cosmos/dss/DD/DTHWIND/DDSTRESC> ;
    rdf:_5 <https://w3id.org/cdisc/cosmos/dss/DD/DTHWIND/DDDTC> ;
    cosmos_sdtm:biomedicalConceptId NCIT:C170571 ;
    cosmos_sdtm:domain "DD" ;
    cosmos_sdtm:packageDate "2026-05-26"^^xsd:date ;
    cosmos_sdtm:packageType <https://www.cdisc.org/cosmos/sdtm_v1.0/PackageTypeEnum#sdtm> ;
    cosmos_sdtm:sdtmigStartVersion "3-2" ;
    cosmos_sdtm:shortName "Death Witnessed Indicator" ;
    cosmos_sdtm:source "DD.DDTESTCD" ;
    cosmos_sdtm:variables <https://w3id.org/cdisc/cosmos/dss/DD/DTHWIND/DDDTC>,
        <https://w3id.org/cdisc/cosmos/dss/DD/DTHWIND/DDORRES>,
        <https://w3id.org/cdisc/cosmos/dss/DD/DTHWIND/DDSTRESC>,
        <https://w3id.org/cdisc/cosmos/dss/DD/DTHWIND/DDTEST>,
        <https://w3id.org/cdisc/cosmos/dss/DD/DTHWIND/DDTESTCD> .

<https://w3id.org/cdisc/cosmos/dss/DD/HMROIND> a cosmos_sdtm:SDTMGroup ;
    dcterms:identifier "HMROIND" ;
    rdf:_1 <https://w3id.org/cdisc/cosmos/dss/DD/HMROIND/DDTESTCD> ;
    rdf:_2 <https://w3id.org/cdisc/cosmos/dss/DD/HMROIND/DDTEST> ;
    rdf:_3 <https://w3id.org/cdisc/cosmos/dss/DD/HMROIND/DDORRES> ;
    rdf:_4 <https://w3id.org/cdisc/cosmos/dss/DD/HMROIND/DDSTRESC> ;
    rdf:_5 <https://w3id.org/cdisc/cosmos/dss/DD/HMROIND/DDDTC> ;
    cosmos_sdtm:biomedicalConceptId NCIT:C135386 ;
    cosmos_sdtm:domain "DD" ;
    cosmos_sdtm:packageDate "2026-05-26"^^xsd:date ;
    cosmos_sdtm:packageType <https://www.cdisc.org/cosmos/sdtm_v1.0/PackageTypeEnum#sdtm> ;
    cosmos_sdtm:sdtmigStartVersion "3-2" ;
    cosmos_sdtm:shortName "Hospital Medical Record Obtained Ind" ;
    cosmos_sdtm:source "DD.DDTESTCD" ;
    cosmos_sdtm:variables <https://w3id.org/cdisc/cosmos/dss/DD/HMROIND/DDDTC>,
        <https://w3id.org/cdisc/cosmos/dss/DD/HMROIND/DDORRES>,
        <https://w3id.org/cdisc/cosmos/dss/DD/HMROIND/DDSTRESC>,
        <https://w3id.org/cdisc/cosmos/dss/DD/HMROIND/DDTEST>,
        <https://w3id.org/cdisc/cosmos/dss/DD/HMROIND/DDTESTCD> .

<https://w3id.org/cdisc/cosmos/dss/DD/HSDTHIND> a cosmos_sdtm:SDTMGroup ;
    dcterms:identifier "HSDTHIND" ;
    rdf:_1 <https://w3id.org/cdisc/cosmos/dss/DD/HSDTHIND/DDTESTCD> ;
    rdf:_2 <https://w3id.org/cdisc/cosmos/dss/DD/HSDTHIND/DDTEST> ;
    rdf:_3 <https://w3id.org/cdisc/cosmos/dss/DD/HSDTHIND/DDORRES> ;
    rdf:_4 <https://w3id.org/cdisc/cosmos/dss/DD/HSDTHIND/DDSTRESC> ;
    rdf:_5 <https://w3id.org/cdisc/cosmos/dss/DD/HSDTHIND/DDDTC> ;
    cosmos_sdtm:biomedicalConceptId NCIT:C198258 ;
    cosmos_sdtm:domain "DD" ;
    cosmos_sdtm:packageDate "2026-05-26"^^xsd:date ;
    cosmos_sdtm:packageType <https://www.cdisc.org/cosmos/sdtm_v1.0/PackageTypeEnum#sdtm> ;
    cosmos_sdtm:sdtmigStartVersion "3-2" ;
    cosmos_sdtm:shortName "Hospitalized at Time of Death Indicator" ;
    cosmos_sdtm:source "DD.DDTESTCD" ;
    cosmos_sdtm:variables <https://w3id.org/cdisc/cosmos/dss/DD/HSDTHIND/DDDTC>,
        <https://w3id.org/cdisc/cosmos/dss/DD/HSDTHIND/DDORRES>,
        <https://w3id.org/cdisc/cosmos/dss/DD/HSDTHIND/DDSTRESC>,
        <https://w3id.org/cdisc/cosmos/dss/DD/HSDTHIND/DDTEST>,
        <https://w3id.org/cdisc/cosmos/dss/DD/HSDTHIND/DDTESTCD> .

<https://w3id.org/cdisc/cosmos/dss/DD/INFOSCOD> a cosmos_sdtm:SDTMGroup ;
    dcterms:identifier "INFOSCOD" ;
    rdf:_1 <https://w3id.org/cdisc/cosmos/dss/DD/INFOSCOD/DDTESTCD> ;
    rdf:_2 <https://w3id.org/cdisc/cosmos/dss/DD/INFOSCOD/DDTEST> ;
    rdf:_3 <https://w3id.org/cdisc/cosmos/dss/DD/INFOSCOD/DDORRES> ;
    rdf:_4 <https://w3id.org/cdisc/cosmos/dss/DD/INFOSCOD/DDSTRESC> ;
    rdf:_5 <https://w3id.org/cdisc/cosmos/dss/DD/INFOSCOD/DDDTC> ;
    cosmos_sdtm:biomedicalConceptId NCIT:C176287 ;
    cosmos_sdtm:domain "DD" ;
    cosmos_sdtm:packageDate "2026-05-26"^^xsd:date ;
    cosmos_sdtm:packageType <https://www.cdisc.org/cosmos/sdtm_v1.0/PackageTypeEnum#sdtm> ;
    cosmos_sdtm:sdtmigStartVersion "3-2" ;
    cosmos_sdtm:shortName "Information Source for Cause of Death" ;
    cosmos_sdtm:source "DD.DDTESTCD" ;
    cosmos_sdtm:variables <https://w3id.org/cdisc/cosmos/dss/DD/INFOSCOD/DDDTC>,
        <https://w3id.org/cdisc/cosmos/dss/DD/INFOSCOD/DDORRES>,
        <https://w3id.org/cdisc/cosmos/dss/DD/INFOSCOD/DDSTRESC>,
        <https://w3id.org/cdisc/cosmos/dss/DD/INFOSCOD/DDTEST>,
        <https://w3id.org/cdisc/cosmos/dss/DD/INFOSCOD/DDTESTCD> .

<https://w3id.org/cdisc/cosmos/dss/DD/LOCDTH> a cosmos_sdtm:SDTMGroup ;
    dcterms:identifier "LOCDTH" ;
    rdf:_1 <https://w3id.org/cdisc/cosmos/dss/DD/LOCDTH/DDTESTCD> ;
    rdf:_2 <https://w3id.org/cdisc/cosmos/dss/DD/LOCDTH/DDTEST> ;
    rdf:_3 <https://w3id.org/cdisc/cosmos/dss/DD/LOCDTH/DDORRES> ;
    rdf:_4 <https://w3id.org/cdisc/cosmos/dss/DD/LOCDTH/DDSTRESC> ;
    rdf:_5 <https://w3id.org/cdisc/cosmos/dss/DD/LOCDTH/DDDTC> ;
    cosmos_sdtm:biomedicalConceptId NCIT:C124331 ;
    cosmos_sdtm:domain "DD" ;
    cosmos_sdtm:packageDate "2026-05-26"^^xsd:date ;
    cosmos_sdtm:packageType <https://www.cdisc.org/cosmos/sdtm_v1.0/PackageTypeEnum#sdtm> ;
    cosmos_sdtm:sdtmigStartVersion "3-2" ;
    cosmos_sdtm:shortName "Location of Death" ;
    cosmos_sdtm:source "DD.DDTESTCD" ;
    cosmos_sdtm:variables <https://w3id.org/cdisc/cosmos/dss/DD/LOCDTH/DDDTC>,
        <https://w3id.org/cdisc/cosmos/dss/DD/LOCDTH/DDORRES>,
        <https://w3id.org/cdisc/cosmos/dss/DD/LOCDTH/DDSTRESC>,
        <https://w3id.org/cdisc/cosmos/dss/DD/LOCDTH/DDTEST>,
        <https://w3id.org/cdisc/cosmos/dss/DD/LOCDTH/DDTESTCD> .

<https://w3id.org/cdisc/cosmos/dss/DD/PRCDTH> a cosmos_sdtm:SDTMGroup ;
    dcterms:identifier "PRCDTH" ;
    rdf:_1 <https://w3id.org/cdisc/cosmos/dss/DD/PRCDTH/DDTESTCD> ;
    rdf:_2 <https://w3id.org/cdisc/cosmos/dss/DD/PRCDTH/DDTEST> ;
    rdf:_3 <https://w3id.org/cdisc/cosmos/dss/DD/PRCDTH/DDORRES> ;
    rdf:_4 <https://w3id.org/cdisc/cosmos/dss/DD/PRCDTH/DDSTRESC> ;
    rdf:_5 <https://w3id.org/cdisc/cosmos/dss/DD/PRCDTH/DDDTC> ;
    cosmos_sdtm:biomedicalConceptId NCIT:C99531 ;
    cosmos_sdtm:domain "DD" ;
    cosmos_sdtm:packageDate "2026-05-26"^^xsd:date ;
    cosmos_sdtm:packageType <https://www.cdisc.org/cosmos/sdtm_v1.0/PackageTypeEnum#sdtm> ;
    cosmos_sdtm:sdtmigStartVersion "3-2" ;
    cosmos_sdtm:shortName "Primary Cause of Death" ;
    cosmos_sdtm:source "DD.DDTESTCD" ;
    cosmos_sdtm:variables <https://w3id.org/cdisc/cosmos/dss/DD/PRCDTH/DDDTC>,
        <https://w3id.org/cdisc/cosmos/dss/DD/PRCDTH/DDORRES>,
        <https://w3id.org/cdisc/cosmos/dss/DD/PRCDTH/DDSTRESC>,
        <https://w3id.org/cdisc/cosmos/dss/DD/PRCDTH/DDTEST>,
        <https://w3id.org/cdisc/cosmos/dss/DD/PRCDTH/DDTESTCD> .

<https://w3id.org/cdisc/cosmos/dss/DD/SDTHIND> a cosmos_sdtm:SDTMGroup ;
    dcterms:identifier "SDTHIND" ;
    rdf:_1 <https://w3id.org/cdisc/cosmos/dss/DD/SDTHIND/DDTESTCD> ;
    rdf:_2 <https://w3id.org/cdisc/cosmos/dss/DD/SDTHIND/DDTEST> ;
    rdf:_3 <https://w3id.org/cdisc/cosmos/dss/DD/SDTHIND/DDORRES> ;
    rdf:_4 <https://w3id.org/cdisc/cosmos/dss/DD/SDTHIND/DDSTRESC> ;
    rdf:_5 <https://w3id.org/cdisc/cosmos/dss/DD/SDTHIND/DDDTC> ;
    cosmos_sdtm:biomedicalConceptId NCIT:C174284 ;
    cosmos_sdtm:domain "DD" ;
    cosmos_sdtm:packageDate "2026-05-26"^^xsd:date ;
    cosmos_sdtm:packageType <https://www.cdisc.org/cosmos/sdtm_v1.0/PackageTypeEnum#sdtm> ;
    cosmos_sdtm:sdtmigStartVersion "3-2" ;
    cosmos_sdtm:shortName "Sudden Death Indicator" ;
    cosmos_sdtm:source "DD.DDTESTCD" ;
    cosmos_sdtm:variables <https://w3id.org/cdisc/cosmos/dss/DD/SDTHIND/DDDTC>,
        <https://w3id.org/cdisc/cosmos/dss/DD/SDTHIND/DDORRES>,
        <https://w3id.org/cdisc/cosmos/dss/DD/SDTHIND/DDSTRESC>,
        <https://w3id.org/cdisc/cosmos/dss/DD/SDTHIND/DDTEST>,
        <https://w3id.org/cdisc/cosmos/dss/DD/SDTHIND/DDTESTCD> .

<https://w3id.org/cdisc/cosmos/dss/DD/SECDTH> a cosmos_sdtm:SDTMGroup ;
    dcterms:identifier "SECDTH" ;
    rdf:_1 <https://w3id.org/cdisc/cosmos/dss/DD/SECDTH/DDTESTCD> ;
    rdf:_2 <https://w3id.org/cdisc/cosmos/dss/DD/SECDTH/DDTEST> ;
    rdf:_3 <https://w3id.org/cdisc/cosmos/dss/DD/SECDTH/DDORRES> ;
    rdf:_4 <https://w3id.org/cdisc/cosmos/dss/DD/SECDTH/DDSTRESC> ;
    rdf:_5 <https://w3id.org/cdisc/cosmos/dss/DD/SECDTH/DDDTC> ;
    cosmos_sdtm:biomedicalConceptId NCIT:C116142 ;
    cosmos_sdtm:domain "DD" ;
    cosmos_sdtm:packageDate "2026-05-26"^^xsd:date ;
    cosmos_sdtm:packageType <https://www.cdisc.org/cosmos/sdtm_v1.0/PackageTypeEnum#sdtm> ;
    cosmos_sdtm:sdtmigStartVersion "3-2" ;
    cosmos_sdtm:shortName "Secondary Cause of Death" ;
    cosmos_sdtm:source "DD.DDTESTCD" ;
    cosmos_sdtm:variables <https://w3id.org/cdisc/cosmos/dss/DD/SECDTH/DDDTC>,
        <https://w3id.org/cdisc/cosmos/dss/DD/SECDTH/DDORRES>,
        <https://w3id.org/cdisc/cosmos/dss/DD/SECDTH/DDSTRESC>,
        <https://w3id.org/cdisc/cosmos/dss/DD/SECDTH/DDTEST>,
        <https://w3id.org/cdisc/cosmos/dss/DD/SECDTH/DDTESTCD> .

<https://w3id.org/cdisc/cosmos/dss/DD/AGEDTH/DDDTC/relationship> a cosmos_sdtm:RelationShip ;
    cosmos_sdtm:linkingPhrase <https://www.cdisc.org/cosmos/sdtm_v1.0/LinkingPhraseEnum#is%20the%20date%20of%20occurrence%20for> ;
    cosmos_sdtm:object "DDTESTCD" ;
    cosmos_sdtm:predicateTerm <https://www.cdisc.org/cosmos/sdtm_v1.0/PredicateTermEnum#IS_TIMING_FOR> ;
    cosmos_sdtm:subject "DDDTC" .

<https://w3id.org/cdisc/cosmos/dss/DD/AGEDTH/DDORRES/relationship> a cosmos_sdtm:RelationShip ;
    cosmos_sdtm:linkingPhrase <https://www.cdisc.org/cosmos/sdtm_v1.0/LinkingPhraseEnum#is%20the%20result%20of%20the%20test%20in> ;
    cosmos_sdtm:object "DDTESTCD" ;
    cosmos_sdtm:predicateTerm <https://www.cdisc.org/cosmos/sdtm_v1.0/PredicateTermEnum#IS_RESULT_OF> ;
    cosmos_sdtm:subject "DDORRES" .

<https://w3id.org/cdisc/cosmos/dss/DD/AGEDTH/DDORRESU/relationship> a cosmos_sdtm:RelationShip ;
    cosmos_sdtm:linkingPhrase <https://www.cdisc.org/cosmos/sdtm_v1.0/LinkingPhraseEnum#is%20the%20unit%20for%20the%20value%20in> ;
    cosmos_sdtm:object "DDORRES" ;
    cosmos_sdtm:predicateTerm <https://www.cdisc.org/cosmos/sdtm_v1.0/PredicateTermEnum#IS_UNIT_FOR> ;
    cosmos_sdtm:subject "DDORRESU" .

<https://w3id.org/cdisc/cosmos/dss/DD/AGEDTH/DDSTRESC/relationship> a cosmos_sdtm:RelationShip ;
    cosmos_sdtm:linkingPhrase <https://www.cdisc.org/cosmos/sdtm_v1.0/LinkingPhraseEnum#is%20the%20result%20of%20the%20test%20in> ;
    cosmos_sdtm:object "DDTESTCD" ;
    cosmos_sdtm:predicateTerm <https://www.cdisc.org/cosmos/sdtm_v1.0/PredicateTermEnum#IS_RESULT_OF> ;
    cosmos_sdtm:subject "DDSTRESC" .

<https://w3id.org/cdisc/cosmos/dss/DD/AGEDTH/DDSTRESN/relationship> a cosmos_sdtm:RelationShip ;
    cosmos_sdtm:linkingPhrase <https://www.cdisc.org/cosmos/sdtm_v1.0/LinkingPhraseEnum#is%20the%20result%20of%20the%20test%20in> ;
    cosmos_sdtm:object "DDTESTCD" ;
    cosmos_sdtm:predicateTerm <https://www.cdisc.org/cosmos/sdtm_v1.0/PredicateTermEnum#IS_RESULT_OF> ;
    cosmos_sdtm:subject "DDSTRESN" .

<https://w3id.org/cdisc/cosmos/dss/DD/AGEDTH/DDSTRESU/relationship> a cosmos_sdtm:RelationShip ;
    cosmos_sdtm:linkingPhrase <https://www.cdisc.org/cosmos/sdtm_v1.0/LinkingPhraseEnum#is%20the%20unit%20for%20the%20value%20in> ;
    cosmos_sdtm:object "DDSTRESN" ;
    cosmos_sdtm:predicateTerm <https://www.cdisc.org/cosmos/sdtm_v1.0/PredicateTermEnum#IS_UNIT_FOR> ;
    cosmos_sdtm:subject "DDSTRESU" .

<https://w3id.org/cdisc/cosmos/dss/DD/AGEDTH/DDTEST/assignedTerm> a cosmos_sdtm:AssignedTerm ;
    cosmos_sdtm:conceptId NCIT:C135383 ;
    cosmos_sdtm:value "Age at Death" .

<https://w3id.org/cdisc/cosmos/dss/DD/AGEDTH/DDTEST/relationship> a cosmos_sdtm:RelationShip ;
    cosmos_sdtm:linkingPhrase <https://www.cdisc.org/cosmos/sdtm_v1.0/LinkingPhraseEnum#decodes%20the%20value%20in> ;
    cosmos_sdtm:object "DDTESTCD" ;
    cosmos_sdtm:predicateTerm <https://www.cdisc.org/cosmos/sdtm_v1.0/PredicateTermEnum#DECODES> ;
    cosmos_sdtm:subject "DDTEST" .

<https://w3id.org/cdisc/cosmos/dss/DD/AGEDTH/DDTESTCD/assignedTerm> a cosmos_sdtm:AssignedTerm ;
    cosmos_sdtm:conceptId NCIT:C135383 ;
    cosmos_sdtm:value "AGEDTH" .

<https://w3id.org/cdisc/cosmos/dss/DD/AGEDTH/DDTESTCD/relationship> a cosmos_sdtm:RelationShip ;
    cosmos_sdtm:linkingPhrase <https://www.cdisc.org/cosmos/sdtm_v1.0/LinkingPhraseEnum#is%20the%20code%20for%20the%20value%20in> ;
    cosmos_sdtm:object "DDTEST" ;
    cosmos_sdtm:predicateTerm <https://www.cdisc.org/cosmos/sdtm_v1.0/PredicateTermEnum#IS_DECODED_BY> ;
    cosmos_sdtm:subject "DDTESTCD" .

<https://w3id.org/cdisc/cosmos/dss/DD/AUTOPIND/DDDTC/relationship> a cosmos_sdtm:RelationShip ;
    cosmos_sdtm:linkingPhrase <https://www.cdisc.org/cosmos/sdtm_v1.0/LinkingPhraseEnum#is%20the%20date%20of%20occurrence%20for> ;
    cosmos_sdtm:object "DDTESTCD" ;
    cosmos_sdtm:predicateTerm <https://www.cdisc.org/cosmos/sdtm_v1.0/PredicateTermEnum#IS_TIMING_FOR> ;
    cosmos_sdtm:subject "DDDTC" .

<https://w3id.org/cdisc/cosmos/dss/DD/AUTOPIND/DDORRES/relationship> a cosmos_sdtm:RelationShip ;
    cosmos_sdtm:linkingPhrase <https://www.cdisc.org/cosmos/sdtm_v1.0/LinkingPhraseEnum#is%20the%20result%20of%20the%20test%20in> ;
    cosmos_sdtm:object "DDTESTCD" ;
    cosmos_sdtm:predicateTerm <https://www.cdisc.org/cosmos/sdtm_v1.0/PredicateTermEnum#IS_RESULT_OF> ;
    cosmos_sdtm:subject "DDORRES" .

<https://w3id.org/cdisc/cosmos/dss/DD/AUTOPIND/DDSTRESC/relationship> a cosmos_sdtm:RelationShip ;
    cosmos_sdtm:linkingPhrase <https://www.cdisc.org/cosmos/sdtm_v1.0/LinkingPhraseEnum#is%20the%20result%20of%20the%20test%20in> ;
    cosmos_sdtm:object "DDTESTCD" ;
    cosmos_sdtm:predicateTerm <https://www.cdisc.org/cosmos/sdtm_v1.0/PredicateTermEnum#IS_RESULT_OF> ;
    cosmos_sdtm:subject "DDSTRESC" .

<https://w3id.org/cdisc/cosmos/dss/DD/AUTOPIND/DDTEST/assignedTerm> a cosmos_sdtm:AssignedTerm ;
    cosmos_sdtm:conceptId NCIT:C135384 ;
    cosmos_sdtm:value "Autopsy Indicator" .

<https://w3id.org/cdisc/cosmos/dss/DD/AUTOPIND/DDTEST/relationship> a cosmos_sdtm:RelationShip ;
    cosmos_sdtm:linkingPhrase <https://www.cdisc.org/cosmos/sdtm_v1.0/LinkingPhraseEnum#decodes%20the%20value%20in> ;
    cosmos_sdtm:object "DDTESTCD" ;
    cosmos_sdtm:predicateTerm <https://www.cdisc.org/cosmos/sdtm_v1.0/PredicateTermEnum#DECODES> ;
    cosmos_sdtm:subject "DDTEST" .

<https://w3id.org/cdisc/cosmos/dss/DD/AUTOPIND/DDTESTCD/assignedTerm> a cosmos_sdtm:AssignedTerm ;
    cosmos_sdtm:conceptId NCIT:C135384 ;
    cosmos_sdtm:value "AUTOPIND" .

<https://w3id.org/cdisc/cosmos/dss/DD/AUTOPIND/DDTESTCD/relationship> a cosmos_sdtm:RelationShip ;
    cosmos_sdtm:linkingPhrase <https://www.cdisc.org/cosmos/sdtm_v1.0/LinkingPhraseEnum#is%20the%20code%20for%20the%20value%20in> ;
    cosmos_sdtm:object "DDTEST" ;
    cosmos_sdtm:predicateTerm <https://www.cdisc.org/cosmos/sdtm_v1.0/PredicateTermEnum#IS_DECODED_BY> ;
    cosmos_sdtm:subject "DDTESTCD" .

<https://w3id.org/cdisc/cosmos/dss/DD/CUSCDIND/DDDTC/relationship> a cosmos_sdtm:RelationShip ;
    cosmos_sdtm:linkingPhrase <https://www.cdisc.org/cosmos/sdtm_v1.0/LinkingPhraseEnum#is%20the%20date%20of%20occurrence%20for> ;
    cosmos_sdtm:object "DDTESTCD" ;
    cosmos_sdtm:predicateTerm <https://www.cdisc.org/cosmos/sdtm_v1.0/PredicateTermEnum#IS_TIMING_FOR> ;
    cosmos_sdtm:subject "DDDTC" .

<https://w3id.org/cdisc/cosmos/dss/DD/CUSCDIND/DDORRES/relationship> a cosmos_sdtm:RelationShip ;
    cosmos_sdtm:linkingPhrase <https://www.cdisc.org/cosmos/sdtm_v1.0/LinkingPhraseEnum#is%20the%20result%20of%20the%20test%20in> ;
    cosmos_sdtm:object "DDTESTCD" ;
    cosmos_sdtm:predicateTerm <https://www.cdisc.org/cosmos/sdtm_v1.0/PredicateTermEnum#IS_RESULT_OF> ;
    cosmos_sdtm:subject "DDORRES" .

<https://w3id.org/cdisc/cosmos/dss/DD/CUSCDIND/DDSTRESC/relationship> a cosmos_sdtm:RelationShip ;
    cosmos_sdtm:linkingPhrase <https://www.cdisc.org/cosmos/sdtm_v1.0/LinkingPhraseEnum#is%20the%20result%20of%20the%20test%20in> ;
    cosmos_sdtm:object "DDTESTCD" ;
    cosmos_sdtm:predicateTerm <https://www.cdisc.org/cosmos/sdtm_v1.0/PredicateTermEnum#IS_RESULT_OF> ;
    cosmos_sdtm:subject "DDSTRESC" .

<https://w3id.org/cdisc/cosmos/dss/DD/CUSCDIND/DDTEST/assignedTerm> a cosmos_sdtm:AssignedTerm ;
    cosmos_sdtm:conceptId NCIT:C199843 ;
    cosmos_sdtm:value "Cond Under Study Contrib to Death Ind" .

<https://w3id.org/cdisc/cosmos/dss/DD/CUSCDIND/DDTEST/relationship> a cosmos_sdtm:RelationShip ;
    cosmos_sdtm:linkingPhrase <https://www.cdisc.org/cosmos/sdtm_v1.0/LinkingPhraseEnum#decodes%20the%20value%20in> ;
    cosmos_sdtm:object "DDTESTCD" ;
    cosmos_sdtm:predicateTerm <https://www.cdisc.org/cosmos/sdtm_v1.0/PredicateTermEnum#DECODES> ;
    cosmos_sdtm:subject "DDTEST" .

<https://w3id.org/cdisc/cosmos/dss/DD/CUSCDIND/DDTESTCD/assignedTerm> a cosmos_sdtm:AssignedTerm ;
    cosmos_sdtm:conceptId NCIT:C199843 ;
    cosmos_sdtm:value "CUSCDIND" .

<https://w3id.org/cdisc/cosmos/dss/DD/CUSCDIND/DDTESTCD/relationship> a cosmos_sdtm:RelationShip ;
    cosmos_sdtm:linkingPhrase <https://www.cdisc.org/cosmos/sdtm_v1.0/LinkingPhraseEnum#is%20the%20code%20for%20the%20value%20in> ;
    cosmos_sdtm:object "DDTEST" ;
    cosmos_sdtm:predicateTerm <https://www.cdisc.org/cosmos/sdtm_v1.0/PredicateTermEnum#IS_DECODED_BY> ;
    cosmos_sdtm:subject "DDTESTCD" .

<https://w3id.org/cdisc/cosmos/dss/DD/DTHCOIND/DDDTC/relationship> a cosmos_sdtm:RelationShip ;
    cosmos_sdtm:linkingPhrase <https://www.cdisc.org/cosmos/sdtm_v1.0/LinkingPhraseEnum#is%20the%20date%20of%20occurrence%20for> ;
    cosmos_sdtm:object "DDTESTCD" ;
    cosmos_sdtm:predicateTerm <https://www.cdisc.org/cosmos/sdtm_v1.0/PredicateTermEnum#IS_TIMING_FOR> ;
    cosmos_sdtm:subject "DDDTC" .

<https://w3id.org/cdisc/cosmos/dss/DD/DTHCOIND/DDORRES/relationship> a cosmos_sdtm:RelationShip ;
    cosmos_sdtm:linkingPhrase <https://www.cdisc.org/cosmos/sdtm_v1.0/LinkingPhraseEnum#is%20the%20result%20of%20the%20test%20in> ;
    cosmos_sdtm:object "DDTESTCD" ;
    cosmos_sdtm:predicateTerm <https://www.cdisc.org/cosmos/sdtm_v1.0/PredicateTermEnum#IS_RESULT_OF> ;
    cosmos_sdtm:subject "DDORRES" .

<https://w3id.org/cdisc/cosmos/dss/DD/DTHCOIND/DDSTRESC/relationship> a cosmos_sdtm:RelationShip ;
    cosmos_sdtm:linkingPhrase <https://www.cdisc.org/cosmos/sdtm_v1.0/LinkingPhraseEnum#is%20the%20result%20of%20the%20test%20in> ;
    cosmos_sdtm:object "DDTESTCD" ;
    cosmos_sdtm:predicateTerm <https://www.cdisc.org/cosmos/sdtm_v1.0/PredicateTermEnum#IS_RESULT_OF> ;
    cosmos_sdtm:subject "DDSTRESC" .

<https://w3id.org/cdisc/cosmos/dss/DD/DTHCOIND/DDTEST/assignedTerm> a cosmos_sdtm:AssignedTerm ;
    cosmos_sdtm:conceptId NCIT:C135385 ;
    cosmos_sdtm:value "Death Certificate Obtained Indicator" .

<https://w3id.org/cdisc/cosmos/dss/DD/DTHCOIND/DDTEST/relationship> a cosmos_sdtm:RelationShip ;
    cosmos_sdtm:linkingPhrase <https://www.cdisc.org/cosmos/sdtm_v1.0/LinkingPhraseEnum#decodes%20the%20value%20in> ;
    cosmos_sdtm:object "DDTESTCD" ;
    cosmos_sdtm:predicateTerm <https://www.cdisc.org/cosmos/sdtm_v1.0/PredicateTermEnum#DECODES> ;
    cosmos_sdtm:subject "DDTEST" .

<https://w3id.org/cdisc/cosmos/dss/DD/DTHCOIND/DDTESTCD/assignedTerm> a cosmos_sdtm:AssignedTerm ;
    cosmos_sdtm:conceptId NCIT:C135385 ;
    cosmos_sdtm:value "DTHCOIND" .

<https://w3id.org/cdisc/cosmos/dss/DD/DTHCOIND/DDTESTCD/relationship> a cosmos_sdtm:RelationShip ;
    cosmos_sdtm:linkingPhrase <https://www.cdisc.org/cosmos/sdtm_v1.0/LinkingPhraseEnum#is%20the%20code%20for%20the%20value%20in> ;
    cosmos_sdtm:object "DDTEST" ;
    cosmos_sdtm:predicateTerm <https://www.cdisc.org/cosmos/sdtm_v1.0/PredicateTermEnum#IS_DECODED_BY> ;
    cosmos_sdtm:subject "DDTESTCD" .

<https://w3id.org/cdisc/cosmos/dss/DD/DTHEXIND/DDDTC/relationship> a cosmos_sdtm:RelationShip ;
    cosmos_sdtm:linkingPhrase <https://www.cdisc.org/cosmos/sdtm_v1.0/LinkingPhraseEnum#is%20the%20date%20of%20occurrence%20for> ;
    cosmos_sdtm:object "DDTESTCD" ;
    cosmos_sdtm:predicateTerm <https://www.cdisc.org/cosmos/sdtm_v1.0/PredicateTermEnum#IS_TIMING_FOR> ;
    cosmos_sdtm:subject "DDDTC" .

<https://w3id.org/cdisc/cosmos/dss/DD/DTHEXIND/DDORRES/relationship> a cosmos_sdtm:RelationShip ;
    cosmos_sdtm:linkingPhrase <https://www.cdisc.org/cosmos/sdtm_v1.0/LinkingPhraseEnum#is%20the%20result%20of%20the%20test%20in> ;
    cosmos_sdtm:object "DDTESTCD" ;
    cosmos_sdtm:predicateTerm <https://www.cdisc.org/cosmos/sdtm_v1.0/PredicateTermEnum#IS_RESULT_OF> ;
    cosmos_sdtm:subject "DDORRES" .

<https://w3id.org/cdisc/cosmos/dss/DD/DTHEXIND/DDSTRESC/relationship> a cosmos_sdtm:RelationShip ;
    cosmos_sdtm:linkingPhrase <https://www.cdisc.org/cosmos/sdtm_v1.0/LinkingPhraseEnum#is%20the%20result%20of%20the%20test%20in> ;
    cosmos_sdtm:object "DDTESTCD" ;
    cosmos_sdtm:predicateTerm <https://www.cdisc.org/cosmos/sdtm_v1.0/PredicateTermEnum#IS_RESULT_OF> ;
    cosmos_sdtm:subject "DDSTRESC" .

<https://w3id.org/cdisc/cosmos/dss/DD/DTHEXIND/DDTEST/assignedTerm> a cosmos_sdtm:AssignedTerm ;
    cosmos_sdtm:conceptId NCIT:C184505 ;
    cosmos_sdtm:value "Death Expected Indicator" .

<https://w3id.org/cdisc/cosmos/dss/DD/DTHEXIND/DDTEST/relationship> a cosmos_sdtm:RelationShip ;
    cosmos_sdtm:linkingPhrase <https://www.cdisc.org/cosmos/sdtm_v1.0/LinkingPhraseEnum#decodes%20the%20value%20in> ;
    cosmos_sdtm:object "DDTESTCD" ;
    cosmos_sdtm:predicateTerm <https://www.cdisc.org/cosmos/sdtm_v1.0/PredicateTermEnum#DECODES> ;
    cosmos_sdtm:subject "DDTEST" .

<https://w3id.org/cdisc/cosmos/dss/DD/DTHEXIND/DDTESTCD/assignedTerm> a cosmos_sdtm:AssignedTerm ;
    cosmos_sdtm:conceptId NCIT:C184505 ;
    cosmos_sdtm:value "DTHEXIND" .

<https://w3id.org/cdisc/cosmos/dss/DD/DTHEXIND/DDTESTCD/relationship> a cosmos_sdtm:RelationShip ;
    cosmos_sdtm:linkingPhrase <https://www.cdisc.org/cosmos/sdtm_v1.0/LinkingPhraseEnum#is%20the%20code%20for%20the%20value%20in> ;
    cosmos_sdtm:object "DDTEST" ;
    cosmos_sdtm:predicateTerm <https://www.cdisc.org/cosmos/sdtm_v1.0/PredicateTermEnum#IS_DECODED_BY> ;
    cosmos_sdtm:subject "DDTESTCD" .

<https://w3id.org/cdisc/cosmos/dss/DD/DTHWIND/DDDTC/relationship> a cosmos_sdtm:RelationShip ;
    cosmos_sdtm:linkingPhrase <https://www.cdisc.org/cosmos/sdtm_v1.0/LinkingPhraseEnum#is%20the%20date%20of%20occurrence%20for> ;
    cosmos_sdtm:object "DDTESTCD" ;
    cosmos_sdtm:predicateTerm <https://www.cdisc.org/cosmos/sdtm_v1.0/PredicateTermEnum#IS_TIMING_FOR> ;
    cosmos_sdtm:subject "DDDTC" .

<https://w3id.org/cdisc/cosmos/dss/DD/DTHWIND/DDORRES/relationship> a cosmos_sdtm:RelationShip ;
    cosmos_sdtm:linkingPhrase <https://www.cdisc.org/cosmos/sdtm_v1.0/LinkingPhraseEnum#is%20the%20result%20of%20the%20test%20in> ;
    cosmos_sdtm:object "DDTESTCD" ;
    cosmos_sdtm:predicateTerm <https://www.cdisc.org/cosmos/sdtm_v1.0/PredicateTermEnum#IS_RESULT_OF> ;
    cosmos_sdtm:subject "DDORRES" .

<https://w3id.org/cdisc/cosmos/dss/DD/DTHWIND/DDSTRESC/relationship> a cosmos_sdtm:RelationShip ;
    cosmos_sdtm:linkingPhrase <https://www.cdisc.org/cosmos/sdtm_v1.0/LinkingPhraseEnum#is%20the%20result%20of%20the%20test%20in> ;
    cosmos_sdtm:object "DDTESTCD" ;
    cosmos_sdtm:predicateTerm <https://www.cdisc.org/cosmos/sdtm_v1.0/PredicateTermEnum#IS_RESULT_OF> ;
    cosmos_sdtm:subject "DDSTRESC" .

<https://w3id.org/cdisc/cosmos/dss/DD/DTHWIND/DDTEST/assignedTerm> a cosmos_sdtm:AssignedTerm ;
    cosmos_sdtm:conceptId NCIT:C170571 ;
    cosmos_sdtm:value "Death Witnessed Indicator" .

<https://w3id.org/cdisc/cosmos/dss/DD/DTHWIND/DDTEST/relationship> a cosmos_sdtm:RelationShip ;
    cosmos_sdtm:linkingPhrase <https://www.cdisc.org/cosmos/sdtm_v1.0/LinkingPhraseEnum#decodes%20the%20value%20in> ;
    cosmos_sdtm:object "DDTESTCD" ;
    cosmos_sdtm:predicateTerm <https://www.cdisc.org/cosmos/sdtm_v1.0/PredicateTermEnum#DECODES> ;
    cosmos_sdtm:subject "DDTEST" .

<https://w3id.org/cdisc/cosmos/dss/DD/DTHWIND/DDTESTCD/assignedTerm> a cosmos_sdtm:AssignedTerm ;
    cosmos_sdtm:conceptId NCIT:C170571 ;
    cosmos_sdtm:value "DTHWIND" .

<https://w3id.org/cdisc/cosmos/dss/DD/DTHWIND/DDTESTCD/relationship> a cosmos_sdtm:RelationShip ;
    cosmos_sdtm:linkingPhrase <https://www.cdisc.org/cosmos/sdtm_v1.0/LinkingPhraseEnum#is%20the%20code%20for%20the%20value%20in> ;
    cosmos_sdtm:object "DDTEST" ;
    cosmos_sdtm:predicateTerm <https://www.cdisc.org/cosmos/sdtm_v1.0/PredicateTermEnum#IS_DECODED_BY> ;
    cosmos_sdtm:subject "DDTESTCD" .

<https://w3id.org/cdisc/cosmos/dss/DD/HMROIND/DDDTC/relationship> a cosmos_sdtm:RelationShip ;
    cosmos_sdtm:linkingPhrase <https://www.cdisc.org/cosmos/sdtm_v1.0/LinkingPhraseEnum#is%20the%20date%20of%20occurrence%20for> ;
    cosmos_sdtm:object "DDTESTCD" ;
    cosmos_sdtm:predicateTerm <https://www.cdisc.org/cosmos/sdtm_v1.0/PredicateTermEnum#IS_TIMING_FOR> ;
    cosmos_sdtm:subject "DDDTC" .

<https://w3id.org/cdisc/cosmos/dss/DD/HMROIND/DDORRES/relationship> a cosmos_sdtm:RelationShip ;
    cosmos_sdtm:linkingPhrase <https://www.cdisc.org/cosmos/sdtm_v1.0/LinkingPhraseEnum#is%20the%20result%20of%20the%20test%20in> ;
    cosmos_sdtm:object "DDTESTCD" ;
    cosmos_sdtm:predicateTerm <https://www.cdisc.org/cosmos/sdtm_v1.0/PredicateTermEnum#IS_RESULT_OF> ;
    cosmos_sdtm:subject "DDORRES" .

<https://w3id.org/cdisc/cosmos/dss/DD/HMROIND/DDSTRESC/relationship> a cosmos_sdtm:RelationShip ;
    cosmos_sdtm:linkingPhrase <https://www.cdisc.org/cosmos/sdtm_v1.0/LinkingPhraseEnum#is%20the%20result%20of%20the%20test%20in> ;
    cosmos_sdtm:object "DDTESTCD" ;
    cosmos_sdtm:predicateTerm <https://www.cdisc.org/cosmos/sdtm_v1.0/PredicateTermEnum#IS_RESULT_OF> ;
    cosmos_sdtm:subject "DDSTRESC" .

<https://w3id.org/cdisc/cosmos/dss/DD/HMROIND/DDTEST/assignedTerm> a cosmos_sdtm:AssignedTerm ;
    cosmos_sdtm:conceptId NCIT:C135386 ;
    cosmos_sdtm:value "Hospital Medical Record Obtained Ind" .

<https://w3id.org/cdisc/cosmos/dss/DD/HMROIND/DDTEST/relationship> a cosmos_sdtm:RelationShip ;
    cosmos_sdtm:linkingPhrase <https://www.cdisc.org/cosmos/sdtm_v1.0/LinkingPhraseEnum#decodes%20the%20value%20in> ;
    cosmos_sdtm:object "DDTESTCD" ;
    cosmos_sdtm:predicateTerm <https://www.cdisc.org/cosmos/sdtm_v1.0/PredicateTermEnum#DECODES> ;
    cosmos_sdtm:subject "DDTEST" .

<https://w3id.org/cdisc/cosmos/dss/DD/HMROIND/DDTESTCD/assignedTerm> a cosmos_sdtm:AssignedTerm ;
    cosmos_sdtm:conceptId NCIT:C135386 ;
    cosmos_sdtm:value "HMROIND" .

<https://w3id.org/cdisc/cosmos/dss/DD/HMROIND/DDTESTCD/relationship> a cosmos_sdtm:RelationShip ;
    cosmos_sdtm:linkingPhrase <https://www.cdisc.org/cosmos/sdtm_v1.0/LinkingPhraseEnum#is%20the%20code%20for%20the%20value%20in> ;
    cosmos_sdtm:object "DDTEST" ;
    cosmos_sdtm:predicateTerm <https://www.cdisc.org/cosmos/sdtm_v1.0/PredicateTermEnum#IS_DECODED_BY> ;
    cosmos_sdtm:subject "DDTESTCD" .

<https://w3id.org/cdisc/cosmos/dss/DD/HSDTHIND/DDDTC/relationship> a cosmos_sdtm:RelationShip ;
    cosmos_sdtm:linkingPhrase <https://www.cdisc.org/cosmos/sdtm_v1.0/LinkingPhraseEnum#is%20the%20date%20of%20occurrence%20for> ;
    cosmos_sdtm:object "DDTESTCD" ;
    cosmos_sdtm:predicateTerm <https://www.cdisc.org/cosmos/sdtm_v1.0/PredicateTermEnum#IS_TIMING_FOR> ;
    cosmos_sdtm:subject "DDDTC" .

<https://w3id.org/cdisc/cosmos/dss/DD/HSDTHIND/DDORRES/relationship> a cosmos_sdtm:RelationShip ;
    cosmos_sdtm:linkingPhrase <https://www.cdisc.org/cosmos/sdtm_v1.0/LinkingPhraseEnum#is%20the%20result%20of%20the%20test%20in> ;
    cosmos_sdtm:object "DDTESTCD" ;
    cosmos_sdtm:predicateTerm <https://www.cdisc.org/cosmos/sdtm_v1.0/PredicateTermEnum#IS_RESULT_OF> ;
    cosmos_sdtm:subject "DDORRES" .

<https://w3id.org/cdisc/cosmos/dss/DD/HSDTHIND/DDSTRESC/relationship> a cosmos_sdtm:RelationShip ;
    cosmos_sdtm:linkingPhrase <https://www.cdisc.org/cosmos/sdtm_v1.0/LinkingPhraseEnum#is%20the%20result%20of%20the%20test%20in> ;
    cosmos_sdtm:object "DDTESTCD" ;
    cosmos_sdtm:predicateTerm <https://www.cdisc.org/cosmos/sdtm_v1.0/PredicateTermEnum#IS_RESULT_OF> ;
    cosmos_sdtm:subject "DDSTRESC" .

<https://w3id.org/cdisc/cosmos/dss/DD/HSDTHIND/DDTEST/assignedTerm> a cosmos_sdtm:AssignedTerm ;
    cosmos_sdtm:conceptId NCIT:C198258 ;
    cosmos_sdtm:value "Hospitalized at Time of Death Indicator" .

<https://w3id.org/cdisc/cosmos/dss/DD/HSDTHIND/DDTEST/relationship> a cosmos_sdtm:RelationShip ;
    cosmos_sdtm:linkingPhrase <https://www.cdisc.org/cosmos/sdtm_v1.0/LinkingPhraseEnum#decodes%20the%20value%20in> ;
    cosmos_sdtm:object "DDTESTCD" ;
    cosmos_sdtm:predicateTerm <https://www.cdisc.org/cosmos/sdtm_v1.0/PredicateTermEnum#DECODES> ;
    cosmos_sdtm:subject "DDTEST" .

<https://w3id.org/cdisc/cosmos/dss/DD/HSDTHIND/DDTESTCD/assignedTerm> a cosmos_sdtm:AssignedTerm ;
    cosmos_sdtm:conceptId NCIT:C198258 ;
    cosmos_sdtm:value "HSDTHIND" .

<https://w3id.org/cdisc/cosmos/dss/DD/HSDTHIND/DDTESTCD/relationship> a cosmos_sdtm:RelationShip ;
    cosmos_sdtm:linkingPhrase <https://www.cdisc.org/cosmos/sdtm_v1.0/LinkingPhraseEnum#is%20the%20code%20for%20the%20value%20in> ;
    cosmos_sdtm:object "DDTEST" ;
    cosmos_sdtm:predicateTerm <https://www.cdisc.org/cosmos/sdtm_v1.0/PredicateTermEnum#IS_DECODED_BY> ;
    cosmos_sdtm:subject "DDTESTCD" .

<https://w3id.org/cdisc/cosmos/dss/DD/INFOSCOD/DDDTC/relationship> a cosmos_sdtm:RelationShip ;
    cosmos_sdtm:linkingPhrase <https://www.cdisc.org/cosmos/sdtm_v1.0/LinkingPhraseEnum#is%20the%20date%20of%20occurrence%20for> ;
    cosmos_sdtm:object "DDTESTCD" ;
    cosmos_sdtm:predicateTerm <https://www.cdisc.org/cosmos/sdtm_v1.0/PredicateTermEnum#IS_TIMING_FOR> ;
    cosmos_sdtm:subject "DDDTC" .

<https://w3id.org/cdisc/cosmos/dss/DD/INFOSCOD/DDORRES/relationship> a cosmos_sdtm:RelationShip ;
    cosmos_sdtm:linkingPhrase <https://www.cdisc.org/cosmos/sdtm_v1.0/LinkingPhraseEnum#is%20the%20result%20of%20the%20test%20in> ;
    cosmos_sdtm:object "DDTESTCD" ;
    cosmos_sdtm:predicateTerm <https://www.cdisc.org/cosmos/sdtm_v1.0/PredicateTermEnum#IS_RESULT_OF> ;
    cosmos_sdtm:subject "DDORRES" .

<https://w3id.org/cdisc/cosmos/dss/DD/INFOSCOD/DDSTRESC/relationship> a cosmos_sdtm:RelationShip ;
    cosmos_sdtm:linkingPhrase <https://www.cdisc.org/cosmos/sdtm_v1.0/LinkingPhraseEnum#is%20the%20result%20of%20the%20test%20in> ;
    cosmos_sdtm:object "DDTESTCD" ;
    cosmos_sdtm:predicateTerm <https://www.cdisc.org/cosmos/sdtm_v1.0/PredicateTermEnum#IS_RESULT_OF> ;
    cosmos_sdtm:subject "DDSTRESC" .

<https://w3id.org/cdisc/cosmos/dss/DD/INFOSCOD/DDTEST/assignedTerm> a cosmos_sdtm:AssignedTerm ;
    cosmos_sdtm:conceptId NCIT:C176287 ;
    cosmos_sdtm:value "Information Source for Cause of Death" .

<https://w3id.org/cdisc/cosmos/dss/DD/INFOSCOD/DDTEST/relationship> a cosmos_sdtm:RelationShip ;
    cosmos_sdtm:linkingPhrase <https://www.cdisc.org/cosmos/sdtm_v1.0/LinkingPhraseEnum#decodes%20the%20value%20in> ;
    cosmos_sdtm:object "DDTESTCD" ;
    cosmos_sdtm:predicateTerm <https://www.cdisc.org/cosmos/sdtm_v1.0/PredicateTermEnum#DECODES> ;
    cosmos_sdtm:subject "DDTEST" .

<https://w3id.org/cdisc/cosmos/dss/DD/INFOSCOD/DDTESTCD/assignedTerm> a cosmos_sdtm:AssignedTerm ;
    cosmos_sdtm:conceptId NCIT:C176287 ;
    cosmos_sdtm:value "INFOSCOD" .

<https://w3id.org/cdisc/cosmos/dss/DD/INFOSCOD/DDTESTCD/relationship> a cosmos_sdtm:RelationShip ;
    cosmos_sdtm:linkingPhrase <https://www.cdisc.org/cosmos/sdtm_v1.0/LinkingPhraseEnum#is%20the%20code%20for%20the%20value%20in> ;
    cosmos_sdtm:object "DDTEST" ;
    cosmos_sdtm:predicateTerm <https://www.cdisc.org/cosmos/sdtm_v1.0/PredicateTermEnum#IS_DECODED_BY> ;
    cosmos_sdtm:subject "DDTESTCD" .

<https://w3id.org/cdisc/cosmos/dss/DD/LOCDTH/DDDTC/relationship> a cosmos_sdtm:RelationShip ;
    cosmos_sdtm:linkingPhrase <https://www.cdisc.org/cosmos/sdtm_v1.0/LinkingPhraseEnum#is%20the%20date%20of%20occurrence%20for> ;
    cosmos_sdtm:object "DDTESTCD" ;
    cosmos_sdtm:predicateTerm <https://www.cdisc.org/cosmos/sdtm_v1.0/PredicateTermEnum#IS_TIMING_FOR> ;
    cosmos_sdtm:subject "DDDTC" .

<https://w3id.org/cdisc/cosmos/dss/DD/LOCDTH/DDORRES/relationship> a cosmos_sdtm:RelationShip ;
    cosmos_sdtm:linkingPhrase <https://www.cdisc.org/cosmos/sdtm_v1.0/LinkingPhraseEnum#is%20the%20result%20of%20the%20test%20in> ;
    cosmos_sdtm:object "DDTESTCD" ;
    cosmos_sdtm:predicateTerm <https://www.cdisc.org/cosmos/sdtm_v1.0/PredicateTermEnum#IS_RESULT_OF> ;
    cosmos_sdtm:subject "DDORRES" .

<https://w3id.org/cdisc/cosmos/dss/DD/LOCDTH/DDSTRESC/relationship> a cosmos_sdtm:RelationShip ;
    cosmos_sdtm:linkingPhrase <https://www.cdisc.org/cosmos/sdtm_v1.0/LinkingPhraseEnum#is%20the%20result%20of%20the%20test%20in> ;
    cosmos_sdtm:object "DDTESTCD" ;
    cosmos_sdtm:predicateTerm <https://www.cdisc.org/cosmos/sdtm_v1.0/PredicateTermEnum#IS_RESULT_OF> ;
    cosmos_sdtm:subject "DDSTRESC" .

<https://w3id.org/cdisc/cosmos/dss/DD/LOCDTH/DDTEST/assignedTerm> a cosmos_sdtm:AssignedTerm ;
    cosmos_sdtm:conceptId NCIT:C124331 ;
    cosmos_sdtm:value "Location of Death" .

<https://w3id.org/cdisc/cosmos/dss/DD/LOCDTH/DDTEST/relationship> a cosmos_sdtm:RelationShip ;
    cosmos_sdtm:linkingPhrase <https://www.cdisc.org/cosmos/sdtm_v1.0/LinkingPhraseEnum#decodes%20the%20value%20in> ;
    cosmos_sdtm:object "DDTESTCD" ;
    cosmos_sdtm:predicateTerm <https://www.cdisc.org/cosmos/sdtm_v1.0/PredicateTermEnum#DECODES> ;
    cosmos_sdtm:subject "DDTEST" .

<https://w3id.org/cdisc/cosmos/dss/DD/LOCDTH/DDTESTCD/assignedTerm> a cosmos_sdtm:AssignedTerm ;
    cosmos_sdtm:conceptId NCIT:C124331 ;
    cosmos_sdtm:value "LOCDTH" .

<https://w3id.org/cdisc/cosmos/dss/DD/LOCDTH/DDTESTCD/relationship> a cosmos_sdtm:RelationShip ;
    cosmos_sdtm:linkingPhrase <https://www.cdisc.org/cosmos/sdtm_v1.0/LinkingPhraseEnum#is%20the%20code%20for%20the%20value%20in> ;
    cosmos_sdtm:object "DDTEST" ;
    cosmos_sdtm:predicateTerm <https://www.cdisc.org/cosmos/sdtm_v1.0/PredicateTermEnum#IS_DECODED_BY> ;
    cosmos_sdtm:subject "DDTESTCD" .

<https://w3id.org/cdisc/cosmos/dss/DD/PRCDTH/DDDTC/relationship> a cosmos_sdtm:RelationShip ;
    cosmos_sdtm:linkingPhrase <https://www.cdisc.org/cosmos/sdtm_v1.0/LinkingPhraseEnum#is%20the%20date%20of%20occurrence%20for> ;
    cosmos_sdtm:object "DDTESTCD" ;
    cosmos_sdtm:predicateTerm <https://www.cdisc.org/cosmos/sdtm_v1.0/PredicateTermEnum#IS_TIMING_FOR> ;
    cosmos_sdtm:subject "DDDTC" .

<https://w3id.org/cdisc/cosmos/dss/DD/PRCDTH/DDORRES/relationship> a cosmos_sdtm:RelationShip ;
    cosmos_sdtm:linkingPhrase <https://www.cdisc.org/cosmos/sdtm_v1.0/LinkingPhraseEnum#is%20the%20result%20of%20the%20test%20in> ;
    cosmos_sdtm:object "DDTESTCD" ;
    cosmos_sdtm:predicateTerm <https://www.cdisc.org/cosmos/sdtm_v1.0/PredicateTermEnum#IS_RESULT_OF> ;
    cosmos_sdtm:subject "DDORRES" .

<https://w3id.org/cdisc/cosmos/dss/DD/PRCDTH/DDSTRESC/relationship> a cosmos_sdtm:RelationShip ;
    cosmos_sdtm:linkingPhrase <https://www.cdisc.org/cosmos/sdtm_v1.0/LinkingPhraseEnum#is%20the%20result%20of%20the%20test%20in> ;
    cosmos_sdtm:object "DDTESTCD" ;
    cosmos_sdtm:predicateTerm <https://www.cdisc.org/cosmos/sdtm_v1.0/PredicateTermEnum#IS_RESULT_OF> ;
    cosmos_sdtm:subject "DDSTRESC" .

<https://w3id.org/cdisc/cosmos/dss/DD/PRCDTH/DDTEST/assignedTerm> a cosmos_sdtm:AssignedTerm ;
    cosmos_sdtm:conceptId NCIT:C99531 ;
    cosmos_sdtm:value "Primary Cause of Death" .

<https://w3id.org/cdisc/cosmos/dss/DD/PRCDTH/DDTEST/relationship> a cosmos_sdtm:RelationShip ;
    cosmos_sdtm:linkingPhrase <https://www.cdisc.org/cosmos/sdtm_v1.0/LinkingPhraseEnum#decodes%20the%20value%20in> ;
    cosmos_sdtm:object "DDTESTCD" ;
    cosmos_sdtm:predicateTerm <https://www.cdisc.org/cosmos/sdtm_v1.0/PredicateTermEnum#DECODES> ;
    cosmos_sdtm:subject "DDTEST" .

<https://w3id.org/cdisc/cosmos/dss/DD/PRCDTH/DDTESTCD/assignedTerm> a cosmos_sdtm:AssignedTerm ;
    cosmos_sdtm:conceptId NCIT:C99531 ;
    cosmos_sdtm:value "PRCDTH" .

<https://w3id.org/cdisc/cosmos/dss/DD/PRCDTH/DDTESTCD/relationship> a cosmos_sdtm:RelationShip ;
    cosmos_sdtm:linkingPhrase <https://www.cdisc.org/cosmos/sdtm_v1.0/LinkingPhraseEnum#is%20the%20code%20for%20the%20value%20in> ;
    cosmos_sdtm:object "DDTEST" ;
    cosmos_sdtm:predicateTerm <https://www.cdisc.org/cosmos/sdtm_v1.0/PredicateTermEnum#IS_DECODED_BY> ;
    cosmos_sdtm:subject "DDTESTCD" .

<https://w3id.org/cdisc/cosmos/dss/DD/SDTHIND/DDDTC/relationship> a cosmos_sdtm:RelationShip ;
    cosmos_sdtm:linkingPhrase <https://www.cdisc.org/cosmos/sdtm_v1.0/LinkingPhraseEnum#is%20the%20date%20of%20occurrence%20for> ;
    cosmos_sdtm:object "DDTESTCD" ;
    cosmos_sdtm:predicateTerm <https://www.cdisc.org/cosmos/sdtm_v1.0/PredicateTermEnum#IS_TIMING_FOR> ;
    cosmos_sdtm:subject "DDDTC" .

<https://w3id.org/cdisc/cosmos/dss/DD/SDTHIND/DDORRES/relationship> a cosmos_sdtm:RelationShip ;
    cosmos_sdtm:linkingPhrase <https://www.cdisc.org/cosmos/sdtm_v1.0/LinkingPhraseEnum#is%20the%20result%20of%20the%20test%20in> ;
    cosmos_sdtm:object "DDTESTCD" ;
    cosmos_sdtm:predicateTerm <https://www.cdisc.org/cosmos/sdtm_v1.0/PredicateTermEnum#IS_RESULT_OF> ;
    cosmos_sdtm:subject "DDORRES" .

<https://w3id.org/cdisc/cosmos/dss/DD/SDTHIND/DDSTRESC/relationship> a cosmos_sdtm:RelationShip ;
    cosmos_sdtm:linkingPhrase <https://www.cdisc.org/cosmos/sdtm_v1.0/LinkingPhraseEnum#is%20the%20result%20of%20the%20test%20in> ;
    cosmos_sdtm:object "DDTESTCD" ;
    cosmos_sdtm:predicateTerm <https://www.cdisc.org/cosmos/sdtm_v1.0/PredicateTermEnum#IS_RESULT_OF> ;
    cosmos_sdtm:subject "DDSTRESC" .

<https://w3id.org/cdisc/cosmos/dss/DD/SDTHIND/DDTEST/assignedTerm> a cosmos_sdtm:AssignedTerm ;
    cosmos_sdtm:conceptId NCIT:C174284 ;
    cosmos_sdtm:value "Sudden Death Indicator" .

<https://w3id.org/cdisc/cosmos/dss/DD/SDTHIND/DDTEST/relationship> a cosmos_sdtm:RelationShip ;
    cosmos_sdtm:linkingPhrase <https://www.cdisc.org/cosmos/sdtm_v1.0/LinkingPhraseEnum#decodes%20the%20value%20in> ;
    cosmos_sdtm:object "DDTESTCD" ;
    cosmos_sdtm:predicateTerm <https://www.cdisc.org/cosmos/sdtm_v1.0/PredicateTermEnum#DECODES> ;
    cosmos_sdtm:subject "DDTEST" .

<https://w3id.org/cdisc/cosmos/dss/DD/SDTHIND/DDTESTCD/assignedTerm> a cosmos_sdtm:AssignedTerm ;
    cosmos_sdtm:conceptId NCIT:C174284 ;
    cosmos_sdtm:value "SDTHIND" .

<https://w3id.org/cdisc/cosmos/dss/DD/SDTHIND/DDTESTCD/relationship> a cosmos_sdtm:RelationShip ;
    cosmos_sdtm:linkingPhrase <https://www.cdisc.org/cosmos/sdtm_v1.0/LinkingPhraseEnum#is%20the%20code%20for%20the%20value%20in> ;
    cosmos_sdtm:object "DDTEST" ;
    cosmos_sdtm:predicateTerm <https://www.cdisc.org/cosmos/sdtm_v1.0/PredicateTermEnum#IS_DECODED_BY> ;
    cosmos_sdtm:subject "DDTESTCD" .

<https://w3id.org/cdisc/cosmos/dss/DD/SECDTH/DDDTC/relationship> a cosmos_sdtm:RelationShip ;
    cosmos_sdtm:linkingPhrase <https://www.cdisc.org/cosmos/sdtm_v1.0/LinkingPhraseEnum#is%20the%20date%20of%20occurrence%20for> ;
    cosmos_sdtm:object "DDTESTCD" ;
    cosmos_sdtm:predicateTerm <https://www.cdisc.org/cosmos/sdtm_v1.0/PredicateTermEnum#IS_TIMING_FOR> ;
    cosmos_sdtm:subject "DDDTC" .

<https://w3id.org/cdisc/cosmos/dss/DD/SECDTH/DDORRES/relationship> a cosmos_sdtm:RelationShip ;
    cosmos_sdtm:linkingPhrase <https://www.cdisc.org/cosmos/sdtm_v1.0/LinkingPhraseEnum#is%20the%20result%20of%20the%20test%20in> ;
    cosmos_sdtm:object "DDTESTCD" ;
    cosmos_sdtm:predicateTerm <https://www.cdisc.org/cosmos/sdtm_v1.0/PredicateTermEnum#IS_RESULT_OF> ;
    cosmos_sdtm:subject "DDORRES" .

<https://w3id.org/cdisc/cosmos/dss/DD/SECDTH/DDSTRESC/relationship> a cosmos_sdtm:RelationShip ;
    cosmos_sdtm:linkingPhrase <https://www.cdisc.org/cosmos/sdtm_v1.0/LinkingPhraseEnum#is%20the%20result%20of%20the%20test%20in> ;
    cosmos_sdtm:object "DDTESTCD" ;
    cosmos_sdtm:predicateTerm <https://www.cdisc.org/cosmos/sdtm_v1.0/PredicateTermEnum#IS_RESULT_OF> ;
    cosmos_sdtm:subject "DDSTRESC" .

<https://w3id.org/cdisc/cosmos/dss/DD/SECDTH/DDTEST/assignedTerm> a cosmos_sdtm:AssignedTerm ;
    cosmos_sdtm:conceptId NCIT:C116142 ;
    cosmos_sdtm:value "Secondary Cause of Death" .

<https://w3id.org/cdisc/cosmos/dss/DD/SECDTH/DDTEST/relationship> a cosmos_sdtm:RelationShip ;
    cosmos_sdtm:linkingPhrase <https://www.cdisc.org/cosmos/sdtm_v1.0/LinkingPhraseEnum#decodes%20the%20value%20in> ;
    cosmos_sdtm:object "DDTESTCD" ;
    cosmos_sdtm:predicateTerm <https://www.cdisc.org/cosmos/sdtm_v1.0/PredicateTermEnum#DECODES> ;
    cosmos_sdtm:subject "DDTEST" .

<https://w3id.org/cdisc/cosmos/dss/DD/SECDTH/DDTESTCD/assignedTerm> a cosmos_sdtm:AssignedTerm ;
    cosmos_sdtm:conceptId NCIT:C116142 ;
    cosmos_sdtm:value "SECDTH" .

<https://w3id.org/cdisc/cosmos/dss/DD/SECDTH/DDTESTCD/relationship> a cosmos_sdtm:RelationShip ;
    cosmos_sdtm:linkingPhrase <https://www.cdisc.org/cosmos/sdtm_v1.0/LinkingPhraseEnum#is%20the%20code%20for%20the%20value%20in> ;
    cosmos_sdtm:object "DDTEST" ;
    cosmos_sdtm:predicateTerm <https://www.cdisc.org/cosmos/sdtm_v1.0/PredicateTermEnum#IS_DECODED_BY> ;
    cosmos_sdtm:subject "DDTESTCD" .

NCIT:C127262 a cosmos_sdtm:CodeList ;
    dcterms:identifier "C127262" ;
    skos:exactMatch <http://ncicb.nci.nih.gov/xml/owl/EVS/Thesaurus.owl#C127262> ;
    cosmos_sdtm:submissionValue "SETTING" .

NCIT:C66781 a cosmos_sdtm:CodeList ;
    dcterms:identifier "C66781" ;
    skos:exactMatch <http://ncicb.nci.nih.gov/xml/owl/EVS/Thesaurus.owl#C66781> ;
    cosmos_sdtm:submissionValue "AGEU" .

<https://w3id.org/cdisc/cosmos/dss/DD/AGEDTH/DDDTC> a cosmos_sdtm:SDTMVariable ;
    cosmos_sdtm:dataElementConceptId NCIT:C82515 ;
    cosmos_sdtm:isNonStandard false ;
    cosmos_sdtm:mandatoryValue false ;
    cosmos_sdtm:mandatoryVariable true ;
    cosmos_sdtm:name "DDDTC" ;
    cosmos_sdtm:relationship <https://w3id.org/cdisc/cosmos/dss/DD/AGEDTH/DDDTC/relationship> ;
    cosmos_sdtm:role <https://www.cdisc.org/cosmos/sdtm_v1.0/RoleEnum#Timing> .

<https://w3id.org/cdisc/cosmos/dss/DD/AGEDTH/DDORRES> a cosmos_sdtm:SDTMVariable ;
    cosmos_sdtm:dataElementConceptId NCIT:C70856 ;
    cosmos_sdtm:dataType <https://www.cdisc.org/cosmos/sdtm_v1.0/SDTMVariableDataTypeEnum#integer> ;
    cosmos_sdtm:isNonStandard false ;
    cosmos_sdtm:length 8 ;
    cosmos_sdtm:mandatoryValue false ;
    cosmos_sdtm:mandatoryVariable true ;
    cosmos_sdtm:name "DDORRES" ;
    cosmos_sdtm:originSource NCIT:C25936 ;
    cosmos_sdtm:originType NCIT:C170548 ;
    cosmos_sdtm:relationship <https://w3id.org/cdisc/cosmos/dss/DD/AGEDTH/DDORRES/relationship> ;
    cosmos_sdtm:role <https://www.cdisc.org/cosmos/sdtm_v1.0/RoleEnum#Qualifier> ;
    cosmos_sdtm:vlmTarget true .

<https://w3id.org/cdisc/cosmos/dss/DD/AGEDTH/DDORRESU> a cosmos_sdtm:SDTMVariable ;
    cosmos_sdtm:codelist NCIT:C66781 ;
    cosmos_sdtm:dataElementConceptId NCIT:C50400 ;
    cosmos_sdtm:dataType <https://www.cdisc.org/cosmos/sdtm_v1.0/SDTMVariableDataTypeEnum#text> ;
    cosmos_sdtm:isNonStandard false ;
    cosmos_sdtm:length 20 ;
    cosmos_sdtm:mandatoryValue false ;
    cosmos_sdtm:mandatoryVariable false ;
    cosmos_sdtm:name "DDORRESU" ;
    cosmos_sdtm:originSource NCIT:C25936 ;
    cosmos_sdtm:originType NCIT:C170548 ;
    cosmos_sdtm:relationship <https://w3id.org/cdisc/cosmos/dss/DD/AGEDTH/DDORRESU/relationship> ;
    cosmos_sdtm:role <https://www.cdisc.org/cosmos/sdtm_v1.0/RoleEnum#Qualifier> ;
    cosmos_sdtm:valueList "DAYS",
        "HOURS",
        "MONTHS",
        "WEEKS",
        "YEARS" ;
    cosmos_sdtm:vlmTarget true .

<https://w3id.org/cdisc/cosmos/dss/DD/AGEDTH/DDSTRESC> a cosmos_sdtm:SDTMVariable ;
    cosmos_sdtm:dataElementConceptId NCIT:C70856 ;
    cosmos_sdtm:dataType <https://www.cdisc.org/cosmos/sdtm_v1.0/SDTMVariableDataTypeEnum#integer> ;
    cosmos_sdtm:isNonStandard false ;
    cosmos_sdtm:length 8 ;
    cosmos_sdtm:mandatoryValue false ;
    cosmos_sdtm:mandatoryVariable true ;
    cosmos_sdtm:name "DDSTRESC" ;
    cosmos_sdtm:originSource NCIT:C70793 ;
    cosmos_sdtm:originType NCIT:C170549 ;
    cosmos_sdtm:relationship <https://w3id.org/cdisc/cosmos/dss/DD/AGEDTH/DDSTRESC/relationship> ;
    cosmos_sdtm:role <https://www.cdisc.org/cosmos/sdtm_v1.0/RoleEnum#Qualifier> ;
    cosmos_sdtm:vlmTarget true .

<https://w3id.org/cdisc/cosmos/dss/DD/AGEDTH/DDSTRESN> a cosmos_sdtm:SDTMVariable ;
    cosmos_sdtm:dataElementConceptId NCIT:C70856 ;
    cosmos_sdtm:dataType <https://www.cdisc.org/cosmos/sdtm_v1.0/SDTMVariableDataTypeEnum#integer> ;
    cosmos_sdtm:isNonStandard false ;
    cosmos_sdtm:length 8 ;
    cosmos_sdtm:mandatoryValue false ;
    cosmos_sdtm:mandatoryVariable false ;
    cosmos_sdtm:name "DDSTRESN" ;
    cosmos_sdtm:originSource NCIT:C70793 ;
    cosmos_sdtm:originType NCIT:C170549 ;
    cosmos_sdtm:relationship <https://w3id.org/cdisc/cosmos/dss/DD/AGEDTH/DDSTRESN/relationship> ;
    cosmos_sdtm:role <https://www.cdisc.org/cosmos/sdtm_v1.0/RoleEnum#Qualifier> ;
    cosmos_sdtm:vlmTarget true .

<https://w3id.org/cdisc/cosmos/dss/DD/AGEDTH/DDSTRESU> a cosmos_sdtm:SDTMVariable ;
    cosmos_sdtm:codelist NCIT:C66781 ;
    cosmos_sdtm:dataElementConceptId NCIT:C50400 ;
    cosmos_sdtm:dataType <https://www.cdisc.org/cosmos/sdtm_v1.0/SDTMVariableDataTypeEnum#text> ;
    cosmos_sdtm:isNonStandard false ;
    cosmos_sdtm:length 20 ;
    cosmos_sdtm:mandatoryValue false ;
    cosmos_sdtm:mandatoryVariable false ;
    cosmos_sdtm:name "DDSTRESU" ;
    cosmos_sdtm:originSource NCIT:C70793 ;
    cosmos_sdtm:originType NCIT:C170547 ;
    cosmos_sdtm:relationship <https://w3id.org/cdisc/cosmos/dss/DD/AGEDTH/DDSTRESU/relationship> ;
    cosmos_sdtm:role <https://www.cdisc.org/cosmos/sdtm_v1.0/RoleEnum#Qualifier> ;
    cosmos_sdtm:valueList "DAYS",
        "HOURS",
        "MONTHS",
        "WEEKS",
        "YEARS" ;
    cosmos_sdtm:vlmTarget true .

<https://w3id.org/cdisc/cosmos/dss/DD/AGEDTH/DDTEST> a cosmos_sdtm:SDTMVariable ;
    cosmos_sdtm:assignedTerm <https://w3id.org/cdisc/cosmos/dss/DD/AGEDTH/DDTEST/assignedTerm> ;
    cosmos_sdtm:codelist NCIT:C116107 ;
    cosmos_sdtm:isNonStandard false ;
    cosmos_sdtm:mandatoryValue true ;
    cosmos_sdtm:mandatoryVariable true ;
    cosmos_sdtm:name "DDTEST" ;
    cosmos_sdtm:originSource NCIT:C70793 ;
    cosmos_sdtm:originType NCIT:C170547 ;
    cosmos_sdtm:relationship <https://w3id.org/cdisc/cosmos/dss/DD/AGEDTH/DDTEST/relationship> ;
    cosmos_sdtm:role <https://www.cdisc.org/cosmos/sdtm_v1.0/RoleEnum#Qualifier> .

<https://w3id.org/cdisc/cosmos/dss/DD/AGEDTH/DDTESTCD> a cosmos_sdtm:SDTMVariable ;
    cosmos_sdtm:assignedTerm <https://w3id.org/cdisc/cosmos/dss/DD/AGEDTH/DDTESTCD/assignedTerm> ;
    cosmos_sdtm:codelist NCIT:C116108 ;
    cosmos_sdtm:comparator <https://www.cdisc.org/cosmos/sdtm_v1.0/ComparatorEnum#EQ> ;
    cosmos_sdtm:isNonStandard false ;
    cosmos_sdtm:mandatoryValue true ;
    cosmos_sdtm:mandatoryVariable true ;
    cosmos_sdtm:name "DDTESTCD" ;
    cosmos_sdtm:originSource NCIT:C70793 ;
    cosmos_sdtm:originType NCIT:C170547 ;
    cosmos_sdtm:relationship <https://w3id.org/cdisc/cosmos/dss/DD/AGEDTH/DDTESTCD/relationship> ;
    cosmos_sdtm:role <https://www.cdisc.org/cosmos/sdtm_v1.0/RoleEnum#Topic> .

<https://w3id.org/cdisc/cosmos/dss/DD/AUTOPIND/DDDTC> a cosmos_sdtm:SDTMVariable ;
    cosmos_sdtm:dataElementConceptId NCIT:C82515 ;
    cosmos_sdtm:isNonStandard false ;
    cosmos_sdtm:mandatoryValue false ;
    cosmos_sdtm:mandatoryVariable true ;
    cosmos_sdtm:name "DDDTC" ;
    cosmos_sdtm:relationship <https://w3id.org/cdisc/cosmos/dss/DD/AUTOPIND/DDDTC/relationship> ;
    cosmos_sdtm:role <https://www.cdisc.org/cosmos/sdtm_v1.0/RoleEnum#Timing> .

<https://w3id.org/cdisc/cosmos/dss/DD/AUTOPIND/DDORRES> a cosmos_sdtm:SDTMVariable ;
    cosmos_sdtm:codelist NCIT:C66742 ;
    cosmos_sdtm:dataElementConceptId NCIT:C70856 ;
    cosmos_sdtm:dataType <https://www.cdisc.org/cosmos/sdtm_v1.0/SDTMVariableDataTypeEnum#text> ;
    cosmos_sdtm:isNonStandard false ;
    cosmos_sdtm:length 1 ;
    cosmos_sdtm:mandatoryValue false ;
    cosmos_sdtm:mandatoryVariable true ;
    cosmos_sdtm:name "DDORRES" ;
    cosmos_sdtm:originSource NCIT:C25936 ;
    cosmos_sdtm:originType NCIT:C170548 ;
    cosmos_sdtm:relationship <https://w3id.org/cdisc/cosmos/dss/DD/AUTOPIND/DDORRES/relationship> ;
    cosmos_sdtm:role <https://www.cdisc.org/cosmos/sdtm_v1.0/RoleEnum#Qualifier> ;
    cosmos_sdtm:valueList "N",
        "U",
        "Y" ;
    cosmos_sdtm:vlmTarget true .

<https://w3id.org/cdisc/cosmos/dss/DD/AUTOPIND/DDSTRESC> a cosmos_sdtm:SDTMVariable ;
    cosmos_sdtm:codelist NCIT:C66742 ;
    cosmos_sdtm:dataElementConceptId NCIT:C70856 ;
    cosmos_sdtm:dataType <https://www.cdisc.org/cosmos/sdtm_v1.0/SDTMVariableDataTypeEnum#text> ;
    cosmos_sdtm:isNonStandard false ;
    cosmos_sdtm:length 1 ;
    cosmos_sdtm:mandatoryValue false ;
    cosmos_sdtm:mandatoryVariable true ;
    cosmos_sdtm:name "DDSTRESC" ;
    cosmos_sdtm:originSource NCIT:C70793 ;
    cosmos_sdtm:originType NCIT:C170549 ;
    cosmos_sdtm:relationship <https://w3id.org/cdisc/cosmos/dss/DD/AUTOPIND/DDSTRESC/relationship> ;
    cosmos_sdtm:role <https://www.cdisc.org/cosmos/sdtm_v1.0/RoleEnum#Qualifier> ;
    cosmos_sdtm:valueList "N",
        "U",
        "Y" ;
    cosmos_sdtm:vlmTarget true .

<https://w3id.org/cdisc/cosmos/dss/DD/AUTOPIND/DDTEST> a cosmos_sdtm:SDTMVariable ;
    cosmos_sdtm:assignedTerm <https://w3id.org/cdisc/cosmos/dss/DD/AUTOPIND/DDTEST/assignedTerm> ;
    cosmos_sdtm:codelist NCIT:C116107 ;
    cosmos_sdtm:isNonStandard false ;
    cosmos_sdtm:mandatoryValue true ;
    cosmos_sdtm:mandatoryVariable true ;
    cosmos_sdtm:name "DDTEST" ;
    cosmos_sdtm:originSource NCIT:C70793 ;
    cosmos_sdtm:originType NCIT:C170547 ;
    cosmos_sdtm:relationship <https://w3id.org/cdisc/cosmos/dss/DD/AUTOPIND/DDTEST/relationship> ;
    cosmos_sdtm:role <https://www.cdisc.org/cosmos/sdtm_v1.0/RoleEnum#Qualifier> .

<https://w3id.org/cdisc/cosmos/dss/DD/AUTOPIND/DDTESTCD> a cosmos_sdtm:SDTMVariable ;
    cosmos_sdtm:assignedTerm <https://w3id.org/cdisc/cosmos/dss/DD/AUTOPIND/DDTESTCD/assignedTerm> ;
    cosmos_sdtm:codelist NCIT:C116108 ;
    cosmos_sdtm:comparator <https://www.cdisc.org/cosmos/sdtm_v1.0/ComparatorEnum#EQ> ;
    cosmos_sdtm:isNonStandard false ;
    cosmos_sdtm:mandatoryValue true ;
    cosmos_sdtm:mandatoryVariable true ;
    cosmos_sdtm:name "DDTESTCD" ;
    cosmos_sdtm:originSource NCIT:C70793 ;
    cosmos_sdtm:originType NCIT:C170547 ;
    cosmos_sdtm:relationship <https://w3id.org/cdisc/cosmos/dss/DD/AUTOPIND/DDTESTCD/relationship> ;
    cosmos_sdtm:role <https://www.cdisc.org/cosmos/sdtm_v1.0/RoleEnum#Topic> .

<https://w3id.org/cdisc/cosmos/dss/DD/CUSCDIND/DDDTC> a cosmos_sdtm:SDTMVariable ;
    cosmos_sdtm:dataElementConceptId NCIT:C82515 ;
    cosmos_sdtm:isNonStandard false ;
    cosmos_sdtm:mandatoryValue false ;
    cosmos_sdtm:mandatoryVariable true ;
    cosmos_sdtm:name "DDDTC" ;
    cosmos_sdtm:relationship <https://w3id.org/cdisc/cosmos/dss/DD/CUSCDIND/DDDTC/relationship> ;
    cosmos_sdtm:role <https://www.cdisc.org/cosmos/sdtm_v1.0/RoleEnum#Timing> .

<https://w3id.org/cdisc/cosmos/dss/DD/CUSCDIND/DDORRES> a cosmos_sdtm:SDTMVariable ;
    cosmos_sdtm:codelist NCIT:C66742 ;
    cosmos_sdtm:dataElementConceptId NCIT:C70856 ;
    cosmos_sdtm:dataType <https://www.cdisc.org/cosmos/sdtm_v1.0/SDTMVariableDataTypeEnum#text> ;
    cosmos_sdtm:isNonStandard false ;
    cosmos_sdtm:length 1 ;
    cosmos_sdtm:mandatoryValue false ;
    cosmos_sdtm:mandatoryVariable true ;
    cosmos_sdtm:name "DDORRES" ;
    cosmos_sdtm:originSource NCIT:C25936 ;
    cosmos_sdtm:originType NCIT:C170548 ;
    cosmos_sdtm:relationship <https://w3id.org/cdisc/cosmos/dss/DD/CUSCDIND/DDORRES/relationship> ;
    cosmos_sdtm:role <https://www.cdisc.org/cosmos/sdtm_v1.0/RoleEnum#Qualifier> ;
    cosmos_sdtm:valueList "N",
        "U",
        "Y" ;
    cosmos_sdtm:vlmTarget true .

<https://w3id.org/cdisc/cosmos/dss/DD/CUSCDIND/DDSTRESC> a cosmos_sdtm:SDTMVariable ;
    cosmos_sdtm:codelist NCIT:C66742 ;
    cosmos_sdtm:dataElementConceptId NCIT:C70856 ;
    cosmos_sdtm:dataType <https://www.cdisc.org/cosmos/sdtm_v1.0/SDTMVariableDataTypeEnum#text> ;
    cosmos_sdtm:isNonStandard false ;
    cosmos_sdtm:length 1 ;
    cosmos_sdtm:mandatoryValue false ;
    cosmos_sdtm:mandatoryVariable true ;
    cosmos_sdtm:name "DDSTRESC" ;
    cosmos_sdtm:originSource NCIT:C70793 ;
    cosmos_sdtm:originType NCIT:C170549 ;
    cosmos_sdtm:relationship <https://w3id.org/cdisc/cosmos/dss/DD/CUSCDIND/DDSTRESC/relationship> ;
    cosmos_sdtm:role <https://www.cdisc.org/cosmos/sdtm_v1.0/RoleEnum#Qualifier> ;
    cosmos_sdtm:valueList "N",
        "U",
        "Y" ;
    cosmos_sdtm:vlmTarget true .

<https://w3id.org/cdisc/cosmos/dss/DD/CUSCDIND/DDTEST> a cosmos_sdtm:SDTMVariable ;
    cosmos_sdtm:assignedTerm <https://w3id.org/cdisc/cosmos/dss/DD/CUSCDIND/DDTEST/assignedTerm> ;
    cosmos_sdtm:codelist NCIT:C116107 ;
    cosmos_sdtm:isNonStandard false ;
    cosmos_sdtm:mandatoryValue true ;
    cosmos_sdtm:mandatoryVariable true ;
    cosmos_sdtm:name "DDTEST" ;
    cosmos_sdtm:originSource NCIT:C70793 ;
    cosmos_sdtm:originType NCIT:C170547 ;
    cosmos_sdtm:relationship <https://w3id.org/cdisc/cosmos/dss/DD/CUSCDIND/DDTEST/relationship> ;
    cosmos_sdtm:role <https://www.cdisc.org/cosmos/sdtm_v1.0/RoleEnum#Qualifier> .

<https://w3id.org/cdisc/cosmos/dss/DD/CUSCDIND/DDTESTCD> a cosmos_sdtm:SDTMVariable ;
    cosmos_sdtm:assignedTerm <https://w3id.org/cdisc/cosmos/dss/DD/CUSCDIND/DDTESTCD/assignedTerm> ;
    cosmos_sdtm:codelist NCIT:C116108 ;
    cosmos_sdtm:comparator <https://www.cdisc.org/cosmos/sdtm_v1.0/ComparatorEnum#EQ> ;
    cosmos_sdtm:isNonStandard false ;
    cosmos_sdtm:mandatoryValue true ;
    cosmos_sdtm:mandatoryVariable true ;
    cosmos_sdtm:name "DDTESTCD" ;
    cosmos_sdtm:originSource NCIT:C70793 ;
    cosmos_sdtm:originType NCIT:C170547 ;
    cosmos_sdtm:relationship <https://w3id.org/cdisc/cosmos/dss/DD/CUSCDIND/DDTESTCD/relationship> ;
    cosmos_sdtm:role <https://www.cdisc.org/cosmos/sdtm_v1.0/RoleEnum#Topic> .

<https://w3id.org/cdisc/cosmos/dss/DD/DTHCOIND/DDDTC> a cosmos_sdtm:SDTMVariable ;
    cosmos_sdtm:dataElementConceptId NCIT:C82515 ;
    cosmos_sdtm:isNonStandard false ;
    cosmos_sdtm:mandatoryValue false ;
    cosmos_sdtm:mandatoryVariable true ;
    cosmos_sdtm:name "DDDTC" ;
    cosmos_sdtm:relationship <https://w3id.org/cdisc/cosmos/dss/DD/DTHCOIND/DDDTC/relationship> ;
    cosmos_sdtm:role <https://www.cdisc.org/cosmos/sdtm_v1.0/RoleEnum#Timing> .

<https://w3id.org/cdisc/cosmos/dss/DD/DTHCOIND/DDORRES> a cosmos_sdtm:SDTMVariable ;
    cosmos_sdtm:codelist NCIT:C66742 ;
    cosmos_sdtm:dataElementConceptId NCIT:C70856 ;
    cosmos_sdtm:dataType <https://www.cdisc.org/cosmos/sdtm_v1.0/SDTMVariableDataTypeEnum#text> ;
    cosmos_sdtm:isNonStandard false ;
    cosmos_sdtm:length 1 ;
    cosmos_sdtm:mandatoryValue false ;
    cosmos_sdtm:mandatoryVariable true ;
    cosmos_sdtm:name "DDORRES" ;
    cosmos_sdtm:originSource NCIT:C25936 ;
    cosmos_sdtm:originType NCIT:C170548 ;
    cosmos_sdtm:relationship <https://w3id.org/cdisc/cosmos/dss/DD/DTHCOIND/DDORRES/relationship> ;
    cosmos_sdtm:role <https://www.cdisc.org/cosmos/sdtm_v1.0/RoleEnum#Qualifier> ;
    cosmos_sdtm:valueList "N",
        "U",
        "Y" ;
    cosmos_sdtm:vlmTarget true .

<https://w3id.org/cdisc/cosmos/dss/DD/DTHCOIND/DDSTRESC> a cosmos_sdtm:SDTMVariable ;
    cosmos_sdtm:codelist NCIT:C66742 ;
    cosmos_sdtm:dataElementConceptId NCIT:C70856 ;
    cosmos_sdtm:dataType <https://www.cdisc.org/cosmos/sdtm_v1.0/SDTMVariableDataTypeEnum#text> ;
    cosmos_sdtm:isNonStandard false ;
    cosmos_sdtm:length 1 ;
    cosmos_sdtm:mandatoryValue false ;
    cosmos_sdtm:mandatoryVariable true ;
    cosmos_sdtm:name "DDSTRESC" ;
    cosmos_sdtm:originSource NCIT:C70793 ;
    cosmos_sdtm:originType NCIT:C170549 ;
    cosmos_sdtm:relationship <https://w3id.org/cdisc/cosmos/dss/DD/DTHCOIND/DDSTRESC/relationship> ;
    cosmos_sdtm:role <https://www.cdisc.org/cosmos/sdtm_v1.0/RoleEnum#Qualifier> ;
    cosmos_sdtm:valueList "N",
        "U",
        "Y" ;
    cosmos_sdtm:vlmTarget true .

<https://w3id.org/cdisc/cosmos/dss/DD/DTHCOIND/DDTEST> a cosmos_sdtm:SDTMVariable ;
    cosmos_sdtm:assignedTerm <https://w3id.org/cdisc/cosmos/dss/DD/DTHCOIND/DDTEST/assignedTerm> ;
    cosmos_sdtm:codelist NCIT:C116107 ;
    cosmos_sdtm:isNonStandard false ;
    cosmos_sdtm:mandatoryValue true ;
    cosmos_sdtm:mandatoryVariable true ;
    cosmos_sdtm:name "DDTEST" ;
    cosmos_sdtm:originSource NCIT:C70793 ;
    cosmos_sdtm:originType NCIT:C170547 ;
    cosmos_sdtm:relationship <https://w3id.org/cdisc/cosmos/dss/DD/DTHCOIND/DDTEST/relationship> ;
    cosmos_sdtm:role <https://www.cdisc.org/cosmos/sdtm_v1.0/RoleEnum#Qualifier> .

<https://w3id.org/cdisc/cosmos/dss/DD/DTHCOIND/DDTESTCD> a cosmos_sdtm:SDTMVariable ;
    cosmos_sdtm:assignedTerm <https://w3id.org/cdisc/cosmos/dss/DD/DTHCOIND/DDTESTCD/assignedTerm> ;
    cosmos_sdtm:codelist NCIT:C116108 ;
    cosmos_sdtm:comparator <https://www.cdisc.org/cosmos/sdtm_v1.0/ComparatorEnum#EQ> ;
    cosmos_sdtm:isNonStandard false ;
    cosmos_sdtm:mandatoryValue true ;
    cosmos_sdtm:mandatoryVariable true ;
    cosmos_sdtm:name "DDTESTCD" ;
    cosmos_sdtm:originSource NCIT:C70793 ;
    cosmos_sdtm:originType NCIT:C170547 ;
    cosmos_sdtm:relationship <https://w3id.org/cdisc/cosmos/dss/DD/DTHCOIND/DDTESTCD/relationship> ;
    cosmos_sdtm:role <https://www.cdisc.org/cosmos/sdtm_v1.0/RoleEnum#Topic> .

<https://w3id.org/cdisc/cosmos/dss/DD/DTHEXIND/DDDTC> a cosmos_sdtm:SDTMVariable ;
    cosmos_sdtm:dataElementConceptId NCIT:C82515 ;
    cosmos_sdtm:isNonStandard false ;
    cosmos_sdtm:mandatoryValue false ;
    cosmos_sdtm:mandatoryVariable true ;
    cosmos_sdtm:name "DDDTC" ;
    cosmos_sdtm:relationship <https://w3id.org/cdisc/cosmos/dss/DD/DTHEXIND/DDDTC/relationship> ;
    cosmos_sdtm:role <https://www.cdisc.org/cosmos/sdtm_v1.0/RoleEnum#Timing> .

<https://w3id.org/cdisc/cosmos/dss/DD/DTHEXIND/DDORRES> a cosmos_sdtm:SDTMVariable ;
    cosmos_sdtm:codelist NCIT:C66742 ;
    cosmos_sdtm:dataElementConceptId NCIT:C70856 ;
    cosmos_sdtm:dataType <https://www.cdisc.org/cosmos/sdtm_v1.0/SDTMVariableDataTypeEnum#text> ;
    cosmos_sdtm:isNonStandard false ;
    cosmos_sdtm:length 1 ;
    cosmos_sdtm:mandatoryValue false ;
    cosmos_sdtm:mandatoryVariable true ;
    cosmos_sdtm:name "DDORRES" ;
    cosmos_sdtm:originSource NCIT:C25936 ;
    cosmos_sdtm:originType NCIT:C170548 ;
    cosmos_sdtm:relationship <https://w3id.org/cdisc/cosmos/dss/DD/DTHEXIND/DDORRES/relationship> ;
    cosmos_sdtm:role <https://www.cdisc.org/cosmos/sdtm_v1.0/RoleEnum#Qualifier> ;
    cosmos_sdtm:valueList "N",
        "U",
        "Y" ;
    cosmos_sdtm:vlmTarget true .

<https://w3id.org/cdisc/cosmos/dss/DD/DTHEXIND/DDSTRESC> a cosmos_sdtm:SDTMVariable ;
    cosmos_sdtm:codelist NCIT:C66742 ;
    cosmos_sdtm:dataElementConceptId NCIT:C70856 ;
    cosmos_sdtm:dataType <https://www.cdisc.org/cosmos/sdtm_v1.0/SDTMVariableDataTypeEnum#text> ;
    cosmos_sdtm:isNonStandard false ;
    cosmos_sdtm:length 1 ;
    cosmos_sdtm:mandatoryValue false ;
    cosmos_sdtm:mandatoryVariable true ;
    cosmos_sdtm:name "DDSTRESC" ;
    cosmos_sdtm:originSource NCIT:C70793 ;
    cosmos_sdtm:originType NCIT:C170549 ;
    cosmos_sdtm:relationship <https://w3id.org/cdisc/cosmos/dss/DD/DTHEXIND/DDSTRESC/relationship> ;
    cosmos_sdtm:role <https://www.cdisc.org/cosmos/sdtm_v1.0/RoleEnum#Qualifier> ;
    cosmos_sdtm:valueList "N",
        "U",
        "Y" ;
    cosmos_sdtm:vlmTarget true .

<https://w3id.org/cdisc/cosmos/dss/DD/DTHEXIND/DDTEST> a cosmos_sdtm:SDTMVariable ;
    cosmos_sdtm:assignedTerm <https://w3id.org/cdisc/cosmos/dss/DD/DTHEXIND/DDTEST/assignedTerm> ;
    cosmos_sdtm:codelist NCIT:C116107 ;
    cosmos_sdtm:isNonStandard false ;
    cosmos_sdtm:mandatoryValue true ;
    cosmos_sdtm:mandatoryVariable true ;
    cosmos_sdtm:name "DDTEST" ;
    cosmos_sdtm:originSource NCIT:C70793 ;
    cosmos_sdtm:originType NCIT:C170547 ;
    cosmos_sdtm:relationship <https://w3id.org/cdisc/cosmos/dss/DD/DTHEXIND/DDTEST/relationship> ;
    cosmos_sdtm:role <https://www.cdisc.org/cosmos/sdtm_v1.0/RoleEnum#Qualifier> .

<https://w3id.org/cdisc/cosmos/dss/DD/DTHEXIND/DDTESTCD> a cosmos_sdtm:SDTMVariable ;
    cosmos_sdtm:assignedTerm <https://w3id.org/cdisc/cosmos/dss/DD/DTHEXIND/DDTESTCD/assignedTerm> ;
    cosmos_sdtm:codelist NCIT:C116108 ;
    cosmos_sdtm:comparator <https://www.cdisc.org/cosmos/sdtm_v1.0/ComparatorEnum#EQ> ;
    cosmos_sdtm:isNonStandard false ;
    cosmos_sdtm:mandatoryValue true ;
    cosmos_sdtm:mandatoryVariable true ;
    cosmos_sdtm:name "DDTESTCD" ;
    cosmos_sdtm:originSource NCIT:C70793 ;
    cosmos_sdtm:originType NCIT:C170547 ;
    cosmos_sdtm:relationship <https://w3id.org/cdisc/cosmos/dss/DD/DTHEXIND/DDTESTCD/relationship> ;
    cosmos_sdtm:role <https://www.cdisc.org/cosmos/sdtm_v1.0/RoleEnum#Topic> .

<https://w3id.org/cdisc/cosmos/dss/DD/DTHWIND/DDDTC> a cosmos_sdtm:SDTMVariable ;
    cosmos_sdtm:dataElementConceptId NCIT:C82515 ;
    cosmos_sdtm:isNonStandard false ;
    cosmos_sdtm:mandatoryValue false ;
    cosmos_sdtm:mandatoryVariable true ;
    cosmos_sdtm:name "DDDTC" ;
    cosmos_sdtm:relationship <https://w3id.org/cdisc/cosmos/dss/DD/DTHWIND/DDDTC/relationship> ;
    cosmos_sdtm:role <https://www.cdisc.org/cosmos/sdtm_v1.0/RoleEnum#Timing> .

<https://w3id.org/cdisc/cosmos/dss/DD/DTHWIND/DDORRES> a cosmos_sdtm:SDTMVariable ;
    cosmos_sdtm:codelist NCIT:C66742 ;
    cosmos_sdtm:dataElementConceptId NCIT:C70856 ;
    cosmos_sdtm:dataType <https://www.cdisc.org/cosmos/sdtm_v1.0/SDTMVariableDataTypeEnum#text> ;
    cosmos_sdtm:isNonStandard false ;
    cosmos_sdtm:length 1 ;
    cosmos_sdtm:mandatoryValue false ;
    cosmos_sdtm:mandatoryVariable true ;
    cosmos_sdtm:name "DDORRES" ;
    cosmos_sdtm:originSource NCIT:C25936 ;
    cosmos_sdtm:originType NCIT:C170548 ;
    cosmos_sdtm:relationship <https://w3id.org/cdisc/cosmos/dss/DD/DTHWIND/DDORRES/relationship> ;
    cosmos_sdtm:role <https://www.cdisc.org/cosmos/sdtm_v1.0/RoleEnum#Qualifier> ;
    cosmos_sdtm:valueList "N",
        "U",
        "Y" ;
    cosmos_sdtm:vlmTarget true .

<https://w3id.org/cdisc/cosmos/dss/DD/DTHWIND/DDSTRESC> a cosmos_sdtm:SDTMVariable ;
    cosmos_sdtm:codelist NCIT:C66742 ;
    cosmos_sdtm:dataElementConceptId NCIT:C70856 ;
    cosmos_sdtm:dataType <https://www.cdisc.org/cosmos/sdtm_v1.0/SDTMVariableDataTypeEnum#text> ;
    cosmos_sdtm:isNonStandard false ;
    cosmos_sdtm:length 1 ;
    cosmos_sdtm:mandatoryValue false ;
    cosmos_sdtm:mandatoryVariable true ;
    cosmos_sdtm:name "DDSTRESC" ;
    cosmos_sdtm:originSource NCIT:C70793 ;
    cosmos_sdtm:originType NCIT:C170549 ;
    cosmos_sdtm:relationship <https://w3id.org/cdisc/cosmos/dss/DD/DTHWIND/DDSTRESC/relationship> ;
    cosmos_sdtm:role <https://www.cdisc.org/cosmos/sdtm_v1.0/RoleEnum#Qualifier> ;
    cosmos_sdtm:valueList "N",
        "U",
        "Y" ;
    cosmos_sdtm:vlmTarget true .

<https://w3id.org/cdisc/cosmos/dss/DD/DTHWIND/DDTEST> a cosmos_sdtm:SDTMVariable ;
    cosmos_sdtm:assignedTerm <https://w3id.org/cdisc/cosmos/dss/DD/DTHWIND/DDTEST/assignedTerm> ;
    cosmos_sdtm:codelist NCIT:C116107 ;
    cosmos_sdtm:isNonStandard false ;
    cosmos_sdtm:mandatoryValue true ;
    cosmos_sdtm:mandatoryVariable true ;
    cosmos_sdtm:name "DDTEST" ;
    cosmos_sdtm:originSource NCIT:C70793 ;
    cosmos_sdtm:originType NCIT:C170547 ;
    cosmos_sdtm:relationship <https://w3id.org/cdisc/cosmos/dss/DD/DTHWIND/DDTEST/relationship> ;
    cosmos_sdtm:role <https://www.cdisc.org/cosmos/sdtm_v1.0/RoleEnum#Qualifier> .

<https://w3id.org/cdisc/cosmos/dss/DD/DTHWIND/DDTESTCD> a cosmos_sdtm:SDTMVariable ;
    cosmos_sdtm:assignedTerm <https://w3id.org/cdisc/cosmos/dss/DD/DTHWIND/DDTESTCD/assignedTerm> ;
    cosmos_sdtm:codelist NCIT:C116108 ;
    cosmos_sdtm:comparator <https://www.cdisc.org/cosmos/sdtm_v1.0/ComparatorEnum#EQ> ;
    cosmos_sdtm:isNonStandard false ;
    cosmos_sdtm:mandatoryValue true ;
    cosmos_sdtm:mandatoryVariable true ;
    cosmos_sdtm:name "DDTESTCD" ;
    cosmos_sdtm:originSource NCIT:C70793 ;
    cosmos_sdtm:originType NCIT:C170547 ;
    cosmos_sdtm:relationship <https://w3id.org/cdisc/cosmos/dss/DD/DTHWIND/DDTESTCD/relationship> ;
    cosmos_sdtm:role <https://www.cdisc.org/cosmos/sdtm_v1.0/RoleEnum#Topic> .

<https://w3id.org/cdisc/cosmos/dss/DD/HMROIND/DDDTC> a cosmos_sdtm:SDTMVariable ;
    cosmos_sdtm:dataElementConceptId NCIT:C82515 ;
    cosmos_sdtm:isNonStandard false ;
    cosmos_sdtm:mandatoryValue false ;
    cosmos_sdtm:mandatoryVariable true ;
    cosmos_sdtm:name "DDDTC" ;
    cosmos_sdtm:relationship <https://w3id.org/cdisc/cosmos/dss/DD/HMROIND/DDDTC/relationship> ;
    cosmos_sdtm:role <https://www.cdisc.org/cosmos/sdtm_v1.0/RoleEnum#Timing> .

<https://w3id.org/cdisc/cosmos/dss/DD/HMROIND/DDORRES> a cosmos_sdtm:SDTMVariable ;
    cosmos_sdtm:codelist NCIT:C66742 ;
    cosmos_sdtm:dataElementConceptId NCIT:C70856 ;
    cosmos_sdtm:dataType <https://www.cdisc.org/cosmos/sdtm_v1.0/SDTMVariableDataTypeEnum#text> ;
    cosmos_sdtm:isNonStandard false ;
    cosmos_sdtm:length 2 ;
    cosmos_sdtm:mandatoryValue false ;
    cosmos_sdtm:mandatoryVariable true ;
    cosmos_sdtm:name "DDORRES" ;
    cosmos_sdtm:originSource NCIT:C25936 ;
    cosmos_sdtm:originType NCIT:C170548 ;
    cosmos_sdtm:relationship <https://w3id.org/cdisc/cosmos/dss/DD/HMROIND/DDORRES/relationship> ;
    cosmos_sdtm:role <https://www.cdisc.org/cosmos/sdtm_v1.0/RoleEnum#Qualifier> ;
    cosmos_sdtm:valueList "N",
        "NA",
        "U",
        "Y" ;
    cosmos_sdtm:vlmTarget true .

<https://w3id.org/cdisc/cosmos/dss/DD/HMROIND/DDSTRESC> a cosmos_sdtm:SDTMVariable ;
    cosmos_sdtm:codelist NCIT:C66742 ;
    cosmos_sdtm:dataElementConceptId NCIT:C70856 ;
    cosmos_sdtm:dataType <https://www.cdisc.org/cosmos/sdtm_v1.0/SDTMVariableDataTypeEnum#text> ;
    cosmos_sdtm:isNonStandard false ;
    cosmos_sdtm:length 2 ;
    cosmos_sdtm:mandatoryValue false ;
    cosmos_sdtm:mandatoryVariable true ;
    cosmos_sdtm:name "DDSTRESC" ;
    cosmos_sdtm:originSource NCIT:C70793 ;
    cosmos_sdtm:originType NCIT:C170549 ;
    cosmos_sdtm:relationship <https://w3id.org/cdisc/cosmos/dss/DD/HMROIND/DDSTRESC/relationship> ;
    cosmos_sdtm:role <https://www.cdisc.org/cosmos/sdtm_v1.0/RoleEnum#Qualifier> ;
    cosmos_sdtm:valueList "N",
        "NA",
        "U",
        "Y" ;
    cosmos_sdtm:vlmTarget true .

<https://w3id.org/cdisc/cosmos/dss/DD/HMROIND/DDTEST> a cosmos_sdtm:SDTMVariable ;
    cosmos_sdtm:assignedTerm <https://w3id.org/cdisc/cosmos/dss/DD/HMROIND/DDTEST/assignedTerm> ;
    cosmos_sdtm:codelist NCIT:C116107 ;
    cosmos_sdtm:isNonStandard false ;
    cosmos_sdtm:mandatoryValue true ;
    cosmos_sdtm:mandatoryVariable true ;
    cosmos_sdtm:name "DDTEST" ;
    cosmos_sdtm:originSource NCIT:C70793 ;
    cosmos_sdtm:originType NCIT:C170547 ;
    cosmos_sdtm:relationship <https://w3id.org/cdisc/cosmos/dss/DD/HMROIND/DDTEST/relationship> ;
    cosmos_sdtm:role <https://www.cdisc.org/cosmos/sdtm_v1.0/RoleEnum#Qualifier> .

<https://w3id.org/cdisc/cosmos/dss/DD/HMROIND/DDTESTCD> a cosmos_sdtm:SDTMVariable ;
    cosmos_sdtm:assignedTerm <https://w3id.org/cdisc/cosmos/dss/DD/HMROIND/DDTESTCD/assignedTerm> ;
    cosmos_sdtm:codelist NCIT:C116108 ;
    cosmos_sdtm:comparator <https://www.cdisc.org/cosmos/sdtm_v1.0/ComparatorEnum#EQ> ;
    cosmos_sdtm:isNonStandard false ;
    cosmos_sdtm:mandatoryValue true ;
    cosmos_sdtm:mandatoryVariable true ;
    cosmos_sdtm:name "DDTESTCD" ;
    cosmos_sdtm:originSource NCIT:C70793 ;
    cosmos_sdtm:originType NCIT:C170547 ;
    cosmos_sdtm:relationship <https://w3id.org/cdisc/cosmos/dss/DD/HMROIND/DDTESTCD/relationship> ;
    cosmos_sdtm:role <https://www.cdisc.org/cosmos/sdtm_v1.0/RoleEnum#Topic> .

<https://w3id.org/cdisc/cosmos/dss/DD/HSDTHIND/DDDTC> a cosmos_sdtm:SDTMVariable ;
    cosmos_sdtm:dataElementConceptId NCIT:C82515 ;
    cosmos_sdtm:isNonStandard false ;
    cosmos_sdtm:mandatoryValue false ;
    cosmos_sdtm:mandatoryVariable true ;
    cosmos_sdtm:name "DDDTC" ;
    cosmos_sdtm:relationship <https://w3id.org/cdisc/cosmos/dss/DD/HSDTHIND/DDDTC/relationship> ;
    cosmos_sdtm:role <https://www.cdisc.org/cosmos/sdtm_v1.0/RoleEnum#Timing> .

<https://w3id.org/cdisc/cosmos/dss/DD/HSDTHIND/DDORRES> a cosmos_sdtm:SDTMVariable ;
    cosmos_sdtm:codelist NCIT:C66742 ;
    cosmos_sdtm:dataElementConceptId NCIT:C70856 ;
    cosmos_sdtm:dataType <https://www.cdisc.org/cosmos/sdtm_v1.0/SDTMVariableDataTypeEnum#text> ;
    cosmos_sdtm:isNonStandard false ;
    cosmos_sdtm:length 1 ;
    cosmos_sdtm:mandatoryValue false ;
    cosmos_sdtm:mandatoryVariable true ;
    cosmos_sdtm:name "DDORRES" ;
    cosmos_sdtm:originSource NCIT:C25936 ;
    cosmos_sdtm:originType NCIT:C170548 ;
    cosmos_sdtm:relationship <https://w3id.org/cdisc/cosmos/dss/DD/HSDTHIND/DDORRES/relationship> ;
    cosmos_sdtm:role <https://www.cdisc.org/cosmos/sdtm_v1.0/RoleEnum#Qualifier> ;
    cosmos_sdtm:valueList "N",
        "U",
        "Y" ;
    cosmos_sdtm:vlmTarget true .

<https://w3id.org/cdisc/cosmos/dss/DD/HSDTHIND/DDSTRESC> a cosmos_sdtm:SDTMVariable ;
    cosmos_sdtm:codelist NCIT:C66742 ;
    cosmos_sdtm:dataElementConceptId NCIT:C70856 ;
    cosmos_sdtm:dataType <https://www.cdisc.org/cosmos/sdtm_v1.0/SDTMVariableDataTypeEnum#text> ;
    cosmos_sdtm:isNonStandard false ;
    cosmos_sdtm:length 1 ;
    cosmos_sdtm:mandatoryValue false ;
    cosmos_sdtm:mandatoryVariable true ;
    cosmos_sdtm:name "DDSTRESC" ;
    cosmos_sdtm:originSource NCIT:C70793 ;
    cosmos_sdtm:originType NCIT:C170549 ;
    cosmos_sdtm:relationship <https://w3id.org/cdisc/cosmos/dss/DD/HSDTHIND/DDSTRESC/relationship> ;
    cosmos_sdtm:role <https://www.cdisc.org/cosmos/sdtm_v1.0/RoleEnum#Qualifier> ;
    cosmos_sdtm:valueList "N",
        "U",
        "Y" ;
    cosmos_sdtm:vlmTarget true .

<https://w3id.org/cdisc/cosmos/dss/DD/HSDTHIND/DDTEST> a cosmos_sdtm:SDTMVariable ;
    cosmos_sdtm:assignedTerm <https://w3id.org/cdisc/cosmos/dss/DD/HSDTHIND/DDTEST/assignedTerm> ;
    cosmos_sdtm:codelist NCIT:C116107 ;
    cosmos_sdtm:isNonStandard false ;
    cosmos_sdtm:mandatoryValue true ;
    cosmos_sdtm:mandatoryVariable true ;
    cosmos_sdtm:name "DDTEST" ;
    cosmos_sdtm:originSource NCIT:C70793 ;
    cosmos_sdtm:originType NCIT:C170547 ;
    cosmos_sdtm:relationship <https://w3id.org/cdisc/cosmos/dss/DD/HSDTHIND/DDTEST/relationship> ;
    cosmos_sdtm:role <https://www.cdisc.org/cosmos/sdtm_v1.0/RoleEnum#Qualifier> .

<https://w3id.org/cdisc/cosmos/dss/DD/HSDTHIND/DDTESTCD> a cosmos_sdtm:SDTMVariable ;
    cosmos_sdtm:assignedTerm <https://w3id.org/cdisc/cosmos/dss/DD/HSDTHIND/DDTESTCD/assignedTerm> ;
    cosmos_sdtm:codelist NCIT:C116108 ;
    cosmos_sdtm:comparator <https://www.cdisc.org/cosmos/sdtm_v1.0/ComparatorEnum#EQ> ;
    cosmos_sdtm:isNonStandard false ;
    cosmos_sdtm:mandatoryValue true ;
    cosmos_sdtm:mandatoryVariable true ;
    cosmos_sdtm:name "DDTESTCD" ;
    cosmos_sdtm:originSource NCIT:C70793 ;
    cosmos_sdtm:originType NCIT:C170547 ;
    cosmos_sdtm:relationship <https://w3id.org/cdisc/cosmos/dss/DD/HSDTHIND/DDTESTCD/relationship> ;
    cosmos_sdtm:role <https://www.cdisc.org/cosmos/sdtm_v1.0/RoleEnum#Topic> .

<https://w3id.org/cdisc/cosmos/dss/DD/INFOSCOD/DDDTC> a cosmos_sdtm:SDTMVariable ;
    cosmos_sdtm:dataElementConceptId NCIT:C82515 ;
    cosmos_sdtm:isNonStandard false ;
    cosmos_sdtm:mandatoryValue false ;
    cosmos_sdtm:mandatoryVariable true ;
    cosmos_sdtm:name "DDDTC" ;
    cosmos_sdtm:relationship <https://w3id.org/cdisc/cosmos/dss/DD/INFOSCOD/DDDTC/relationship> ;
    cosmos_sdtm:role <https://www.cdisc.org/cosmos/sdtm_v1.0/RoleEnum#Timing> .

<https://w3id.org/cdisc/cosmos/dss/DD/INFOSCOD/DDORRES> a cosmos_sdtm:SDTMVariable ;
    cosmos_sdtm:dataElementConceptId NCIT:C70856 ;
    cosmos_sdtm:dataType <https://www.cdisc.org/cosmos/sdtm_v1.0/SDTMVariableDataTypeEnum#text> ;
    cosmos_sdtm:isNonStandard false ;
    cosmos_sdtm:length 200 ;
    cosmos_sdtm:mandatoryValue false ;
    cosmos_sdtm:mandatoryVariable true ;
    cosmos_sdtm:name "DDORRES" ;
    cosmos_sdtm:originSource NCIT:C25936 ;
    cosmos_sdtm:originType NCIT:C170548 ;
    cosmos_sdtm:relationship <https://w3id.org/cdisc/cosmos/dss/DD/INFOSCOD/DDORRES/relationship> ;
    cosmos_sdtm:role <https://www.cdisc.org/cosmos/sdtm_v1.0/RoleEnum#Qualifier> ;
    cosmos_sdtm:vlmTarget true .

<https://w3id.org/cdisc/cosmos/dss/DD/INFOSCOD/DDSTRESC> a cosmos_sdtm:SDTMVariable ;
    cosmos_sdtm:dataElementConceptId NCIT:C70856 ;
    cosmos_sdtm:dataType <https://www.cdisc.org/cosmos/sdtm_v1.0/SDTMVariableDataTypeEnum#text> ;
    cosmos_sdtm:isNonStandard false ;
    cosmos_sdtm:length 200 ;
    cosmos_sdtm:mandatoryValue false ;
    cosmos_sdtm:mandatoryVariable true ;
    cosmos_sdtm:name "DDSTRESC" ;
    cosmos_sdtm:originSource NCIT:C70793 ;
    cosmos_sdtm:originType NCIT:C170549 ;
    cosmos_sdtm:relationship <https://w3id.org/cdisc/cosmos/dss/DD/INFOSCOD/DDSTRESC/relationship> ;
    cosmos_sdtm:role <https://www.cdisc.org/cosmos/sdtm_v1.0/RoleEnum#Qualifier> ;
    cosmos_sdtm:vlmTarget true .

<https://w3id.org/cdisc/cosmos/dss/DD/INFOSCOD/DDTEST> a cosmos_sdtm:SDTMVariable ;
    cosmos_sdtm:assignedTerm <https://w3id.org/cdisc/cosmos/dss/DD/INFOSCOD/DDTEST/assignedTerm> ;
    cosmos_sdtm:codelist NCIT:C116107 ;
    cosmos_sdtm:isNonStandard false ;
    cosmos_sdtm:mandatoryValue true ;
    cosmos_sdtm:mandatoryVariable true ;
    cosmos_sdtm:name "DDTEST" ;
    cosmos_sdtm:originSource NCIT:C70793 ;
    cosmos_sdtm:originType NCIT:C170547 ;
    cosmos_sdtm:relationship <https://w3id.org/cdisc/cosmos/dss/DD/INFOSCOD/DDTEST/relationship> ;
    cosmos_sdtm:role <https://www.cdisc.org/cosmos/sdtm_v1.0/RoleEnum#Qualifier> .

<https://w3id.org/cdisc/cosmos/dss/DD/INFOSCOD/DDTESTCD> a cosmos_sdtm:SDTMVariable ;
    cosmos_sdtm:assignedTerm <https://w3id.org/cdisc/cosmos/dss/DD/INFOSCOD/DDTESTCD/assignedTerm> ;
    cosmos_sdtm:codelist NCIT:C116108 ;
    cosmos_sdtm:comparator <https://www.cdisc.org/cosmos/sdtm_v1.0/ComparatorEnum#EQ> ;
    cosmos_sdtm:isNonStandard false ;
    cosmos_sdtm:mandatoryValue true ;
    cosmos_sdtm:mandatoryVariable true ;
    cosmos_sdtm:name "DDTESTCD" ;
    cosmos_sdtm:originSource NCIT:C70793 ;
    cosmos_sdtm:originType NCIT:C170547 ;
    cosmos_sdtm:relationship <https://w3id.org/cdisc/cosmos/dss/DD/INFOSCOD/DDTESTCD/relationship> ;
    cosmos_sdtm:role <https://www.cdisc.org/cosmos/sdtm_v1.0/RoleEnum#Topic> .

<https://w3id.org/cdisc/cosmos/dss/DD/LOCDTH/DDDTC> a cosmos_sdtm:SDTMVariable ;
    cosmos_sdtm:dataElementConceptId NCIT:C82515 ;
    cosmos_sdtm:isNonStandard false ;
    cosmos_sdtm:mandatoryValue false ;
    cosmos_sdtm:mandatoryVariable true ;
    cosmos_sdtm:name "DDDTC" ;
    cosmos_sdtm:relationship <https://w3id.org/cdisc/cosmos/dss/DD/LOCDTH/DDDTC/relationship> ;
    cosmos_sdtm:role <https://www.cdisc.org/cosmos/sdtm_v1.0/RoleEnum#Timing> .

<https://w3id.org/cdisc/cosmos/dss/DD/LOCDTH/DDORRES> a cosmos_sdtm:SDTMVariable ;
    cosmos_sdtm:codelist NCIT:C127262 ;
    cosmos_sdtm:dataElementConceptId NCIT:C70856 ;
    cosmos_sdtm:dataType <https://www.cdisc.org/cosmos/sdtm_v1.0/SDTMVariableDataTypeEnum#text> ;
    cosmos_sdtm:isNonStandard false ;
    cosmos_sdtm:length 200 ;
    cosmos_sdtm:mandatoryValue false ;
    cosmos_sdtm:mandatoryVariable true ;
    cosmos_sdtm:name "DDORRES" ;
    cosmos_sdtm:originSource NCIT:C25936 ;
    cosmos_sdtm:originType NCIT:C170548 ;
    cosmos_sdtm:relationship <https://w3id.org/cdisc/cosmos/dss/DD/LOCDTH/DDORRES/relationship> ;
    cosmos_sdtm:role <https://www.cdisc.org/cosmos/sdtm_v1.0/RoleEnum#Qualifier> ;
    cosmos_sdtm:vlmTarget true .

<https://w3id.org/cdisc/cosmos/dss/DD/LOCDTH/DDSTRESC> a cosmos_sdtm:SDTMVariable ;
    cosmos_sdtm:codelist NCIT:C127262 ;
    cosmos_sdtm:dataElementConceptId NCIT:C70856 ;
    cosmos_sdtm:dataType <https://www.cdisc.org/cosmos/sdtm_v1.0/SDTMVariableDataTypeEnum#text> ;
    cosmos_sdtm:isNonStandard false ;
    cosmos_sdtm:length 200 ;
    cosmos_sdtm:mandatoryValue false ;
    cosmos_sdtm:mandatoryVariable true ;
    cosmos_sdtm:name "DDSTRESC" ;
    cosmos_sdtm:originSource NCIT:C70793 ;
    cosmos_sdtm:originType NCIT:C170549 ;
    cosmos_sdtm:relationship <https://w3id.org/cdisc/cosmos/dss/DD/LOCDTH/DDSTRESC/relationship> ;
    cosmos_sdtm:role <https://www.cdisc.org/cosmos/sdtm_v1.0/RoleEnum#Qualifier> ;
    cosmos_sdtm:vlmTarget true .

<https://w3id.org/cdisc/cosmos/dss/DD/LOCDTH/DDTEST> a cosmos_sdtm:SDTMVariable ;
    cosmos_sdtm:assignedTerm <https://w3id.org/cdisc/cosmos/dss/DD/LOCDTH/DDTEST/assignedTerm> ;
    cosmos_sdtm:codelist NCIT:C116107 ;
    cosmos_sdtm:isNonStandard false ;
    cosmos_sdtm:mandatoryValue true ;
    cosmos_sdtm:mandatoryVariable true ;
    cosmos_sdtm:name "DDTEST" ;
    cosmos_sdtm:originSource NCIT:C70793 ;
    cosmos_sdtm:originType NCIT:C170547 ;
    cosmos_sdtm:relationship <https://w3id.org/cdisc/cosmos/dss/DD/LOCDTH/DDTEST/relationship> ;
    cosmos_sdtm:role <https://www.cdisc.org/cosmos/sdtm_v1.0/RoleEnum#Qualifier> .

<https://w3id.org/cdisc/cosmos/dss/DD/LOCDTH/DDTESTCD> a cosmos_sdtm:SDTMVariable ;
    cosmos_sdtm:assignedTerm <https://w3id.org/cdisc/cosmos/dss/DD/LOCDTH/DDTESTCD/assignedTerm> ;
    cosmos_sdtm:codelist NCIT:C116108 ;
    cosmos_sdtm:comparator <https://www.cdisc.org/cosmos/sdtm_v1.0/ComparatorEnum#EQ> ;
    cosmos_sdtm:isNonStandard false ;
    cosmos_sdtm:mandatoryValue true ;
    cosmos_sdtm:mandatoryVariable true ;
    cosmos_sdtm:name "DDTESTCD" ;
    cosmos_sdtm:originSource NCIT:C70793 ;
    cosmos_sdtm:originType NCIT:C170547 ;
    cosmos_sdtm:relationship <https://w3id.org/cdisc/cosmos/dss/DD/LOCDTH/DDTESTCD/relationship> ;
    cosmos_sdtm:role <https://www.cdisc.org/cosmos/sdtm_v1.0/RoleEnum#Topic> .

<https://w3id.org/cdisc/cosmos/dss/DD/PRCDTH/DDDTC> a cosmos_sdtm:SDTMVariable ;
    cosmos_sdtm:dataElementConceptId NCIT:C82515 ;
    cosmos_sdtm:isNonStandard false ;
    cosmos_sdtm:mandatoryValue false ;
    cosmos_sdtm:mandatoryVariable true ;
    cosmos_sdtm:name "DDDTC" ;
    cosmos_sdtm:relationship <https://w3id.org/cdisc/cosmos/dss/DD/PRCDTH/DDDTC/relationship> ;
    cosmos_sdtm:role <https://www.cdisc.org/cosmos/sdtm_v1.0/RoleEnum#Timing> .

<https://w3id.org/cdisc/cosmos/dss/DD/PRCDTH/DDORRES> a cosmos_sdtm:SDTMVariable ;
    cosmos_sdtm:dataElementConceptId NCIT:C70856 ;
    cosmos_sdtm:dataType <https://www.cdisc.org/cosmos/sdtm_v1.0/SDTMVariableDataTypeEnum#text> ;
    cosmos_sdtm:isNonStandard false ;
    cosmos_sdtm:length 200 ;
    cosmos_sdtm:mandatoryValue false ;
    cosmos_sdtm:mandatoryVariable true ;
    cosmos_sdtm:name "DDORRES" ;
    cosmos_sdtm:originSource NCIT:C25936 ;
    cosmos_sdtm:originType NCIT:C170548 ;
    cosmos_sdtm:relationship <https://w3id.org/cdisc/cosmos/dss/DD/PRCDTH/DDORRES/relationship> ;
    cosmos_sdtm:role <https://www.cdisc.org/cosmos/sdtm_v1.0/RoleEnum#Qualifier> ;
    cosmos_sdtm:vlmTarget true .

<https://w3id.org/cdisc/cosmos/dss/DD/PRCDTH/DDSTRESC> a cosmos_sdtm:SDTMVariable ;
    cosmos_sdtm:dataElementConceptId NCIT:C70856 ;
    cosmos_sdtm:dataType <https://www.cdisc.org/cosmos/sdtm_v1.0/SDTMVariableDataTypeEnum#text> ;
    cosmos_sdtm:isNonStandard false ;
    cosmos_sdtm:length 200 ;
    cosmos_sdtm:mandatoryValue false ;
    cosmos_sdtm:mandatoryVariable true ;
    cosmos_sdtm:name "DDSTRESC" ;
    cosmos_sdtm:originSource NCIT:C70793 ;
    cosmos_sdtm:originType NCIT:C170549 ;
    cosmos_sdtm:relationship <https://w3id.org/cdisc/cosmos/dss/DD/PRCDTH/DDSTRESC/relationship> ;
    cosmos_sdtm:role <https://www.cdisc.org/cosmos/sdtm_v1.0/RoleEnum#Qualifier> ;
    cosmos_sdtm:vlmTarget true .

<https://w3id.org/cdisc/cosmos/dss/DD/PRCDTH/DDTEST> a cosmos_sdtm:SDTMVariable ;
    cosmos_sdtm:assignedTerm <https://w3id.org/cdisc/cosmos/dss/DD/PRCDTH/DDTEST/assignedTerm> ;
    cosmos_sdtm:codelist NCIT:C116107 ;
    cosmos_sdtm:isNonStandard false ;
    cosmos_sdtm:mandatoryValue true ;
    cosmos_sdtm:mandatoryVariable true ;
    cosmos_sdtm:name "DDTEST" ;
    cosmos_sdtm:originSource NCIT:C70793 ;
    cosmos_sdtm:originType NCIT:C170547 ;
    cosmos_sdtm:relationship <https://w3id.org/cdisc/cosmos/dss/DD/PRCDTH/DDTEST/relationship> ;
    cosmos_sdtm:role <https://www.cdisc.org/cosmos/sdtm_v1.0/RoleEnum#Qualifier> .

<https://w3id.org/cdisc/cosmos/dss/DD/PRCDTH/DDTESTCD> a cosmos_sdtm:SDTMVariable ;
    cosmos_sdtm:assignedTerm <https://w3id.org/cdisc/cosmos/dss/DD/PRCDTH/DDTESTCD/assignedTerm> ;
    cosmos_sdtm:codelist NCIT:C116108 ;
    cosmos_sdtm:comparator <https://www.cdisc.org/cosmos/sdtm_v1.0/ComparatorEnum#EQ> ;
    cosmos_sdtm:isNonStandard false ;
    cosmos_sdtm:mandatoryValue true ;
    cosmos_sdtm:mandatoryVariable true ;
    cosmos_sdtm:name "DDTESTCD" ;
    cosmos_sdtm:originSource NCIT:C70793 ;
    cosmos_sdtm:originType NCIT:C170547 ;
    cosmos_sdtm:relationship <https://w3id.org/cdisc/cosmos/dss/DD/PRCDTH/DDTESTCD/relationship> ;
    cosmos_sdtm:role <https://www.cdisc.org/cosmos/sdtm_v1.0/RoleEnum#Topic> .

<https://w3id.org/cdisc/cosmos/dss/DD/SDTHIND/DDDTC> a cosmos_sdtm:SDTMVariable ;
    cosmos_sdtm:dataElementConceptId NCIT:C82515 ;
    cosmos_sdtm:isNonStandard false ;
    cosmos_sdtm:mandatoryValue false ;
    cosmos_sdtm:mandatoryVariable true ;
    cosmos_sdtm:name "DDDTC" ;
    cosmos_sdtm:relationship <https://w3id.org/cdisc/cosmos/dss/DD/SDTHIND/DDDTC/relationship> ;
    cosmos_sdtm:role <https://www.cdisc.org/cosmos/sdtm_v1.0/RoleEnum#Timing> .

<https://w3id.org/cdisc/cosmos/dss/DD/SDTHIND/DDORRES> a cosmos_sdtm:SDTMVariable ;
    cosmos_sdtm:codelist NCIT:C66742 ;
    cosmos_sdtm:dataElementConceptId NCIT:C70856 ;
    cosmos_sdtm:dataType <https://www.cdisc.org/cosmos/sdtm_v1.0/SDTMVariableDataTypeEnum#text> ;
    cosmos_sdtm:isNonStandard false ;
    cosmos_sdtm:length 1 ;
    cosmos_sdtm:mandatoryValue false ;
    cosmos_sdtm:mandatoryVariable true ;
    cosmos_sdtm:name "DDORRES" ;
    cosmos_sdtm:originSource NCIT:C25936 ;
    cosmos_sdtm:originType NCIT:C170548 ;
    cosmos_sdtm:relationship <https://w3id.org/cdisc/cosmos/dss/DD/SDTHIND/DDORRES/relationship> ;
    cosmos_sdtm:role <https://www.cdisc.org/cosmos/sdtm_v1.0/RoleEnum#Qualifier> ;
    cosmos_sdtm:valueList "N",
        "U",
        "Y" ;
    cosmos_sdtm:vlmTarget true .

<https://w3id.org/cdisc/cosmos/dss/DD/SDTHIND/DDSTRESC> a cosmos_sdtm:SDTMVariable ;
    cosmos_sdtm:codelist NCIT:C66742 ;
    cosmos_sdtm:dataElementConceptId NCIT:C70856 ;
    cosmos_sdtm:dataType <https://www.cdisc.org/cosmos/sdtm_v1.0/SDTMVariableDataTypeEnum#text> ;
    cosmos_sdtm:isNonStandard false ;
    cosmos_sdtm:length 1 ;
    cosmos_sdtm:mandatoryValue false ;
    cosmos_sdtm:mandatoryVariable true ;
    cosmos_sdtm:name "DDSTRESC" ;
    cosmos_sdtm:originSource NCIT:C70793 ;
    cosmos_sdtm:originType NCIT:C170549 ;
    cosmos_sdtm:relationship <https://w3id.org/cdisc/cosmos/dss/DD/SDTHIND/DDSTRESC/relationship> ;
    cosmos_sdtm:role <https://www.cdisc.org/cosmos/sdtm_v1.0/RoleEnum#Qualifier> ;
    cosmos_sdtm:valueList "N",
        "U",
        "Y" ;
    cosmos_sdtm:vlmTarget true .

<https://w3id.org/cdisc/cosmos/dss/DD/SDTHIND/DDTEST> a cosmos_sdtm:SDTMVariable ;
    cosmos_sdtm:assignedTerm <https://w3id.org/cdisc/cosmos/dss/DD/SDTHIND/DDTEST/assignedTerm> ;
    cosmos_sdtm:codelist NCIT:C116107 ;
    cosmos_sdtm:isNonStandard false ;
    cosmos_sdtm:mandatoryValue true ;
    cosmos_sdtm:mandatoryVariable true ;
    cosmos_sdtm:name "DDTEST" ;
    cosmos_sdtm:originSource NCIT:C70793 ;
    cosmos_sdtm:originType NCIT:C170547 ;
    cosmos_sdtm:relationship <https://w3id.org/cdisc/cosmos/dss/DD/SDTHIND/DDTEST/relationship> ;
    cosmos_sdtm:role <https://www.cdisc.org/cosmos/sdtm_v1.0/RoleEnum#Qualifier> .

<https://w3id.org/cdisc/cosmos/dss/DD/SDTHIND/DDTESTCD> a cosmos_sdtm:SDTMVariable ;
    cosmos_sdtm:assignedTerm <https://w3id.org/cdisc/cosmos/dss/DD/SDTHIND/DDTESTCD/assignedTerm> ;
    cosmos_sdtm:codelist NCIT:C116108 ;
    cosmos_sdtm:comparator <https://www.cdisc.org/cosmos/sdtm_v1.0/ComparatorEnum#EQ> ;
    cosmos_sdtm:isNonStandard false ;
    cosmos_sdtm:mandatoryValue true ;
    cosmos_sdtm:mandatoryVariable true ;
    cosmos_sdtm:name "DDTESTCD" ;
    cosmos_sdtm:originSource NCIT:C70793 ;
    cosmos_sdtm:originType NCIT:C170547 ;
    cosmos_sdtm:relationship <https://w3id.org/cdisc/cosmos/dss/DD/SDTHIND/DDTESTCD/relationship> ;
    cosmos_sdtm:role <https://www.cdisc.org/cosmos/sdtm_v1.0/RoleEnum#Topic> .

<https://w3id.org/cdisc/cosmos/dss/DD/SECDTH/DDDTC> a cosmos_sdtm:SDTMVariable ;
    cosmos_sdtm:dataElementConceptId NCIT:C82515 ;
    cosmos_sdtm:isNonStandard false ;
    cosmos_sdtm:mandatoryValue false ;
    cosmos_sdtm:mandatoryVariable true ;
    cosmos_sdtm:name "DDDTC" ;
    cosmos_sdtm:relationship <https://w3id.org/cdisc/cosmos/dss/DD/SECDTH/DDDTC/relationship> ;
    cosmos_sdtm:role <https://www.cdisc.org/cosmos/sdtm_v1.0/RoleEnum#Timing> .

<https://w3id.org/cdisc/cosmos/dss/DD/SECDTH/DDORRES> a cosmos_sdtm:SDTMVariable ;
    cosmos_sdtm:dataElementConceptId NCIT:C70856 ;
    cosmos_sdtm:dataType <https://www.cdisc.org/cosmos/sdtm_v1.0/SDTMVariableDataTypeEnum#text> ;
    cosmos_sdtm:isNonStandard false ;
    cosmos_sdtm:length 200 ;
    cosmos_sdtm:mandatoryValue false ;
    cosmos_sdtm:mandatoryVariable true ;
    cosmos_sdtm:name "DDORRES" ;
    cosmos_sdtm:originSource NCIT:C25936 ;
    cosmos_sdtm:originType NCIT:C170548 ;
    cosmos_sdtm:relationship <https://w3id.org/cdisc/cosmos/dss/DD/SECDTH/DDORRES/relationship> ;
    cosmos_sdtm:role <https://www.cdisc.org/cosmos/sdtm_v1.0/RoleEnum#Qualifier> ;
    cosmos_sdtm:vlmTarget true .

<https://w3id.org/cdisc/cosmos/dss/DD/SECDTH/DDSTRESC> a cosmos_sdtm:SDTMVariable ;
    cosmos_sdtm:dataElementConceptId NCIT:C70856 ;
    cosmos_sdtm:dataType <https://www.cdisc.org/cosmos/sdtm_v1.0/SDTMVariableDataTypeEnum#text> ;
    cosmos_sdtm:isNonStandard false ;
    cosmos_sdtm:length 200 ;
    cosmos_sdtm:mandatoryValue false ;
    cosmos_sdtm:mandatoryVariable true ;
    cosmos_sdtm:name "DDSTRESC" ;
    cosmos_sdtm:originSource NCIT:C70793 ;
    cosmos_sdtm:originType NCIT:C170549 ;
    cosmos_sdtm:relationship <https://w3id.org/cdisc/cosmos/dss/DD/SECDTH/DDSTRESC/relationship> ;
    cosmos_sdtm:role <https://www.cdisc.org/cosmos/sdtm_v1.0/RoleEnum#Qualifier> ;
    cosmos_sdtm:vlmTarget true .

<https://w3id.org/cdisc/cosmos/dss/DD/SECDTH/DDTEST> a cosmos_sdtm:SDTMVariable ;
    cosmos_sdtm:assignedTerm <https://w3id.org/cdisc/cosmos/dss/DD/SECDTH/DDTEST/assignedTerm> ;
    cosmos_sdtm:codelist NCIT:C116107 ;
    cosmos_sdtm:isNonStandard false ;
    cosmos_sdtm:mandatoryValue true ;
    cosmos_sdtm:mandatoryVariable true ;
    cosmos_sdtm:name "DDTEST" ;
    cosmos_sdtm:originSource NCIT:C70793 ;
    cosmos_sdtm:originType NCIT:C170547 ;
    cosmos_sdtm:relationship <https://w3id.org/cdisc/cosmos/dss/DD/SECDTH/DDTEST/relationship> ;
    cosmos_sdtm:role <https://www.cdisc.org/cosmos/sdtm_v1.0/RoleEnum#Qualifier> .

<https://w3id.org/cdisc/cosmos/dss/DD/SECDTH/DDTESTCD> a cosmos_sdtm:SDTMVariable ;
    cosmos_sdtm:assignedTerm <https://w3id.org/cdisc/cosmos/dss/DD/SECDTH/DDTESTCD/assignedTerm> ;
    cosmos_sdtm:codelist NCIT:C116108 ;
    cosmos_sdtm:comparator <https://www.cdisc.org/cosmos/sdtm_v1.0/ComparatorEnum#EQ> ;
    cosmos_sdtm:isNonStandard false ;
    cosmos_sdtm:mandatoryValue true ;
    cosmos_sdtm:mandatoryVariable true ;
    cosmos_sdtm:name "DDTESTCD" ;
    cosmos_sdtm:originSource NCIT:C70793 ;
    cosmos_sdtm:originType NCIT:C170547 ;
    cosmos_sdtm:relationship <https://w3id.org/cdisc/cosmos/dss/DD/SECDTH/DDTESTCD/relationship> ;
    cosmos_sdtm:role <https://www.cdisc.org/cosmos/sdtm_v1.0/RoleEnum#Topic> .

NCIT:C116107 a cosmos_sdtm:CodeList ;
    dcterms:identifier "C116107" ;
    skos:exactMatch <http://ncicb.nci.nih.gov/xml/owl/EVS/Thesaurus.owl#C116107> ;
    cosmos_sdtm:submissionValue "DTHDX" .

NCIT:C116108 a cosmos_sdtm:CodeList ;
    dcterms:identifier "C116108" ;
    skos:exactMatch <http://ncicb.nci.nih.gov/xml/owl/EVS/Thesaurus.owl#C116108> ;
    cosmos_sdtm:submissionValue "DTHDXCD" .

NCIT:C66742 a cosmos_sdtm:CodeList ;
    dcterms:identifier "C66742" ;
    skos:exactMatch <http://ncicb.nci.nih.gov/xml/owl/EVS/Thesaurus.owl#C66742> ;
    cosmos_sdtm:submissionValue "NY" .

