@prefix NCIT: <http://purl.obolibrary.org/obo/NCIT_> .
@prefix cosmos_sdtm: <https://www.cdisc.org/cosmos/sdtm_v1.0/> .
@prefix dcterms: <http://purl.org/dc/terms/> .
@prefix owl: <http://www.w3.org/2002/07/owl#> .
@prefix rdf: <http://www.w3.org/1999/02/22-rdf-syntax-ns#> .
@prefix rdfs: <http://www.w3.org/2000/01/rdf-schema#> .
@prefix skos: <http://www.w3.org/2004/02/skos/core#> .
@prefix xsd: <http://www.w3.org/2001/XMLSchema#> .

<https://w3id.org/cdisc/cosmos/dss/QS> a owl:Ontology ;
    rdfs:label "CDISC COSMoS Dataset Specializations, QS (instances)" ;
    dcterms:identifier "2026-07-14" ;
    dcterms:source <https://raw.githubusercontent.com/cdisc-org/COSMoS/031429b1d14823721991cd23ee88a11616686ce3/export/cdisc_sdtm_dataset_specializations_latest.csv> ;
    rdfs:comment "Dataset Specialization instances for domain QS, rendered from the pinned COSMoS export. Variable order is the export's row order, carried as rdf:_n membership beside the variables edges. length and significantDigits are cast from the export's decimal form to integer; packageType is not in the export and is set to the enum's single value. A biomedicalConceptId or dataElementConceptId that resolves to no node is carried as the published string. The concept nodes those edges reach are declared in the Biomedical Concept instance graph, which is not imported. Draft - not a normative CDISC artifact." ;
    owl:imports <https://w3id.org/cdisc/cosmos/sdtm/> ;
    owl:versionIRI <https://w3id.org/cdisc/cosmos/dss/QS/0.4.0> ;
    owl:versionInfo "v0.4.0" .

<https://w3id.org/cdisc/cosmos/dss/QS/CES0101> a cosmos_sdtm:SDTMGroup ;
    dcterms:identifier "CES0101" ;
    rdf:_1 <https://w3id.org/cdisc/cosmos/dss/QS/CES0101/QSTESTCD> ;
    rdf:_2 <https://w3id.org/cdisc/cosmos/dss/QS/CES0101/QSTEST> ;
    rdf:_3 <https://w3id.org/cdisc/cosmos/dss/QS/CES0101/QSCAT> ;
    rdf:_4 <https://w3id.org/cdisc/cosmos/dss/QS/CES0101/QSORRES> ;
    rdf:_5 <https://w3id.org/cdisc/cosmos/dss/QS/CES0101/QSSTRESC> ;
    rdf:_6 <https://w3id.org/cdisc/cosmos/dss/QS/CES0101/QSSTRESN> ;
    rdf:_7 <https://w3id.org/cdisc/cosmos/dss/QS/CES0101/QSDTC> ;
    cosmos_sdtm:biomedicalConceptId NCIT:C132556 ;
    cosmos_sdtm:domain "QS" ;
    cosmos_sdtm:packageDate "2026-05-26"^^xsd:date ;
    cosmos_sdtm:packageType <https://www.cdisc.org/cosmos/sdtm_v1.0/PackageTypeEnum#sdtm> ;
    cosmos_sdtm:sdtmigStartVersion "3-2" ;
    cosmos_sdtm:shortName "CES01-Ever Combat Patrols/Dangerous Duty" ;
    cosmos_sdtm:source "QS.QSTESTCD" ;
    cosmos_sdtm:variables <https://w3id.org/cdisc/cosmos/dss/QS/CES0101/QSCAT>,
        <https://w3id.org/cdisc/cosmos/dss/QS/CES0101/QSDTC>,
        <https://w3id.org/cdisc/cosmos/dss/QS/CES0101/QSORRES>,
        <https://w3id.org/cdisc/cosmos/dss/QS/CES0101/QSSTRESC>,
        <https://w3id.org/cdisc/cosmos/dss/QS/CES0101/QSSTRESN>,
        <https://w3id.org/cdisc/cosmos/dss/QS/CES0101/QSTEST>,
        <https://w3id.org/cdisc/cosmos/dss/QS/CES0101/QSTESTCD> .

<https://w3id.org/cdisc/cosmos/dss/QS/CES0102> a cosmos_sdtm:SDTMGroup ;
    dcterms:identifier "CES0102" ;
    rdf:_1 <https://w3id.org/cdisc/cosmos/dss/QS/CES0102/QSTESTCD> ;
    rdf:_2 <https://w3id.org/cdisc/cosmos/dss/QS/CES0102/QSTEST> ;
    rdf:_3 <https://w3id.org/cdisc/cosmos/dss/QS/CES0102/QSCAT> ;
    rdf:_4 <https://w3id.org/cdisc/cosmos/dss/QS/CES0102/QSORRES> ;
    rdf:_5 <https://w3id.org/cdisc/cosmos/dss/QS/CES0102/QSSTRESC> ;
    rdf:_6 <https://w3id.org/cdisc/cosmos/dss/QS/CES0102/QSSTRESN> ;
    rdf:_7 <https://w3id.org/cdisc/cosmos/dss/QS/CES0102/QSDTC> ;
    cosmos_sdtm:biomedicalConceptId NCIT:C132557 ;
    cosmos_sdtm:domain "QS" ;
    cosmos_sdtm:packageDate "2026-05-26"^^xsd:date ;
    cosmos_sdtm:packageType <https://www.cdisc.org/cosmos/sdtm_v1.0/PackageTypeEnum#sdtm> ;
    cosmos_sdtm:sdtmigStartVersion "3-2" ;
    cosmos_sdtm:shortName "CES01-Were You Ever Under Enemy Fire" ;
    cosmos_sdtm:source "QS.QSTESTCD" ;
    cosmos_sdtm:variables <https://w3id.org/cdisc/cosmos/dss/QS/CES0102/QSCAT>,
        <https://w3id.org/cdisc/cosmos/dss/QS/CES0102/QSDTC>,
        <https://w3id.org/cdisc/cosmos/dss/QS/CES0102/QSORRES>,
        <https://w3id.org/cdisc/cosmos/dss/QS/CES0102/QSSTRESC>,
        <https://w3id.org/cdisc/cosmos/dss/QS/CES0102/QSSTRESN>,
        <https://w3id.org/cdisc/cosmos/dss/QS/CES0102/QSTEST>,
        <https://w3id.org/cdisc/cosmos/dss/QS/CES0102/QSTESTCD> .

<https://w3id.org/cdisc/cosmos/dss/QS/CES0103> a cosmos_sdtm:SDTMGroup ;
    dcterms:identifier "CES0103" ;
    rdf:_1 <https://w3id.org/cdisc/cosmos/dss/QS/CES0103/QSTESTCD> ;
    rdf:_2 <https://w3id.org/cdisc/cosmos/dss/QS/CES0103/QSTEST> ;
    rdf:_3 <https://w3id.org/cdisc/cosmos/dss/QS/CES0103/QSCAT> ;
    rdf:_4 <https://w3id.org/cdisc/cosmos/dss/QS/CES0103/QSORRES> ;
    rdf:_5 <https://w3id.org/cdisc/cosmos/dss/QS/CES0103/QSSTRESC> ;
    rdf:_6 <https://w3id.org/cdisc/cosmos/dss/QS/CES0103/QSSTRESN> ;
    rdf:_7 <https://w3id.org/cdisc/cosmos/dss/QS/CES0103/QSDTC> ;
    cosmos_sdtm:biomedicalConceptId NCIT:C132558 ;
    cosmos_sdtm:domain "QS" ;
    cosmos_sdtm:packageDate "2026-05-26"^^xsd:date ;
    cosmos_sdtm:packageType <https://www.cdisc.org/cosmos/sdtm_v1.0/PackageTypeEnum#sdtm> ;
    cosmos_sdtm:sdtmigStartVersion "3-2" ;
    cosmos_sdtm:shortName "CES01-Ever Surrounded by the Enemy" ;
    cosmos_sdtm:source "QS.QSTESTCD" ;
    cosmos_sdtm:variables <https://w3id.org/cdisc/cosmos/dss/QS/CES0103/QSCAT>,
        <https://w3id.org/cdisc/cosmos/dss/QS/CES0103/QSDTC>,
        <https://w3id.org/cdisc/cosmos/dss/QS/CES0103/QSORRES>,
        <https://w3id.org/cdisc/cosmos/dss/QS/CES0103/QSSTRESC>,
        <https://w3id.org/cdisc/cosmos/dss/QS/CES0103/QSSTRESN>,
        <https://w3id.org/cdisc/cosmos/dss/QS/CES0103/QSTEST>,
        <https://w3id.org/cdisc/cosmos/dss/QS/CES0103/QSTESTCD> .

<https://w3id.org/cdisc/cosmos/dss/QS/CES0104> a cosmos_sdtm:SDTMGroup ;
    dcterms:identifier "CES0104" ;
    rdf:_1 <https://w3id.org/cdisc/cosmos/dss/QS/CES0104/QSTESTCD> ;
    rdf:_2 <https://w3id.org/cdisc/cosmos/dss/QS/CES0104/QSTEST> ;
    rdf:_3 <https://w3id.org/cdisc/cosmos/dss/QS/CES0104/QSCAT> ;
    rdf:_4 <https://w3id.org/cdisc/cosmos/dss/QS/CES0104/QSORRES> ;
    rdf:_5 <https://w3id.org/cdisc/cosmos/dss/QS/CES0104/QSSTRESC> ;
    rdf:_6 <https://w3id.org/cdisc/cosmos/dss/QS/CES0104/QSSTRESN> ;
    rdf:_7 <https://w3id.org/cdisc/cosmos/dss/QS/CES0104/QSDTC> ;
    cosmos_sdtm:biomedicalConceptId NCIT:C132559 ;
    cosmos_sdtm:domain "QS" ;
    cosmos_sdtm:packageDate "2026-05-26"^^xsd:date ;
    cosmos_sdtm:packageType <https://www.cdisc.org/cosmos/sdtm_v1.0/PackageTypeEnum#sdtm> ;
    cosmos_sdtm:sdtmigStartVersion "3-2" ;
    cosmos_sdtm:shortName "CES01-Soldiers in Unit KIA, Wounded, MIA" ;
    cosmos_sdtm:source "QS.QSTESTCD" ;
    cosmos_sdtm:variables <https://w3id.org/cdisc/cosmos/dss/QS/CES0104/QSCAT>,
        <https://w3id.org/cdisc/cosmos/dss/QS/CES0104/QSDTC>,
        <https://w3id.org/cdisc/cosmos/dss/QS/CES0104/QSORRES>,
        <https://w3id.org/cdisc/cosmos/dss/QS/CES0104/QSSTRESC>,
        <https://w3id.org/cdisc/cosmos/dss/QS/CES0104/QSSTRESN>,
        <https://w3id.org/cdisc/cosmos/dss/QS/CES0104/QSTEST>,
        <https://w3id.org/cdisc/cosmos/dss/QS/CES0104/QSTESTCD> .

<https://w3id.org/cdisc/cosmos/dss/QS/CES0105> a cosmos_sdtm:SDTMGroup ;
    dcterms:identifier "CES0105" ;
    rdf:_1 <https://w3id.org/cdisc/cosmos/dss/QS/CES0105/QSTESTCD> ;
    rdf:_2 <https://w3id.org/cdisc/cosmos/dss/QS/CES0105/QSTEST> ;
    rdf:_3 <https://w3id.org/cdisc/cosmos/dss/QS/CES0105/QSCAT> ;
    rdf:_4 <https://w3id.org/cdisc/cosmos/dss/QS/CES0105/QSORRES> ;
    rdf:_5 <https://w3id.org/cdisc/cosmos/dss/QS/CES0105/QSSTRESC> ;
    rdf:_6 <https://w3id.org/cdisc/cosmos/dss/QS/CES0105/QSSTRESN> ;
    rdf:_7 <https://w3id.org/cdisc/cosmos/dss/QS/CES0105/QSDTC> ;
    cosmos_sdtm:biomedicalConceptId NCIT:C132560 ;
    cosmos_sdtm:domain "QS" ;
    cosmos_sdtm:packageDate "2026-05-26"^^xsd:date ;
    cosmos_sdtm:packageType <https://www.cdisc.org/cosmos/sdtm_v1.0/PackageTypeEnum#sdtm> ;
    cosmos_sdtm:sdtmigStartVersion "3-2" ;
    cosmos_sdtm:shortName "CES01-How Often Fire Rounds at Enemy" ;
    cosmos_sdtm:source "QS.QSTESTCD" ;
    cosmos_sdtm:variables <https://w3id.org/cdisc/cosmos/dss/QS/CES0105/QSCAT>,
        <https://w3id.org/cdisc/cosmos/dss/QS/CES0105/QSDTC>,
        <https://w3id.org/cdisc/cosmos/dss/QS/CES0105/QSORRES>,
        <https://w3id.org/cdisc/cosmos/dss/QS/CES0105/QSSTRESC>,
        <https://w3id.org/cdisc/cosmos/dss/QS/CES0105/QSSTRESN>,
        <https://w3id.org/cdisc/cosmos/dss/QS/CES0105/QSTEST>,
        <https://w3id.org/cdisc/cosmos/dss/QS/CES0105/QSTESTCD> .

<https://w3id.org/cdisc/cosmos/dss/QS/CES0106> a cosmos_sdtm:SDTMGroup ;
    dcterms:identifier "CES0106" ;
    rdf:_1 <https://w3id.org/cdisc/cosmos/dss/QS/CES0106/QSTESTCD> ;
    rdf:_2 <https://w3id.org/cdisc/cosmos/dss/QS/CES0106/QSTEST> ;
    rdf:_3 <https://w3id.org/cdisc/cosmos/dss/QS/CES0106/QSCAT> ;
    rdf:_4 <https://w3id.org/cdisc/cosmos/dss/QS/CES0106/QSORRES> ;
    rdf:_5 <https://w3id.org/cdisc/cosmos/dss/QS/CES0106/QSSTRESC> ;
    rdf:_6 <https://w3id.org/cdisc/cosmos/dss/QS/CES0106/QSSTRESN> ;
    rdf:_7 <https://w3id.org/cdisc/cosmos/dss/QS/CES0106/QSDTC> ;
    cosmos_sdtm:biomedicalConceptId NCIT:C132561 ;
    cosmos_sdtm:domain "QS" ;
    cosmos_sdtm:packageDate "2026-05-26"^^xsd:date ;
    cosmos_sdtm:packageType <https://www.cdisc.org/cosmos/sdtm_v1.0/PackageTypeEnum#sdtm> ;
    cosmos_sdtm:sdtmigStartVersion "3-2" ;
    cosmos_sdtm:shortName "CES01-See Someone Hit by Rounds" ;
    cosmos_sdtm:source "QS.QSTESTCD" ;
    cosmos_sdtm:variables <https://w3id.org/cdisc/cosmos/dss/QS/CES0106/QSCAT>,
        <https://w3id.org/cdisc/cosmos/dss/QS/CES0106/QSDTC>,
        <https://w3id.org/cdisc/cosmos/dss/QS/CES0106/QSORRES>,
        <https://w3id.org/cdisc/cosmos/dss/QS/CES0106/QSSTRESC>,
        <https://w3id.org/cdisc/cosmos/dss/QS/CES0106/QSSTRESN>,
        <https://w3id.org/cdisc/cosmos/dss/QS/CES0106/QSTEST>,
        <https://w3id.org/cdisc/cosmos/dss/QS/CES0106/QSTESTCD> .

<https://w3id.org/cdisc/cosmos/dss/QS/CES0107> a cosmos_sdtm:SDTMGroup ;
    dcterms:identifier "CES0107" ;
    rdf:_1 <https://w3id.org/cdisc/cosmos/dss/QS/CES0107/QSTESTCD> ;
    rdf:_2 <https://w3id.org/cdisc/cosmos/dss/QS/CES0107/QSTEST> ;
    rdf:_3 <https://w3id.org/cdisc/cosmos/dss/QS/CES0107/QSCAT> ;
    rdf:_4 <https://w3id.org/cdisc/cosmos/dss/QS/CES0107/QSORRES> ;
    rdf:_5 <https://w3id.org/cdisc/cosmos/dss/QS/CES0107/QSSTRESC> ;
    rdf:_6 <https://w3id.org/cdisc/cosmos/dss/QS/CES0107/QSSTRESN> ;
    rdf:_7 <https://w3id.org/cdisc/cosmos/dss/QS/CES0107/QSDTC> ;
    cosmos_sdtm:biomedicalConceptId NCIT:C132562 ;
    cosmos_sdtm:domain "QS" ;
    cosmos_sdtm:packageDate "2026-05-26"^^xsd:date ;
    cosmos_sdtm:packageType <https://www.cdisc.org/cosmos/sdtm_v1.0/PackageTypeEnum#sdtm> ;
    cosmos_sdtm:sdtmigStartVersion "3-2" ;
    cosmos_sdtm:shortName "CES01-In Danger of Being Injured/Killed" ;
    cosmos_sdtm:source "QS.QSTESTCD" ;
    cosmos_sdtm:variables <https://w3id.org/cdisc/cosmos/dss/QS/CES0107/QSCAT>,
        <https://w3id.org/cdisc/cosmos/dss/QS/CES0107/QSDTC>,
        <https://w3id.org/cdisc/cosmos/dss/QS/CES0107/QSORRES>,
        <https://w3id.org/cdisc/cosmos/dss/QS/CES0107/QSSTRESC>,
        <https://w3id.org/cdisc/cosmos/dss/QS/CES0107/QSSTRESN>,
        <https://w3id.org/cdisc/cosmos/dss/QS/CES0107/QSTEST>,
        <https://w3id.org/cdisc/cosmos/dss/QS/CES0107/QSTESTCD> .

<https://w3id.org/cdisc/cosmos/dss/QS/EQ5D0201> a cosmos_sdtm:SDTMGroup ;
    dcterms:identifier "EQ5D0201" ;
    rdf:_1 <https://w3id.org/cdisc/cosmos/dss/QS/EQ5D0201/QSTESTCD> ;
    rdf:_2 <https://w3id.org/cdisc/cosmos/dss/QS/EQ5D0201/QSTEST> ;
    rdf:_3 <https://w3id.org/cdisc/cosmos/dss/QS/EQ5D0201/QSCAT> ;
    rdf:_4 <https://w3id.org/cdisc/cosmos/dss/QS/EQ5D0201/QSORRES> ;
    rdf:_5 <https://w3id.org/cdisc/cosmos/dss/QS/EQ5D0201/QSSTRESC> ;
    rdf:_6 <https://w3id.org/cdisc/cosmos/dss/QS/EQ5D0201/QSSTRESN> ;
    rdf:_7 <https://w3id.org/cdisc/cosmos/dss/QS/EQ5D0201/QSDTC> ;
    rdf:_8 <https://w3id.org/cdisc/cosmos/dss/QS/EQ5D0201/QSEVINTX> ;
    cosmos_sdtm:biomedicalConceptId NCIT:C102067 ;
    cosmos_sdtm:domain "QS" ;
    cosmos_sdtm:packageDate "2026-05-26"^^xsd:date ;
    cosmos_sdtm:packageType <https://www.cdisc.org/cosmos/sdtm_v1.0/PackageTypeEnum#sdtm> ;
    cosmos_sdtm:sdtmigStartVersion "3-2" ;
    cosmos_sdtm:shortName "EQ5D02-Mobility" ;
    cosmos_sdtm:source "QS.QSTESTCD" ;
    cosmos_sdtm:variables <https://w3id.org/cdisc/cosmos/dss/QS/EQ5D0201/QSCAT>,
        <https://w3id.org/cdisc/cosmos/dss/QS/EQ5D0201/QSDTC>,
        <https://w3id.org/cdisc/cosmos/dss/QS/EQ5D0201/QSEVINTX>,
        <https://w3id.org/cdisc/cosmos/dss/QS/EQ5D0201/QSORRES>,
        <https://w3id.org/cdisc/cosmos/dss/QS/EQ5D0201/QSSTRESC>,
        <https://w3id.org/cdisc/cosmos/dss/QS/EQ5D0201/QSSTRESN>,
        <https://w3id.org/cdisc/cosmos/dss/QS/EQ5D0201/QSTEST>,
        <https://w3id.org/cdisc/cosmos/dss/QS/EQ5D0201/QSTESTCD> .

<https://w3id.org/cdisc/cosmos/dss/QS/EQ5D0202> a cosmos_sdtm:SDTMGroup ;
    dcterms:identifier "EQ5D0202" ;
    rdf:_1 <https://w3id.org/cdisc/cosmos/dss/QS/EQ5D0202/QSTESTCD> ;
    rdf:_2 <https://w3id.org/cdisc/cosmos/dss/QS/EQ5D0202/QSTEST> ;
    rdf:_3 <https://w3id.org/cdisc/cosmos/dss/QS/EQ5D0202/QSCAT> ;
    rdf:_4 <https://w3id.org/cdisc/cosmos/dss/QS/EQ5D0202/QSORRES> ;
    rdf:_5 <https://w3id.org/cdisc/cosmos/dss/QS/EQ5D0202/QSSTRESC> ;
    rdf:_6 <https://w3id.org/cdisc/cosmos/dss/QS/EQ5D0202/QSSTRESN> ;
    rdf:_7 <https://w3id.org/cdisc/cosmos/dss/QS/EQ5D0202/QSDTC> ;
    rdf:_8 <https://w3id.org/cdisc/cosmos/dss/QS/EQ5D0202/QSEVINTX> ;
    cosmos_sdtm:biomedicalConceptId NCIT:C102068 ;
    cosmos_sdtm:domain "QS" ;
    cosmos_sdtm:packageDate "2026-05-26"^^xsd:date ;
    cosmos_sdtm:packageType <https://www.cdisc.org/cosmos/sdtm_v1.0/PackageTypeEnum#sdtm> ;
    cosmos_sdtm:sdtmigStartVersion "3-2" ;
    cosmos_sdtm:shortName "EQ5D02-Self-Care" ;
    cosmos_sdtm:source "QS.QSTESTCD" ;
    cosmos_sdtm:variables <https://w3id.org/cdisc/cosmos/dss/QS/EQ5D0202/QSCAT>,
        <https://w3id.org/cdisc/cosmos/dss/QS/EQ5D0202/QSDTC>,
        <https://w3id.org/cdisc/cosmos/dss/QS/EQ5D0202/QSEVINTX>,
        <https://w3id.org/cdisc/cosmos/dss/QS/EQ5D0202/QSORRES>,
        <https://w3id.org/cdisc/cosmos/dss/QS/EQ5D0202/QSSTRESC>,
        <https://w3id.org/cdisc/cosmos/dss/QS/EQ5D0202/QSSTRESN>,
        <https://w3id.org/cdisc/cosmos/dss/QS/EQ5D0202/QSTEST>,
        <https://w3id.org/cdisc/cosmos/dss/QS/EQ5D0202/QSTESTCD> .

<https://w3id.org/cdisc/cosmos/dss/QS/EQ5D0203> a cosmos_sdtm:SDTMGroup ;
    dcterms:identifier "EQ5D0203" ;
    rdf:_1 <https://w3id.org/cdisc/cosmos/dss/QS/EQ5D0203/QSTESTCD> ;
    rdf:_2 <https://w3id.org/cdisc/cosmos/dss/QS/EQ5D0203/QSTEST> ;
    rdf:_3 <https://w3id.org/cdisc/cosmos/dss/QS/EQ5D0203/QSCAT> ;
    rdf:_4 <https://w3id.org/cdisc/cosmos/dss/QS/EQ5D0203/QSORRES> ;
    rdf:_5 <https://w3id.org/cdisc/cosmos/dss/QS/EQ5D0203/QSSTRESC> ;
    rdf:_6 <https://w3id.org/cdisc/cosmos/dss/QS/EQ5D0203/QSSTRESN> ;
    rdf:_7 <https://w3id.org/cdisc/cosmos/dss/QS/EQ5D0203/QSDTC> ;
    rdf:_8 <https://w3id.org/cdisc/cosmos/dss/QS/EQ5D0203/QSEVINTX> ;
    cosmos_sdtm:biomedicalConceptId NCIT:C102069 ;
    cosmos_sdtm:domain "QS" ;
    cosmos_sdtm:packageDate "2026-05-26"^^xsd:date ;
    cosmos_sdtm:packageType <https://www.cdisc.org/cosmos/sdtm_v1.0/PackageTypeEnum#sdtm> ;
    cosmos_sdtm:sdtmigStartVersion "3-2" ;
    cosmos_sdtm:shortName "EQ5D02-Usual Activities" ;
    cosmos_sdtm:source "QS.QSTESTCD" ;
    cosmos_sdtm:variables <https://w3id.org/cdisc/cosmos/dss/QS/EQ5D0203/QSCAT>,
        <https://w3id.org/cdisc/cosmos/dss/QS/EQ5D0203/QSDTC>,
        <https://w3id.org/cdisc/cosmos/dss/QS/EQ5D0203/QSEVINTX>,
        <https://w3id.org/cdisc/cosmos/dss/QS/EQ5D0203/QSORRES>,
        <https://w3id.org/cdisc/cosmos/dss/QS/EQ5D0203/QSSTRESC>,
        <https://w3id.org/cdisc/cosmos/dss/QS/EQ5D0203/QSSTRESN>,
        <https://w3id.org/cdisc/cosmos/dss/QS/EQ5D0203/QSTEST>,
        <https://w3id.org/cdisc/cosmos/dss/QS/EQ5D0203/QSTESTCD> .

<https://w3id.org/cdisc/cosmos/dss/QS/EQ5D0204> a cosmos_sdtm:SDTMGroup ;
    dcterms:identifier "EQ5D0204" ;
    rdf:_1 <https://w3id.org/cdisc/cosmos/dss/QS/EQ5D0204/QSTESTCD> ;
    rdf:_2 <https://w3id.org/cdisc/cosmos/dss/QS/EQ5D0204/QSTEST> ;
    rdf:_3 <https://w3id.org/cdisc/cosmos/dss/QS/EQ5D0204/QSCAT> ;
    rdf:_4 <https://w3id.org/cdisc/cosmos/dss/QS/EQ5D0204/QSORRES> ;
    rdf:_5 <https://w3id.org/cdisc/cosmos/dss/QS/EQ5D0204/QSSTRESC> ;
    rdf:_6 <https://w3id.org/cdisc/cosmos/dss/QS/EQ5D0204/QSSTRESN> ;
    rdf:_7 <https://w3id.org/cdisc/cosmos/dss/QS/EQ5D0204/QSDTC> ;
    rdf:_8 <https://w3id.org/cdisc/cosmos/dss/QS/EQ5D0204/QSEVINTX> ;
    cosmos_sdtm:biomedicalConceptId NCIT:C102070 ;
    cosmos_sdtm:domain "QS" ;
    cosmos_sdtm:packageDate "2026-05-26"^^xsd:date ;
    cosmos_sdtm:packageType <https://www.cdisc.org/cosmos/sdtm_v1.0/PackageTypeEnum#sdtm> ;
    cosmos_sdtm:sdtmigStartVersion "3-2" ;
    cosmos_sdtm:shortName "EQ5D02-Pain/Discomfort" ;
    cosmos_sdtm:source "QS.QSTESTCD" ;
    cosmos_sdtm:variables <https://w3id.org/cdisc/cosmos/dss/QS/EQ5D0204/QSCAT>,
        <https://w3id.org/cdisc/cosmos/dss/QS/EQ5D0204/QSDTC>,
        <https://w3id.org/cdisc/cosmos/dss/QS/EQ5D0204/QSEVINTX>,
        <https://w3id.org/cdisc/cosmos/dss/QS/EQ5D0204/QSORRES>,
        <https://w3id.org/cdisc/cosmos/dss/QS/EQ5D0204/QSSTRESC>,
        <https://w3id.org/cdisc/cosmos/dss/QS/EQ5D0204/QSSTRESN>,
        <https://w3id.org/cdisc/cosmos/dss/QS/EQ5D0204/QSTEST>,
        <https://w3id.org/cdisc/cosmos/dss/QS/EQ5D0204/QSTESTCD> .

<https://w3id.org/cdisc/cosmos/dss/QS/EQ5D0205> a cosmos_sdtm:SDTMGroup ;
    dcterms:identifier "EQ5D0205" ;
    rdf:_1 <https://w3id.org/cdisc/cosmos/dss/QS/EQ5D0205/QSTESTCD> ;
    rdf:_2 <https://w3id.org/cdisc/cosmos/dss/QS/EQ5D0205/QSTEST> ;
    rdf:_3 <https://w3id.org/cdisc/cosmos/dss/QS/EQ5D0205/QSCAT> ;
    rdf:_4 <https://w3id.org/cdisc/cosmos/dss/QS/EQ5D0205/QSORRES> ;
    rdf:_5 <https://w3id.org/cdisc/cosmos/dss/QS/EQ5D0205/QSSTRESC> ;
    rdf:_6 <https://w3id.org/cdisc/cosmos/dss/QS/EQ5D0205/QSSTRESN> ;
    rdf:_7 <https://w3id.org/cdisc/cosmos/dss/QS/EQ5D0205/QSDTC> ;
    rdf:_8 <https://w3id.org/cdisc/cosmos/dss/QS/EQ5D0205/QSEVINTX> ;
    cosmos_sdtm:biomedicalConceptId NCIT:C102071 ;
    cosmos_sdtm:domain "QS" ;
    cosmos_sdtm:packageDate "2026-05-26"^^xsd:date ;
    cosmos_sdtm:packageType <https://www.cdisc.org/cosmos/sdtm_v1.0/PackageTypeEnum#sdtm> ;
    cosmos_sdtm:sdtmigStartVersion "3-2" ;
    cosmos_sdtm:shortName "EQ5D02-Anxiety/Depression" ;
    cosmos_sdtm:source "QS.QSTESTCD" ;
    cosmos_sdtm:variables <https://w3id.org/cdisc/cosmos/dss/QS/EQ5D0205/QSCAT>,
        <https://w3id.org/cdisc/cosmos/dss/QS/EQ5D0205/QSDTC>,
        <https://w3id.org/cdisc/cosmos/dss/QS/EQ5D0205/QSEVINTX>,
        <https://w3id.org/cdisc/cosmos/dss/QS/EQ5D0205/QSORRES>,
        <https://w3id.org/cdisc/cosmos/dss/QS/EQ5D0205/QSSTRESC>,
        <https://w3id.org/cdisc/cosmos/dss/QS/EQ5D0205/QSSTRESN>,
        <https://w3id.org/cdisc/cosmos/dss/QS/EQ5D0205/QSTEST>,
        <https://w3id.org/cdisc/cosmos/dss/QS/EQ5D0205/QSTESTCD> .

<https://w3id.org/cdisc/cosmos/dss/QS/EQ5D0206> a cosmos_sdtm:SDTMGroup ;
    dcterms:identifier "EQ5D0206" ;
    rdf:_1 <https://w3id.org/cdisc/cosmos/dss/QS/EQ5D0206/QSTESTCD> ;
    rdf:_10 <https://w3id.org/cdisc/cosmos/dss/QS/EQ5D0206/QSANVLLO> ;
    rdf:_11 <https://w3id.org/cdisc/cosmos/dss/QS/EQ5D0206/QSANVLHI> ;
    rdf:_12 <https://w3id.org/cdisc/cosmos/dss/QS/EQ5D0206/QSDTC> ;
    rdf:_13 <https://w3id.org/cdisc/cosmos/dss/QS/EQ5D0206/QSEVINTX> ;
    rdf:_2 <https://w3id.org/cdisc/cosmos/dss/QS/EQ5D0206/QSTEST> ;
    rdf:_3 <https://w3id.org/cdisc/cosmos/dss/QS/EQ5D0206/QSCAT> ;
    rdf:_4 <https://w3id.org/cdisc/cosmos/dss/QS/EQ5D0206/QSORRES> ;
    rdf:_5 <https://w3id.org/cdisc/cosmos/dss/QS/EQ5D0206/QSSTRESC> ;
    rdf:_6 <https://w3id.org/cdisc/cosmos/dss/QS/EQ5D0206/QSSTRESN> ;
    rdf:_7 <https://w3id.org/cdisc/cosmos/dss/QS/EQ5D0206/QSMETHOD> ;
    rdf:_8 <https://w3id.org/cdisc/cosmos/dss/QS/EQ5D0206/QSANTXLO> ;
    rdf:_9 <https://w3id.org/cdisc/cosmos/dss/QS/EQ5D0206/QSANTXHI> ;
    cosmos_sdtm:biomedicalConceptId NCIT:C102072 ;
    cosmos_sdtm:domain "QS" ;
    cosmos_sdtm:packageDate "2026-05-26"^^xsd:date ;
    cosmos_sdtm:packageType <https://www.cdisc.org/cosmos/sdtm_v1.0/PackageTypeEnum#sdtm> ;
    cosmos_sdtm:sdtmigStartVersion "3-2" ;
    cosmos_sdtm:shortName "EQ5D02-EQ VAS Score" ;
    cosmos_sdtm:source "QS.QSTESTCD" ;
    cosmos_sdtm:variables <https://w3id.org/cdisc/cosmos/dss/QS/EQ5D0206/QSANTXHI>,
        <https://w3id.org/cdisc/cosmos/dss/QS/EQ5D0206/QSANTXLO>,
        <https://w3id.org/cdisc/cosmos/dss/QS/EQ5D0206/QSANVLHI>,
        <https://w3id.org/cdisc/cosmos/dss/QS/EQ5D0206/QSANVLLO>,
        <https://w3id.org/cdisc/cosmos/dss/QS/EQ5D0206/QSCAT>,
        <https://w3id.org/cdisc/cosmos/dss/QS/EQ5D0206/QSDTC>,
        <https://w3id.org/cdisc/cosmos/dss/QS/EQ5D0206/QSEVINTX>,
        <https://w3id.org/cdisc/cosmos/dss/QS/EQ5D0206/QSMETHOD>,
        <https://w3id.org/cdisc/cosmos/dss/QS/EQ5D0206/QSORRES>,
        <https://w3id.org/cdisc/cosmos/dss/QS/EQ5D0206/QSSTRESC>,
        <https://w3id.org/cdisc/cosmos/dss/QS/EQ5D0206/QSSTRESN>,
        <https://w3id.org/cdisc/cosmos/dss/QS/EQ5D0206/QSTEST>,
        <https://w3id.org/cdisc/cosmos/dss/QS/EQ5D0206/QSTESTCD> .

<https://w3id.org/cdisc/cosmos/dss/QS/PATCHSURVEYACCEPTABILITY> a cosmos_sdtm:SDTMGroup ;
    dcterms:identifier "PATCHSURVEYACCEPTABILITY" ;
    rdf:_1 <https://w3id.org/cdisc/cosmos/dss/QS/PATCHSURVEYACCEPTABILITY/QSTESTCD> ;
    rdf:_2 <https://w3id.org/cdisc/cosmos/dss/QS/PATCHSURVEYACCEPTABILITY/QSTEST> ;
    rdf:_3 <https://w3id.org/cdisc/cosmos/dss/QS/PATCHSURVEYACCEPTABILITY/QSCAT> ;
    rdf:_4 <https://w3id.org/cdisc/cosmos/dss/QS/PATCHSURVEYACCEPTABILITY/QSORRES> ;
    rdf:_5 <https://w3id.org/cdisc/cosmos/dss/QS/PATCHSURVEYACCEPTABILITY/QSSTRESC> ;
    rdf:_6 <https://w3id.org/cdisc/cosmos/dss/QS/PATCHSURVEYACCEPTABILITY/QSSTRESN> ;
    rdf:_7 <https://w3id.org/cdisc/cosmos/dss/QS/PATCHSURVEYACCEPTABILITY/QSDTC> ;
    rdf:_8 <https://w3id.org/cdisc/cosmos/dss/QS/PATCHSURVEYACCEPTABILITY/QSEVAL> ;
    cosmos_sdtm:biomedicalConceptId "NEW_LZZT4" ;
    cosmos_sdtm:domain "QS" ;
    cosmos_sdtm:packageDate "2026-05-26"^^xsd:date ;
    cosmos_sdtm:packageType <https://www.cdisc.org/cosmos/sdtm_v1.0/PackageTypeEnum#sdtm> ;
    cosmos_sdtm:sdtmigStartVersion "3-2" ;
    cosmos_sdtm:shortName "TTS Acceptability Survey - Patch Acceptability" ;
    cosmos_sdtm:source "QS.QSTESTCD" ;
    cosmos_sdtm:variables <https://w3id.org/cdisc/cosmos/dss/QS/PATCHSURVEYACCEPTABILITY/QSCAT>,
        <https://w3id.org/cdisc/cosmos/dss/QS/PATCHSURVEYACCEPTABILITY/QSDTC>,
        <https://w3id.org/cdisc/cosmos/dss/QS/PATCHSURVEYACCEPTABILITY/QSEVAL>,
        <https://w3id.org/cdisc/cosmos/dss/QS/PATCHSURVEYACCEPTABILITY/QSORRES>,
        <https://w3id.org/cdisc/cosmos/dss/QS/PATCHSURVEYACCEPTABILITY/QSSTRESC>,
        <https://w3id.org/cdisc/cosmos/dss/QS/PATCHSURVEYACCEPTABILITY/QSSTRESN>,
        <https://w3id.org/cdisc/cosmos/dss/QS/PATCHSURVEYACCEPTABILITY/QSTEST>,
        <https://w3id.org/cdisc/cosmos/dss/QS/PATCHSURVEYACCEPTABILITY/QSTESTCD> .

<https://w3id.org/cdisc/cosmos/dss/QS/PATCHSURVEYAPPEARANCE> a cosmos_sdtm:SDTMGroup ;
    dcterms:identifier "PATCHSURVEYAPPEARANCE" ;
    rdf:_1 <https://w3id.org/cdisc/cosmos/dss/QS/PATCHSURVEYAPPEARANCE/QSTESTCD> ;
    rdf:_2 <https://w3id.org/cdisc/cosmos/dss/QS/PATCHSURVEYAPPEARANCE/QSTEST> ;
    rdf:_3 <https://w3id.org/cdisc/cosmos/dss/QS/PATCHSURVEYAPPEARANCE/QSCAT> ;
    rdf:_4 <https://w3id.org/cdisc/cosmos/dss/QS/PATCHSURVEYAPPEARANCE/QSORRES> ;
    rdf:_5 <https://w3id.org/cdisc/cosmos/dss/QS/PATCHSURVEYAPPEARANCE/QSSTRESC> ;
    rdf:_6 <https://w3id.org/cdisc/cosmos/dss/QS/PATCHSURVEYAPPEARANCE/QSSTRESN> ;
    rdf:_7 <https://w3id.org/cdisc/cosmos/dss/QS/PATCHSURVEYAPPEARANCE/QSDTC> ;
    rdf:_8 <https://w3id.org/cdisc/cosmos/dss/QS/PATCHSURVEYAPPEARANCE/QSEVAL> ;
    cosmos_sdtm:biomedicalConceptId "NEW_LZZT1" ;
    cosmos_sdtm:domain "QS" ;
    cosmos_sdtm:packageDate "2026-05-26"^^xsd:date ;
    cosmos_sdtm:packageType <https://www.cdisc.org/cosmos/sdtm_v1.0/PackageTypeEnum#sdtm> ;
    cosmos_sdtm:sdtmigStartVersion "3-2" ;
    cosmos_sdtm:shortName "TTS Acceptability Survey - Patch Appearance" ;
    cosmos_sdtm:source "QS.QSTESTCD" ;
    cosmos_sdtm:variables <https://w3id.org/cdisc/cosmos/dss/QS/PATCHSURVEYAPPEARANCE/QSCAT>,
        <https://w3id.org/cdisc/cosmos/dss/QS/PATCHSURVEYAPPEARANCE/QSDTC>,
        <https://w3id.org/cdisc/cosmos/dss/QS/PATCHSURVEYAPPEARANCE/QSEVAL>,
        <https://w3id.org/cdisc/cosmos/dss/QS/PATCHSURVEYAPPEARANCE/QSORRES>,
        <https://w3id.org/cdisc/cosmos/dss/QS/PATCHSURVEYAPPEARANCE/QSSTRESC>,
        <https://w3id.org/cdisc/cosmos/dss/QS/PATCHSURVEYAPPEARANCE/QSSTRESN>,
        <https://w3id.org/cdisc/cosmos/dss/QS/PATCHSURVEYAPPEARANCE/QSTEST>,
        <https://w3id.org/cdisc/cosmos/dss/QS/PATCHSURVEYAPPEARANCE/QSTESTCD> .

<https://w3id.org/cdisc/cosmos/dss/QS/PATCHSURVEYDURABILITY> a cosmos_sdtm:SDTMGroup ;
    dcterms:identifier "PATCHSURVEYDURABILITY" ;
    rdf:_1 <https://w3id.org/cdisc/cosmos/dss/QS/PATCHSURVEYDURABILITY/QSTESTCD> ;
    rdf:_2 <https://w3id.org/cdisc/cosmos/dss/QS/PATCHSURVEYDURABILITY/QSTEST> ;
    rdf:_3 <https://w3id.org/cdisc/cosmos/dss/QS/PATCHSURVEYDURABILITY/QSCAT> ;
    rdf:_4 <https://w3id.org/cdisc/cosmos/dss/QS/PATCHSURVEYDURABILITY/QSORRES> ;
    rdf:_5 <https://w3id.org/cdisc/cosmos/dss/QS/PATCHSURVEYDURABILITY/QSSTRESC> ;
    rdf:_6 <https://w3id.org/cdisc/cosmos/dss/QS/PATCHSURVEYDURABILITY/QSSTRESN> ;
    rdf:_7 <https://w3id.org/cdisc/cosmos/dss/QS/PATCHSURVEYDURABILITY/QSDTC> ;
    rdf:_8 <https://w3id.org/cdisc/cosmos/dss/QS/PATCHSURVEYDURABILITY/QSEVAL> ;
    cosmos_sdtm:biomedicalConceptId "NEW_LZZT3" ;
    cosmos_sdtm:domain "QS" ;
    cosmos_sdtm:packageDate "2026-05-26"^^xsd:date ;
    cosmos_sdtm:packageType <https://www.cdisc.org/cosmos/sdtm_v1.0/PackageTypeEnum#sdtm> ;
    cosmos_sdtm:sdtmigStartVersion "3-2" ;
    cosmos_sdtm:shortName "TTS Acceptability Survey - Patch Durability" ;
    cosmos_sdtm:source "QS.QSTESTCD" ;
    cosmos_sdtm:variables <https://w3id.org/cdisc/cosmos/dss/QS/PATCHSURVEYDURABILITY/QSCAT>,
        <https://w3id.org/cdisc/cosmos/dss/QS/PATCHSURVEYDURABILITY/QSDTC>,
        <https://w3id.org/cdisc/cosmos/dss/QS/PATCHSURVEYDURABILITY/QSEVAL>,
        <https://w3id.org/cdisc/cosmos/dss/QS/PATCHSURVEYDURABILITY/QSORRES>,
        <https://w3id.org/cdisc/cosmos/dss/QS/PATCHSURVEYDURABILITY/QSSTRESC>,
        <https://w3id.org/cdisc/cosmos/dss/QS/PATCHSURVEYDURABILITY/QSSTRESN>,
        <https://w3id.org/cdisc/cosmos/dss/QS/PATCHSURVEYDURABILITY/QSTEST>,
        <https://w3id.org/cdisc/cosmos/dss/QS/PATCHSURVEYDURABILITY/QSTESTCD> .

<https://w3id.org/cdisc/cosmos/dss/QS/PATCHSURVEYSIZE> a cosmos_sdtm:SDTMGroup ;
    dcterms:identifier "PATCHSURVEYSIZE" ;
    rdf:_1 <https://w3id.org/cdisc/cosmos/dss/QS/PATCHSURVEYSIZE/QSTESTCD> ;
    rdf:_2 <https://w3id.org/cdisc/cosmos/dss/QS/PATCHSURVEYSIZE/QSTEST> ;
    rdf:_3 <https://w3id.org/cdisc/cosmos/dss/QS/PATCHSURVEYSIZE/QSCAT> ;
    rdf:_4 <https://w3id.org/cdisc/cosmos/dss/QS/PATCHSURVEYSIZE/QSORRES> ;
    rdf:_5 <https://w3id.org/cdisc/cosmos/dss/QS/PATCHSURVEYSIZE/QSSTRESC> ;
    rdf:_6 <https://w3id.org/cdisc/cosmos/dss/QS/PATCHSURVEYSIZE/QSSTRESN> ;
    rdf:_7 <https://w3id.org/cdisc/cosmos/dss/QS/PATCHSURVEYSIZE/QSDTC> ;
    rdf:_8 <https://w3id.org/cdisc/cosmos/dss/QS/PATCHSURVEYSIZE/QSEVAL> ;
    cosmos_sdtm:biomedicalConceptId "NEW_LZZT2" ;
    cosmos_sdtm:domain "QS" ;
    cosmos_sdtm:packageDate "2026-05-26"^^xsd:date ;
    cosmos_sdtm:packageType <https://www.cdisc.org/cosmos/sdtm_v1.0/PackageTypeEnum#sdtm> ;
    cosmos_sdtm:sdtmigStartVersion "3-2" ;
    cosmos_sdtm:shortName "TTS Acceptability Survey - Patch Size" ;
    cosmos_sdtm:source "QS.QSTESTCD" ;
    cosmos_sdtm:variables <https://w3id.org/cdisc/cosmos/dss/QS/PATCHSURVEYSIZE/QSCAT>,
        <https://w3id.org/cdisc/cosmos/dss/QS/PATCHSURVEYSIZE/QSDTC>,
        <https://w3id.org/cdisc/cosmos/dss/QS/PATCHSURVEYSIZE/QSEVAL>,
        <https://w3id.org/cdisc/cosmos/dss/QS/PATCHSURVEYSIZE/QSORRES>,
        <https://w3id.org/cdisc/cosmos/dss/QS/PATCHSURVEYSIZE/QSSTRESC>,
        <https://w3id.org/cdisc/cosmos/dss/QS/PATCHSURVEYSIZE/QSSTRESN>,
        <https://w3id.org/cdisc/cosmos/dss/QS/PATCHSURVEYSIZE/QSTEST>,
        <https://w3id.org/cdisc/cosmos/dss/QS/PATCHSURVEYSIZE/QSTESTCD> .

NCIT:C158113 a cosmos_sdtm:CodeList ;
    dcterms:identifier "C158113" ;
    skos:exactMatch <http://ncicb.nci.nih.gov/xml/owl/EVS/Thesaurus.owl#C158113> ;
    cosmos_sdtm:submissionValue "QRSMTHOD" .

NCIT:C179945 a cosmos_sdtm:CodeList ;
    dcterms:identifier "C179945" ;
    skos:exactMatch <http://ncicb.nci.nih.gov/xml/owl/EVS/Thesaurus.owl#C179945> ;
    cosmos_sdtm:submissionValue "CES0101OR" .

NCIT:C179946 a cosmos_sdtm:CodeList ;
    dcterms:identifier "C179946" ;
    skos:exactMatch <http://ncicb.nci.nih.gov/xml/owl/EVS/Thesaurus.owl#C179946> ;
    cosmos_sdtm:submissionValue "CES0102OR" .

NCIT:C179947 a cosmos_sdtm:CodeList ;
    dcterms:identifier "C179947" ;
    skos:exactMatch <http://ncicb.nci.nih.gov/xml/owl/EVS/Thesaurus.owl#C179947> ;
    cosmos_sdtm:submissionValue "CES0103OR" .

NCIT:C179948 a cosmos_sdtm:CodeList ;
    dcterms:identifier "C179948" ;
    skos:exactMatch <http://ncicb.nci.nih.gov/xml/owl/EVS/Thesaurus.owl#C179948> ;
    cosmos_sdtm:submissionValue "CES0104OR" .

<https://w3id.org/cdisc/cosmos/dss/QS/CES0101/QSCAT/assignedTerm> a cosmos_sdtm:AssignedTerm ;
    cosmos_sdtm:conceptId NCIT:C132532 ;
    cosmos_sdtm:value "CES" .

<https://w3id.org/cdisc/cosmos/dss/QS/CES0101/QSCAT/relationship> a cosmos_sdtm:RelationShip ;
    cosmos_sdtm:linkingPhrase <https://www.cdisc.org/cosmos/sdtm_v1.0/LinkingPhraseEnum#groups%20values%20in> ;
    cosmos_sdtm:object "QSTESTCD" ;
    cosmos_sdtm:predicateTerm <https://www.cdisc.org/cosmos/sdtm_v1.0/PredicateTermEnum#GROUPS> ;
    cosmos_sdtm:subject "QSCAT" .

<https://w3id.org/cdisc/cosmos/dss/QS/CES0101/QSDTC/relationship> a cosmos_sdtm:RelationShip ;
    cosmos_sdtm:linkingPhrase <https://www.cdisc.org/cosmos/sdtm_v1.0/LinkingPhraseEnum#is%20the%20date%20of%20occurrence%20for> ;
    cosmos_sdtm:object "QSTESTCD" ;
    cosmos_sdtm:predicateTerm <https://www.cdisc.org/cosmos/sdtm_v1.0/PredicateTermEnum#IS_TIMING_FOR> ;
    cosmos_sdtm:subject "QSDTC" .

<https://w3id.org/cdisc/cosmos/dss/QS/CES0101/QSORRES/relationship> a cosmos_sdtm:RelationShip ;
    cosmos_sdtm:linkingPhrase <https://www.cdisc.org/cosmos/sdtm_v1.0/LinkingPhraseEnum#is%20the%20result%20of%20the%20test%20in> ;
    cosmos_sdtm:object "QSTESTCD" ;
    cosmos_sdtm:predicateTerm <https://www.cdisc.org/cosmos/sdtm_v1.0/PredicateTermEnum#IS_RESULT_OF> ;
    cosmos_sdtm:subject "QSORRES" .

<https://w3id.org/cdisc/cosmos/dss/QS/CES0101/QSSTRESC/relationship> a cosmos_sdtm:RelationShip ;
    cosmos_sdtm:linkingPhrase <https://www.cdisc.org/cosmos/sdtm_v1.0/LinkingPhraseEnum#is%20the%20result%20of%20the%20test%20in> ;
    cosmos_sdtm:object "QSTESTCD" ;
    cosmos_sdtm:predicateTerm <https://www.cdisc.org/cosmos/sdtm_v1.0/PredicateTermEnum#IS_RESULT_OF> ;
    cosmos_sdtm:subject "QSSTRESC" .

<https://w3id.org/cdisc/cosmos/dss/QS/CES0101/QSSTRESN/relationship> a cosmos_sdtm:RelationShip ;
    cosmos_sdtm:linkingPhrase <https://www.cdisc.org/cosmos/sdtm_v1.0/LinkingPhraseEnum#is%20the%20result%20of%20the%20test%20in> ;
    cosmos_sdtm:object "QSTESTCD" ;
    cosmos_sdtm:predicateTerm <https://www.cdisc.org/cosmos/sdtm_v1.0/PredicateTermEnum#IS_RESULT_OF> ;
    cosmos_sdtm:subject "QSSTRESN" .

<https://w3id.org/cdisc/cosmos/dss/QS/CES0101/QSTEST/assignedTerm> a cosmos_sdtm:AssignedTerm ;
    cosmos_sdtm:conceptId NCIT:C132556 ;
    cosmos_sdtm:value "CES01-Ever Combat Patrols/Dangerous Duty" .

<https://w3id.org/cdisc/cosmos/dss/QS/CES0101/QSTEST/relationship> a cosmos_sdtm:RelationShip ;
    cosmos_sdtm:linkingPhrase <https://www.cdisc.org/cosmos/sdtm_v1.0/LinkingPhraseEnum#decodes%20the%20value%20in> ;
    cosmos_sdtm:object "QSTESTCD" ;
    cosmos_sdtm:predicateTerm <https://www.cdisc.org/cosmos/sdtm_v1.0/PredicateTermEnum#DECODES> ;
    cosmos_sdtm:subject "QSTEST" .

<https://w3id.org/cdisc/cosmos/dss/QS/CES0101/QSTESTCD/assignedTerm> a cosmos_sdtm:AssignedTerm ;
    cosmos_sdtm:conceptId NCIT:C132556 ;
    cosmos_sdtm:value "CES0101" .

<https://w3id.org/cdisc/cosmos/dss/QS/CES0101/QSTESTCD/relationship> a cosmos_sdtm:RelationShip ;
    cosmos_sdtm:linkingPhrase <https://www.cdisc.org/cosmos/sdtm_v1.0/LinkingPhraseEnum#is%20the%20code%20for%20the%20value%20in> ;
    cosmos_sdtm:object "QSTEST" ;
    cosmos_sdtm:predicateTerm <https://www.cdisc.org/cosmos/sdtm_v1.0/PredicateTermEnum#IS_DECODED_BY> ;
    cosmos_sdtm:subject "QSTESTCD" .

<https://w3id.org/cdisc/cosmos/dss/QS/CES0102/QSCAT/assignedTerm> a cosmos_sdtm:AssignedTerm ;
    cosmos_sdtm:conceptId NCIT:C132532 ;
    cosmos_sdtm:value "CES" .

<https://w3id.org/cdisc/cosmos/dss/QS/CES0102/QSCAT/relationship> a cosmos_sdtm:RelationShip ;
    cosmos_sdtm:linkingPhrase <https://www.cdisc.org/cosmos/sdtm_v1.0/LinkingPhraseEnum#groups%20values%20in> ;
    cosmos_sdtm:object "QSTESTCD" ;
    cosmos_sdtm:predicateTerm <https://www.cdisc.org/cosmos/sdtm_v1.0/PredicateTermEnum#GROUPS> ;
    cosmos_sdtm:subject "QSCAT" .

<https://w3id.org/cdisc/cosmos/dss/QS/CES0102/QSDTC/relationship> a cosmos_sdtm:RelationShip ;
    cosmos_sdtm:linkingPhrase <https://www.cdisc.org/cosmos/sdtm_v1.0/LinkingPhraseEnum#is%20the%20date%20of%20occurrence%20for> ;
    cosmos_sdtm:object "QSTESTCD" ;
    cosmos_sdtm:predicateTerm <https://www.cdisc.org/cosmos/sdtm_v1.0/PredicateTermEnum#IS_TIMING_FOR> ;
    cosmos_sdtm:subject "QSDTC" .

<https://w3id.org/cdisc/cosmos/dss/QS/CES0102/QSORRES/relationship> a cosmos_sdtm:RelationShip ;
    cosmos_sdtm:linkingPhrase <https://www.cdisc.org/cosmos/sdtm_v1.0/LinkingPhraseEnum#is%20the%20result%20of%20the%20test%20in> ;
    cosmos_sdtm:object "QSTESTCD" ;
    cosmos_sdtm:predicateTerm <https://www.cdisc.org/cosmos/sdtm_v1.0/PredicateTermEnum#IS_RESULT_OF> ;
    cosmos_sdtm:subject "QSORRES" .

<https://w3id.org/cdisc/cosmos/dss/QS/CES0102/QSSTRESC/relationship> a cosmos_sdtm:RelationShip ;
    cosmos_sdtm:linkingPhrase <https://www.cdisc.org/cosmos/sdtm_v1.0/LinkingPhraseEnum#is%20the%20result%20of%20the%20test%20in> ;
    cosmos_sdtm:object "QSTESTCD" ;
    cosmos_sdtm:predicateTerm <https://www.cdisc.org/cosmos/sdtm_v1.0/PredicateTermEnum#IS_RESULT_OF> ;
    cosmos_sdtm:subject "QSSTRESC" .

<https://w3id.org/cdisc/cosmos/dss/QS/CES0102/QSSTRESN/relationship> a cosmos_sdtm:RelationShip ;
    cosmos_sdtm:linkingPhrase <https://www.cdisc.org/cosmos/sdtm_v1.0/LinkingPhraseEnum#is%20the%20result%20of%20the%20test%20in> ;
    cosmos_sdtm:object "QSTESTCD" ;
    cosmos_sdtm:predicateTerm <https://www.cdisc.org/cosmos/sdtm_v1.0/PredicateTermEnum#IS_RESULT_OF> ;
    cosmos_sdtm:subject "QSSTRESN" .

<https://w3id.org/cdisc/cosmos/dss/QS/CES0102/QSTEST/assignedTerm> a cosmos_sdtm:AssignedTerm ;
    cosmos_sdtm:conceptId NCIT:C132557 ;
    cosmos_sdtm:value "CES01-Were You Ever Under Enemy Fire" .

<https://w3id.org/cdisc/cosmos/dss/QS/CES0102/QSTEST/relationship> a cosmos_sdtm:RelationShip ;
    cosmos_sdtm:linkingPhrase <https://www.cdisc.org/cosmos/sdtm_v1.0/LinkingPhraseEnum#decodes%20the%20value%20in> ;
    cosmos_sdtm:object "QSTESTCD" ;
    cosmos_sdtm:predicateTerm <https://www.cdisc.org/cosmos/sdtm_v1.0/PredicateTermEnum#DECODES> ;
    cosmos_sdtm:subject "QSTEST" .

<https://w3id.org/cdisc/cosmos/dss/QS/CES0102/QSTESTCD/assignedTerm> a cosmos_sdtm:AssignedTerm ;
    cosmos_sdtm:conceptId NCIT:C132557 ;
    cosmos_sdtm:value "CES0102" .

<https://w3id.org/cdisc/cosmos/dss/QS/CES0102/QSTESTCD/relationship> a cosmos_sdtm:RelationShip ;
    cosmos_sdtm:linkingPhrase <https://www.cdisc.org/cosmos/sdtm_v1.0/LinkingPhraseEnum#is%20the%20code%20for%20the%20value%20in> ;
    cosmos_sdtm:object "QSTEST" ;
    cosmos_sdtm:predicateTerm <https://www.cdisc.org/cosmos/sdtm_v1.0/PredicateTermEnum#IS_DECODED_BY> ;
    cosmos_sdtm:subject "QSTESTCD" .

<https://w3id.org/cdisc/cosmos/dss/QS/CES0103/QSCAT/assignedTerm> a cosmos_sdtm:AssignedTerm ;
    cosmos_sdtm:conceptId NCIT:C132532 ;
    cosmos_sdtm:value "CES" .

<https://w3id.org/cdisc/cosmos/dss/QS/CES0103/QSCAT/relationship> a cosmos_sdtm:RelationShip ;
    cosmos_sdtm:linkingPhrase <https://www.cdisc.org/cosmos/sdtm_v1.0/LinkingPhraseEnum#groups%20values%20in> ;
    cosmos_sdtm:object "QSTESTCD" ;
    cosmos_sdtm:predicateTerm <https://www.cdisc.org/cosmos/sdtm_v1.0/PredicateTermEnum#GROUPS> ;
    cosmos_sdtm:subject "QSCAT" .

<https://w3id.org/cdisc/cosmos/dss/QS/CES0103/QSDTC/relationship> a cosmos_sdtm:RelationShip ;
    cosmos_sdtm:linkingPhrase <https://www.cdisc.org/cosmos/sdtm_v1.0/LinkingPhraseEnum#is%20the%20date%20of%20occurrence%20for> ;
    cosmos_sdtm:object "QSTESTCD" ;
    cosmos_sdtm:predicateTerm <https://www.cdisc.org/cosmos/sdtm_v1.0/PredicateTermEnum#IS_TIMING_FOR> ;
    cosmos_sdtm:subject "QSDTC" .

<https://w3id.org/cdisc/cosmos/dss/QS/CES0103/QSORRES/relationship> a cosmos_sdtm:RelationShip ;
    cosmos_sdtm:linkingPhrase <https://www.cdisc.org/cosmos/sdtm_v1.0/LinkingPhraseEnum#is%20the%20result%20of%20the%20test%20in> ;
    cosmos_sdtm:object "QSTESTCD" ;
    cosmos_sdtm:predicateTerm <https://www.cdisc.org/cosmos/sdtm_v1.0/PredicateTermEnum#IS_RESULT_OF> ;
    cosmos_sdtm:subject "QSORRES" .

<https://w3id.org/cdisc/cosmos/dss/QS/CES0103/QSSTRESC/relationship> a cosmos_sdtm:RelationShip ;
    cosmos_sdtm:linkingPhrase <https://www.cdisc.org/cosmos/sdtm_v1.0/LinkingPhraseEnum#is%20the%20result%20of%20the%20test%20in> ;
    cosmos_sdtm:object "QSTESTCD" ;
    cosmos_sdtm:predicateTerm <https://www.cdisc.org/cosmos/sdtm_v1.0/PredicateTermEnum#IS_RESULT_OF> ;
    cosmos_sdtm:subject "QSSTRESC" .

<https://w3id.org/cdisc/cosmos/dss/QS/CES0103/QSSTRESN/relationship> a cosmos_sdtm:RelationShip ;
    cosmos_sdtm:linkingPhrase <https://www.cdisc.org/cosmos/sdtm_v1.0/LinkingPhraseEnum#is%20the%20result%20of%20the%20test%20in> ;
    cosmos_sdtm:object "QSTESTCD" ;
    cosmos_sdtm:predicateTerm <https://www.cdisc.org/cosmos/sdtm_v1.0/PredicateTermEnum#IS_RESULT_OF> ;
    cosmos_sdtm:subject "QSSTRESN" .

<https://w3id.org/cdisc/cosmos/dss/QS/CES0103/QSTEST/assignedTerm> a cosmos_sdtm:AssignedTerm ;
    cosmos_sdtm:conceptId NCIT:C132558 ;
    cosmos_sdtm:value "CES01-Ever Surrounded by the Enemy" .

<https://w3id.org/cdisc/cosmos/dss/QS/CES0103/QSTEST/relationship> a cosmos_sdtm:RelationShip ;
    cosmos_sdtm:linkingPhrase <https://www.cdisc.org/cosmos/sdtm_v1.0/LinkingPhraseEnum#decodes%20the%20value%20in> ;
    cosmos_sdtm:object "QSTESTCD" ;
    cosmos_sdtm:predicateTerm <https://www.cdisc.org/cosmos/sdtm_v1.0/PredicateTermEnum#DECODES> ;
    cosmos_sdtm:subject "QSTEST" .

<https://w3id.org/cdisc/cosmos/dss/QS/CES0103/QSTESTCD/assignedTerm> a cosmos_sdtm:AssignedTerm ;
    cosmos_sdtm:conceptId NCIT:C132558 ;
    cosmos_sdtm:value "CES0103" .

<https://w3id.org/cdisc/cosmos/dss/QS/CES0103/QSTESTCD/relationship> a cosmos_sdtm:RelationShip ;
    cosmos_sdtm:linkingPhrase <https://www.cdisc.org/cosmos/sdtm_v1.0/LinkingPhraseEnum#is%20the%20code%20for%20the%20value%20in> ;
    cosmos_sdtm:object "QSTEST" ;
    cosmos_sdtm:predicateTerm <https://www.cdisc.org/cosmos/sdtm_v1.0/PredicateTermEnum#IS_DECODED_BY> ;
    cosmos_sdtm:subject "QSTESTCD" .

<https://w3id.org/cdisc/cosmos/dss/QS/CES0104/QSCAT/assignedTerm> a cosmos_sdtm:AssignedTerm ;
    cosmos_sdtm:conceptId NCIT:C132532 ;
    cosmos_sdtm:value "CES" .

<https://w3id.org/cdisc/cosmos/dss/QS/CES0104/QSCAT/relationship> a cosmos_sdtm:RelationShip ;
    cosmos_sdtm:linkingPhrase <https://www.cdisc.org/cosmos/sdtm_v1.0/LinkingPhraseEnum#groups%20values%20in> ;
    cosmos_sdtm:object "QSTESTCD" ;
    cosmos_sdtm:predicateTerm <https://www.cdisc.org/cosmos/sdtm_v1.0/PredicateTermEnum#GROUPS> ;
    cosmos_sdtm:subject "QSCAT" .

<https://w3id.org/cdisc/cosmos/dss/QS/CES0104/QSDTC/relationship> a cosmos_sdtm:RelationShip ;
    cosmos_sdtm:linkingPhrase <https://www.cdisc.org/cosmos/sdtm_v1.0/LinkingPhraseEnum#is%20the%20date%20of%20occurrence%20for> ;
    cosmos_sdtm:object "QSTESTCD" ;
    cosmos_sdtm:predicateTerm <https://www.cdisc.org/cosmos/sdtm_v1.0/PredicateTermEnum#IS_TIMING_FOR> ;
    cosmos_sdtm:subject "QSDTC" .

<https://w3id.org/cdisc/cosmos/dss/QS/CES0104/QSORRES/relationship> a cosmos_sdtm:RelationShip ;
    cosmos_sdtm:linkingPhrase <https://www.cdisc.org/cosmos/sdtm_v1.0/LinkingPhraseEnum#is%20the%20result%20of%20the%20test%20in> ;
    cosmos_sdtm:object "QSTESTCD" ;
    cosmos_sdtm:predicateTerm <https://www.cdisc.org/cosmos/sdtm_v1.0/PredicateTermEnum#IS_RESULT_OF> ;
    cosmos_sdtm:subject "QSORRES" .

<https://w3id.org/cdisc/cosmos/dss/QS/CES0104/QSSTRESC/relationship> a cosmos_sdtm:RelationShip ;
    cosmos_sdtm:linkingPhrase <https://www.cdisc.org/cosmos/sdtm_v1.0/LinkingPhraseEnum#is%20the%20result%20of%20the%20test%20in> ;
    cosmos_sdtm:object "QSTESTCD" ;
    cosmos_sdtm:predicateTerm <https://www.cdisc.org/cosmos/sdtm_v1.0/PredicateTermEnum#IS_RESULT_OF> ;
    cosmos_sdtm:subject "QSSTRESC" .

<https://w3id.org/cdisc/cosmos/dss/QS/CES0104/QSSTRESN/relationship> a cosmos_sdtm:RelationShip ;
    cosmos_sdtm:linkingPhrase <https://www.cdisc.org/cosmos/sdtm_v1.0/LinkingPhraseEnum#is%20the%20result%20of%20the%20test%20in> ;
    cosmos_sdtm:object "QSTESTCD" ;
    cosmos_sdtm:predicateTerm <https://www.cdisc.org/cosmos/sdtm_v1.0/PredicateTermEnum#IS_RESULT_OF> ;
    cosmos_sdtm:subject "QSSTRESN" .

<https://w3id.org/cdisc/cosmos/dss/QS/CES0104/QSTEST/assignedTerm> a cosmos_sdtm:AssignedTerm ;
    cosmos_sdtm:conceptId NCIT:C132559 ;
    cosmos_sdtm:value "CES01-Soldiers in Unit KIA, Wounded, MIA" .

<https://w3id.org/cdisc/cosmos/dss/QS/CES0104/QSTEST/relationship> a cosmos_sdtm:RelationShip ;
    cosmos_sdtm:linkingPhrase <https://www.cdisc.org/cosmos/sdtm_v1.0/LinkingPhraseEnum#decodes%20the%20value%20in> ;
    cosmos_sdtm:object "QSTESTCD" ;
    cosmos_sdtm:predicateTerm <https://www.cdisc.org/cosmos/sdtm_v1.0/PredicateTermEnum#DECODES> ;
    cosmos_sdtm:subject "QSTEST" .

<https://w3id.org/cdisc/cosmos/dss/QS/CES0104/QSTESTCD/assignedTerm> a cosmos_sdtm:AssignedTerm ;
    cosmos_sdtm:conceptId NCIT:C132559 ;
    cosmos_sdtm:value "CES0104" .

<https://w3id.org/cdisc/cosmos/dss/QS/CES0104/QSTESTCD/relationship> a cosmos_sdtm:RelationShip ;
    cosmos_sdtm:linkingPhrase <https://www.cdisc.org/cosmos/sdtm_v1.0/LinkingPhraseEnum#is%20the%20code%20for%20the%20value%20in> ;
    cosmos_sdtm:object "QSTEST" ;
    cosmos_sdtm:predicateTerm <https://www.cdisc.org/cosmos/sdtm_v1.0/PredicateTermEnum#IS_DECODED_BY> ;
    cosmos_sdtm:subject "QSTESTCD" .

<https://w3id.org/cdisc/cosmos/dss/QS/CES0105/QSCAT/assignedTerm> a cosmos_sdtm:AssignedTerm ;
    cosmos_sdtm:conceptId NCIT:C132532 ;
    cosmos_sdtm:value "CES" .

<https://w3id.org/cdisc/cosmos/dss/QS/CES0105/QSCAT/relationship> a cosmos_sdtm:RelationShip ;
    cosmos_sdtm:linkingPhrase <https://www.cdisc.org/cosmos/sdtm_v1.0/LinkingPhraseEnum#groups%20values%20in> ;
    cosmos_sdtm:object "QSTESTCD" ;
    cosmos_sdtm:predicateTerm <https://www.cdisc.org/cosmos/sdtm_v1.0/PredicateTermEnum#GROUPS> ;
    cosmos_sdtm:subject "QSCAT" .

<https://w3id.org/cdisc/cosmos/dss/QS/CES0105/QSDTC/relationship> a cosmos_sdtm:RelationShip ;
    cosmos_sdtm:linkingPhrase <https://www.cdisc.org/cosmos/sdtm_v1.0/LinkingPhraseEnum#is%20the%20date%20of%20occurrence%20for> ;
    cosmos_sdtm:object "QSTESTCD" ;
    cosmos_sdtm:predicateTerm <https://www.cdisc.org/cosmos/sdtm_v1.0/PredicateTermEnum#IS_TIMING_FOR> ;
    cosmos_sdtm:subject "QSDTC" .

<https://w3id.org/cdisc/cosmos/dss/QS/CES0105/QSORRES/relationship> a cosmos_sdtm:RelationShip ;
    cosmos_sdtm:linkingPhrase <https://www.cdisc.org/cosmos/sdtm_v1.0/LinkingPhraseEnum#is%20the%20result%20of%20the%20test%20in> ;
    cosmos_sdtm:object "QSTESTCD" ;
    cosmos_sdtm:predicateTerm <https://www.cdisc.org/cosmos/sdtm_v1.0/PredicateTermEnum#IS_RESULT_OF> ;
    cosmos_sdtm:subject "QSORRES" .

<https://w3id.org/cdisc/cosmos/dss/QS/CES0105/QSSTRESC/relationship> a cosmos_sdtm:RelationShip ;
    cosmos_sdtm:linkingPhrase <https://www.cdisc.org/cosmos/sdtm_v1.0/LinkingPhraseEnum#is%20the%20result%20of%20the%20test%20in> ;
    cosmos_sdtm:object "QSTESTCD" ;
    cosmos_sdtm:predicateTerm <https://www.cdisc.org/cosmos/sdtm_v1.0/PredicateTermEnum#IS_RESULT_OF> ;
    cosmos_sdtm:subject "QSSTRESC" .

<https://w3id.org/cdisc/cosmos/dss/QS/CES0105/QSSTRESN/relationship> a cosmos_sdtm:RelationShip ;
    cosmos_sdtm:linkingPhrase <https://www.cdisc.org/cosmos/sdtm_v1.0/LinkingPhraseEnum#is%20the%20result%20of%20the%20test%20in> ;
    cosmos_sdtm:object "QSTESTCD" ;
    cosmos_sdtm:predicateTerm <https://www.cdisc.org/cosmos/sdtm_v1.0/PredicateTermEnum#IS_RESULT_OF> ;
    cosmos_sdtm:subject "QSSTRESN" .

<https://w3id.org/cdisc/cosmos/dss/QS/CES0105/QSTEST/assignedTerm> a cosmos_sdtm:AssignedTerm ;
    cosmos_sdtm:conceptId NCIT:C132560 ;
    cosmos_sdtm:value "CES01-How Often Fire Rounds at Enemy" .

<https://w3id.org/cdisc/cosmos/dss/QS/CES0105/QSTEST/relationship> a cosmos_sdtm:RelationShip ;
    cosmos_sdtm:linkingPhrase <https://www.cdisc.org/cosmos/sdtm_v1.0/LinkingPhraseEnum#decodes%20the%20value%20in> ;
    cosmos_sdtm:object "QSTESTCD" ;
    cosmos_sdtm:predicateTerm <https://www.cdisc.org/cosmos/sdtm_v1.0/PredicateTermEnum#DECODES> ;
    cosmos_sdtm:subject "QSTEST" .

<https://w3id.org/cdisc/cosmos/dss/QS/CES0105/QSTESTCD/assignedTerm> a cosmos_sdtm:AssignedTerm ;
    cosmos_sdtm:conceptId NCIT:C132560 ;
    cosmos_sdtm:value "CES0105" .

<https://w3id.org/cdisc/cosmos/dss/QS/CES0105/QSTESTCD/relationship> a cosmos_sdtm:RelationShip ;
    cosmos_sdtm:linkingPhrase <https://www.cdisc.org/cosmos/sdtm_v1.0/LinkingPhraseEnum#is%20the%20code%20for%20the%20value%20in> ;
    cosmos_sdtm:object "QSTEST" ;
    cosmos_sdtm:predicateTerm <https://www.cdisc.org/cosmos/sdtm_v1.0/PredicateTermEnum#IS_DECODED_BY> ;
    cosmos_sdtm:subject "QSTESTCD" .

<https://w3id.org/cdisc/cosmos/dss/QS/CES0106/QSCAT/assignedTerm> a cosmos_sdtm:AssignedTerm ;
    cosmos_sdtm:conceptId NCIT:C132532 ;
    cosmos_sdtm:value "CES" .

<https://w3id.org/cdisc/cosmos/dss/QS/CES0106/QSCAT/relationship> a cosmos_sdtm:RelationShip ;
    cosmos_sdtm:linkingPhrase <https://www.cdisc.org/cosmos/sdtm_v1.0/LinkingPhraseEnum#groups%20values%20in> ;
    cosmos_sdtm:object "QSTESTCD" ;
    cosmos_sdtm:predicateTerm <https://www.cdisc.org/cosmos/sdtm_v1.0/PredicateTermEnum#GROUPS> ;
    cosmos_sdtm:subject "QSCAT" .

<https://w3id.org/cdisc/cosmos/dss/QS/CES0106/QSDTC/relationship> a cosmos_sdtm:RelationShip ;
    cosmos_sdtm:linkingPhrase <https://www.cdisc.org/cosmos/sdtm_v1.0/LinkingPhraseEnum#is%20the%20date%20of%20occurrence%20for> ;
    cosmos_sdtm:object "QSTESTCD" ;
    cosmos_sdtm:predicateTerm <https://www.cdisc.org/cosmos/sdtm_v1.0/PredicateTermEnum#IS_TIMING_FOR> ;
    cosmos_sdtm:subject "QSDTC" .

<https://w3id.org/cdisc/cosmos/dss/QS/CES0106/QSORRES/relationship> a cosmos_sdtm:RelationShip ;
    cosmos_sdtm:linkingPhrase <https://www.cdisc.org/cosmos/sdtm_v1.0/LinkingPhraseEnum#is%20the%20result%20of%20the%20test%20in> ;
    cosmos_sdtm:object "QSTESTCD" ;
    cosmos_sdtm:predicateTerm <https://www.cdisc.org/cosmos/sdtm_v1.0/PredicateTermEnum#IS_RESULT_OF> ;
    cosmos_sdtm:subject "QSORRES" .

<https://w3id.org/cdisc/cosmos/dss/QS/CES0106/QSSTRESC/relationship> a cosmos_sdtm:RelationShip ;
    cosmos_sdtm:linkingPhrase <https://www.cdisc.org/cosmos/sdtm_v1.0/LinkingPhraseEnum#is%20the%20result%20of%20the%20test%20in> ;
    cosmos_sdtm:object "QSTESTCD" ;
    cosmos_sdtm:predicateTerm <https://www.cdisc.org/cosmos/sdtm_v1.0/PredicateTermEnum#IS_RESULT_OF> ;
    cosmos_sdtm:subject "QSSTRESC" .

<https://w3id.org/cdisc/cosmos/dss/QS/CES0106/QSSTRESN/relationship> a cosmos_sdtm:RelationShip ;
    cosmos_sdtm:linkingPhrase <https://www.cdisc.org/cosmos/sdtm_v1.0/LinkingPhraseEnum#is%20the%20result%20of%20the%20test%20in> ;
    cosmos_sdtm:object "QSTESTCD" ;
    cosmos_sdtm:predicateTerm <https://www.cdisc.org/cosmos/sdtm_v1.0/PredicateTermEnum#IS_RESULT_OF> ;
    cosmos_sdtm:subject "QSSTRESN" .

<https://w3id.org/cdisc/cosmos/dss/QS/CES0106/QSTEST/assignedTerm> a cosmos_sdtm:AssignedTerm ;
    cosmos_sdtm:conceptId NCIT:C132561 ;
    cosmos_sdtm:value "CES01-See Someone Hit by Rounds" .

<https://w3id.org/cdisc/cosmos/dss/QS/CES0106/QSTEST/relationship> a cosmos_sdtm:RelationShip ;
    cosmos_sdtm:linkingPhrase <https://www.cdisc.org/cosmos/sdtm_v1.0/LinkingPhraseEnum#decodes%20the%20value%20in> ;
    cosmos_sdtm:object "QSTESTCD" ;
    cosmos_sdtm:predicateTerm <https://www.cdisc.org/cosmos/sdtm_v1.0/PredicateTermEnum#DECODES> ;
    cosmos_sdtm:subject "QSTEST" .

<https://w3id.org/cdisc/cosmos/dss/QS/CES0106/QSTESTCD/assignedTerm> a cosmos_sdtm:AssignedTerm ;
    cosmos_sdtm:conceptId NCIT:C132561 ;
    cosmos_sdtm:value "CES0106" .

<https://w3id.org/cdisc/cosmos/dss/QS/CES0106/QSTESTCD/relationship> a cosmos_sdtm:RelationShip ;
    cosmos_sdtm:linkingPhrase <https://www.cdisc.org/cosmos/sdtm_v1.0/LinkingPhraseEnum#is%20the%20code%20for%20the%20value%20in> ;
    cosmos_sdtm:object "QSTEST" ;
    cosmos_sdtm:predicateTerm <https://www.cdisc.org/cosmos/sdtm_v1.0/PredicateTermEnum#IS_DECODED_BY> ;
    cosmos_sdtm:subject "QSTESTCD" .

<https://w3id.org/cdisc/cosmos/dss/QS/CES0107/QSCAT/assignedTerm> a cosmos_sdtm:AssignedTerm ;
    cosmos_sdtm:conceptId NCIT:C132532 ;
    cosmos_sdtm:value "CES" .

<https://w3id.org/cdisc/cosmos/dss/QS/CES0107/QSCAT/relationship> a cosmos_sdtm:RelationShip ;
    cosmos_sdtm:linkingPhrase <https://www.cdisc.org/cosmos/sdtm_v1.0/LinkingPhraseEnum#groups%20values%20in> ;
    cosmos_sdtm:object "QSTESTCD" ;
    cosmos_sdtm:predicateTerm <https://www.cdisc.org/cosmos/sdtm_v1.0/PredicateTermEnum#GROUPS> ;
    cosmos_sdtm:subject "QSCAT" .

<https://w3id.org/cdisc/cosmos/dss/QS/CES0107/QSDTC/relationship> a cosmos_sdtm:RelationShip ;
    cosmos_sdtm:linkingPhrase <https://www.cdisc.org/cosmos/sdtm_v1.0/LinkingPhraseEnum#is%20the%20date%20of%20occurrence%20for> ;
    cosmos_sdtm:object "QSTESTCD" ;
    cosmos_sdtm:predicateTerm <https://www.cdisc.org/cosmos/sdtm_v1.0/PredicateTermEnum#IS_TIMING_FOR> ;
    cosmos_sdtm:subject "QSDTC" .

<https://w3id.org/cdisc/cosmos/dss/QS/CES0107/QSORRES/relationship> a cosmos_sdtm:RelationShip ;
    cosmos_sdtm:linkingPhrase <https://www.cdisc.org/cosmos/sdtm_v1.0/LinkingPhraseEnum#is%20the%20result%20of%20the%20test%20in> ;
    cosmos_sdtm:object "QSTESTCD" ;
    cosmos_sdtm:predicateTerm <https://www.cdisc.org/cosmos/sdtm_v1.0/PredicateTermEnum#IS_RESULT_OF> ;
    cosmos_sdtm:subject "QSORRES" .

<https://w3id.org/cdisc/cosmos/dss/QS/CES0107/QSSTRESC/relationship> a cosmos_sdtm:RelationShip ;
    cosmos_sdtm:linkingPhrase <https://www.cdisc.org/cosmos/sdtm_v1.0/LinkingPhraseEnum#is%20the%20result%20of%20the%20test%20in> ;
    cosmos_sdtm:object "QSTESTCD" ;
    cosmos_sdtm:predicateTerm <https://www.cdisc.org/cosmos/sdtm_v1.0/PredicateTermEnum#IS_RESULT_OF> ;
    cosmos_sdtm:subject "QSSTRESC" .

<https://w3id.org/cdisc/cosmos/dss/QS/CES0107/QSSTRESN/relationship> a cosmos_sdtm:RelationShip ;
    cosmos_sdtm:linkingPhrase <https://www.cdisc.org/cosmos/sdtm_v1.0/LinkingPhraseEnum#is%20the%20result%20of%20the%20test%20in> ;
    cosmos_sdtm:object "QSTESTCD" ;
    cosmos_sdtm:predicateTerm <https://www.cdisc.org/cosmos/sdtm_v1.0/PredicateTermEnum#IS_RESULT_OF> ;
    cosmos_sdtm:subject "QSSTRESN" .

<https://w3id.org/cdisc/cosmos/dss/QS/CES0107/QSTEST/assignedTerm> a cosmos_sdtm:AssignedTerm ;
    cosmos_sdtm:conceptId NCIT:C132562 ;
    cosmos_sdtm:value "CES01-In Danger of Being Injured/Killed" .

<https://w3id.org/cdisc/cosmos/dss/QS/CES0107/QSTEST/relationship> a cosmos_sdtm:RelationShip ;
    cosmos_sdtm:linkingPhrase <https://www.cdisc.org/cosmos/sdtm_v1.0/LinkingPhraseEnum#decodes%20the%20value%20in> ;
    cosmos_sdtm:object "QSTESTCD" ;
    cosmos_sdtm:predicateTerm <https://www.cdisc.org/cosmos/sdtm_v1.0/PredicateTermEnum#DECODES> ;
    cosmos_sdtm:subject "QSTEST" .

<https://w3id.org/cdisc/cosmos/dss/QS/CES0107/QSTESTCD/assignedTerm> a cosmos_sdtm:AssignedTerm ;
    cosmos_sdtm:conceptId NCIT:C132562 ;
    cosmos_sdtm:value "CES0107" .

<https://w3id.org/cdisc/cosmos/dss/QS/CES0107/QSTESTCD/relationship> a cosmos_sdtm:RelationShip ;
    cosmos_sdtm:linkingPhrase <https://www.cdisc.org/cosmos/sdtm_v1.0/LinkingPhraseEnum#is%20the%20code%20for%20the%20value%20in> ;
    cosmos_sdtm:object "QSTEST" ;
    cosmos_sdtm:predicateTerm <https://www.cdisc.org/cosmos/sdtm_v1.0/PredicateTermEnum#IS_DECODED_BY> ;
    cosmos_sdtm:subject "QSTESTCD" .

<https://w3id.org/cdisc/cosmos/dss/QS/EQ5D0201/QSCAT/assignedTerm> a cosmos_sdtm:AssignedTerm ;
    cosmos_sdtm:conceptId NCIT:C102117 ;
    cosmos_sdtm:value "EQ-5D-5L" .

<https://w3id.org/cdisc/cosmos/dss/QS/EQ5D0201/QSCAT/relationship> a cosmos_sdtm:RelationShip ;
    cosmos_sdtm:linkingPhrase <https://www.cdisc.org/cosmos/sdtm_v1.0/LinkingPhraseEnum#groups%20values%20in> ;
    cosmos_sdtm:object "QSTESTCD" ;
    cosmos_sdtm:predicateTerm <https://www.cdisc.org/cosmos/sdtm_v1.0/PredicateTermEnum#GROUPS> ;
    cosmos_sdtm:subject "QSCAT" .

<https://w3id.org/cdisc/cosmos/dss/QS/EQ5D0201/QSDTC/relationship> a cosmos_sdtm:RelationShip ;
    cosmos_sdtm:linkingPhrase <https://www.cdisc.org/cosmos/sdtm_v1.0/LinkingPhraseEnum#is%20the%20date%20of%20occurrence%20for> ;
    cosmos_sdtm:object "QSTESTCD" ;
    cosmos_sdtm:predicateTerm <https://www.cdisc.org/cosmos/sdtm_v1.0/PredicateTermEnum#IS_TIMING_FOR> ;
    cosmos_sdtm:subject "QSDTC" .

<https://w3id.org/cdisc/cosmos/dss/QS/EQ5D0201/QSEVINTX/assignedTerm> a cosmos_sdtm:AssignedTerm ;
    cosmos_sdtm:value "TODAY" .

<https://w3id.org/cdisc/cosmos/dss/QS/EQ5D0201/QSEVINTX/relationship> a cosmos_sdtm:RelationShip ;
    cosmos_sdtm:linkingPhrase <https://www.cdisc.org/cosmos/sdtm_v1.0/LinkingPhraseEnum#is%20the%20period%20of%20time%20to%20be%20considered%20when%20answering%20the%20question%20in> ;
    cosmos_sdtm:object "QSTESTCD" ;
    cosmos_sdtm:predicateTerm <https://www.cdisc.org/cosmos/sdtm_v1.0/PredicateTermEnum#IS_TIMING_FOR> ;
    cosmos_sdtm:subject "QSEVINTX" .

<https://w3id.org/cdisc/cosmos/dss/QS/EQ5D0201/QSORRES/relationship> a cosmos_sdtm:RelationShip ;
    cosmos_sdtm:linkingPhrase <https://www.cdisc.org/cosmos/sdtm_v1.0/LinkingPhraseEnum#is%20the%20result%20of%20the%20test%20in> ;
    cosmos_sdtm:object "QSTESTCD" ;
    cosmos_sdtm:predicateTerm <https://www.cdisc.org/cosmos/sdtm_v1.0/PredicateTermEnum#IS_RESULT_OF> ;
    cosmos_sdtm:subject "QSORRES" .

<https://w3id.org/cdisc/cosmos/dss/QS/EQ5D0201/QSSTRESC/relationship> a cosmos_sdtm:RelationShip ;
    cosmos_sdtm:linkingPhrase <https://www.cdisc.org/cosmos/sdtm_v1.0/LinkingPhraseEnum#is%20the%20result%20of%20the%20test%20in> ;
    cosmos_sdtm:object "QSTESTCD" ;
    cosmos_sdtm:predicateTerm <https://www.cdisc.org/cosmos/sdtm_v1.0/PredicateTermEnum#IS_RESULT_OF> ;
    cosmos_sdtm:subject "QSSTRESC" .

<https://w3id.org/cdisc/cosmos/dss/QS/EQ5D0201/QSSTRESN/relationship> a cosmos_sdtm:RelationShip ;
    cosmos_sdtm:linkingPhrase <https://www.cdisc.org/cosmos/sdtm_v1.0/LinkingPhraseEnum#is%20the%20result%20of%20the%20test%20in> ;
    cosmos_sdtm:object "QSTESTCD" ;
    cosmos_sdtm:predicateTerm <https://www.cdisc.org/cosmos/sdtm_v1.0/PredicateTermEnum#IS_RESULT_OF> ;
    cosmos_sdtm:subject "QSSTRESN" .

<https://w3id.org/cdisc/cosmos/dss/QS/EQ5D0201/QSTEST/assignedTerm> a cosmos_sdtm:AssignedTerm ;
    cosmos_sdtm:conceptId NCIT:C102067 ;
    cosmos_sdtm:value "EQ5D02-Mobility" .

<https://w3id.org/cdisc/cosmos/dss/QS/EQ5D0201/QSTEST/relationship> a cosmos_sdtm:RelationShip ;
    cosmos_sdtm:linkingPhrase <https://www.cdisc.org/cosmos/sdtm_v1.0/LinkingPhraseEnum#decodes%20the%20value%20in> ;
    cosmos_sdtm:object "QSTESTCD" ;
    cosmos_sdtm:predicateTerm <https://www.cdisc.org/cosmos/sdtm_v1.0/PredicateTermEnum#DECODES> ;
    cosmos_sdtm:subject "QSTEST" .

<https://w3id.org/cdisc/cosmos/dss/QS/EQ5D0201/QSTESTCD/assignedTerm> a cosmos_sdtm:AssignedTerm ;
    cosmos_sdtm:conceptId NCIT:C102067 ;
    cosmos_sdtm:value "EQ5D0201" .

<https://w3id.org/cdisc/cosmos/dss/QS/EQ5D0201/QSTESTCD/relationship> a cosmos_sdtm:RelationShip ;
    cosmos_sdtm:linkingPhrase <https://www.cdisc.org/cosmos/sdtm_v1.0/LinkingPhraseEnum#is%20the%20code%20for%20the%20value%20in> ;
    cosmos_sdtm:object "QSTEST" ;
    cosmos_sdtm:predicateTerm <https://www.cdisc.org/cosmos/sdtm_v1.0/PredicateTermEnum#IS_DECODED_BY> ;
    cosmos_sdtm:subject "QSTESTCD" .

<https://w3id.org/cdisc/cosmos/dss/QS/EQ5D0202/QSCAT/assignedTerm> a cosmos_sdtm:AssignedTerm ;
    cosmos_sdtm:conceptId NCIT:C102117 ;
    cosmos_sdtm:value "EQ-5D-5L" .

<https://w3id.org/cdisc/cosmos/dss/QS/EQ5D0202/QSCAT/relationship> a cosmos_sdtm:RelationShip ;
    cosmos_sdtm:linkingPhrase <https://www.cdisc.org/cosmos/sdtm_v1.0/LinkingPhraseEnum#groups%20values%20in> ;
    cosmos_sdtm:object "QSTESTCD" ;
    cosmos_sdtm:predicateTerm <https://www.cdisc.org/cosmos/sdtm_v1.0/PredicateTermEnum#GROUPS> ;
    cosmos_sdtm:subject "QSCAT" .

<https://w3id.org/cdisc/cosmos/dss/QS/EQ5D0202/QSDTC/relationship> a cosmos_sdtm:RelationShip ;
    cosmos_sdtm:linkingPhrase <https://www.cdisc.org/cosmos/sdtm_v1.0/LinkingPhraseEnum#is%20the%20date%20of%20occurrence%20for> ;
    cosmos_sdtm:object "QSTESTCD" ;
    cosmos_sdtm:predicateTerm <https://www.cdisc.org/cosmos/sdtm_v1.0/PredicateTermEnum#IS_TIMING_FOR> ;
    cosmos_sdtm:subject "QSDTC" .

<https://w3id.org/cdisc/cosmos/dss/QS/EQ5D0202/QSEVINTX/assignedTerm> a cosmos_sdtm:AssignedTerm ;
    cosmos_sdtm:value "TODAY" .

<https://w3id.org/cdisc/cosmos/dss/QS/EQ5D0202/QSEVINTX/relationship> a cosmos_sdtm:RelationShip ;
    cosmos_sdtm:linkingPhrase <https://www.cdisc.org/cosmos/sdtm_v1.0/LinkingPhraseEnum#is%20the%20period%20of%20time%20to%20be%20considered%20when%20answering%20the%20question%20in> ;
    cosmos_sdtm:object "QSTESTCD" ;
    cosmos_sdtm:predicateTerm <https://www.cdisc.org/cosmos/sdtm_v1.0/PredicateTermEnum#IS_TIMING_FOR> ;
    cosmos_sdtm:subject "QSEVINTX" .

<https://w3id.org/cdisc/cosmos/dss/QS/EQ5D0202/QSORRES/relationship> a cosmos_sdtm:RelationShip ;
    cosmos_sdtm:linkingPhrase <https://www.cdisc.org/cosmos/sdtm_v1.0/LinkingPhraseEnum#is%20the%20result%20of%20the%20test%20in> ;
    cosmos_sdtm:object "QSTESTCD" ;
    cosmos_sdtm:predicateTerm <https://www.cdisc.org/cosmos/sdtm_v1.0/PredicateTermEnum#IS_RESULT_OF> ;
    cosmos_sdtm:subject "QSORRES" .

<https://w3id.org/cdisc/cosmos/dss/QS/EQ5D0202/QSSTRESC/relationship> a cosmos_sdtm:RelationShip ;
    cosmos_sdtm:linkingPhrase <https://www.cdisc.org/cosmos/sdtm_v1.0/LinkingPhraseEnum#is%20the%20result%20of%20the%20test%20in> ;
    cosmos_sdtm:object "QSTESTCD" ;
    cosmos_sdtm:predicateTerm <https://www.cdisc.org/cosmos/sdtm_v1.0/PredicateTermEnum#IS_RESULT_OF> ;
    cosmos_sdtm:subject "QSSTRESC" .

<https://w3id.org/cdisc/cosmos/dss/QS/EQ5D0202/QSSTRESN/relationship> a cosmos_sdtm:RelationShip ;
    cosmos_sdtm:linkingPhrase <https://www.cdisc.org/cosmos/sdtm_v1.0/LinkingPhraseEnum#is%20the%20result%20of%20the%20test%20in> ;
    cosmos_sdtm:object "QSTESTCD" ;
    cosmos_sdtm:predicateTerm <https://www.cdisc.org/cosmos/sdtm_v1.0/PredicateTermEnum#IS_RESULT_OF> ;
    cosmos_sdtm:subject "QSSTRESN" .

<https://w3id.org/cdisc/cosmos/dss/QS/EQ5D0202/QSTEST/assignedTerm> a cosmos_sdtm:AssignedTerm ;
    cosmos_sdtm:conceptId NCIT:C102068 ;
    cosmos_sdtm:value "EQ5D02-Self-Care" .

<https://w3id.org/cdisc/cosmos/dss/QS/EQ5D0202/QSTEST/relationship> a cosmos_sdtm:RelationShip ;
    cosmos_sdtm:linkingPhrase <https://www.cdisc.org/cosmos/sdtm_v1.0/LinkingPhraseEnum#decodes%20the%20value%20in> ;
    cosmos_sdtm:object "QSTESTCD" ;
    cosmos_sdtm:predicateTerm <https://www.cdisc.org/cosmos/sdtm_v1.0/PredicateTermEnum#DECODES> ;
    cosmos_sdtm:subject "QSTEST" .

<https://w3id.org/cdisc/cosmos/dss/QS/EQ5D0202/QSTESTCD/assignedTerm> a cosmos_sdtm:AssignedTerm ;
    cosmos_sdtm:conceptId NCIT:C102068 ;
    cosmos_sdtm:value "EQ5D0202" .

<https://w3id.org/cdisc/cosmos/dss/QS/EQ5D0202/QSTESTCD/relationship> a cosmos_sdtm:RelationShip ;
    cosmos_sdtm:linkingPhrase <https://www.cdisc.org/cosmos/sdtm_v1.0/LinkingPhraseEnum#is%20the%20code%20for%20the%20value%20in> ;
    cosmos_sdtm:object "QSTEST" ;
    cosmos_sdtm:predicateTerm <https://www.cdisc.org/cosmos/sdtm_v1.0/PredicateTermEnum#IS_DECODED_BY> ;
    cosmos_sdtm:subject "QSTESTCD" .

<https://w3id.org/cdisc/cosmos/dss/QS/EQ5D0203/QSCAT/assignedTerm> a cosmos_sdtm:AssignedTerm ;
    cosmos_sdtm:conceptId NCIT:C102117 ;
    cosmos_sdtm:value "EQ-5D-5L" .

<https://w3id.org/cdisc/cosmos/dss/QS/EQ5D0203/QSCAT/relationship> a cosmos_sdtm:RelationShip ;
    cosmos_sdtm:linkingPhrase <https://www.cdisc.org/cosmos/sdtm_v1.0/LinkingPhraseEnum#groups%20values%20in> ;
    cosmos_sdtm:object "QSTESTCD" ;
    cosmos_sdtm:predicateTerm <https://www.cdisc.org/cosmos/sdtm_v1.0/PredicateTermEnum#GROUPS> ;
    cosmos_sdtm:subject "QSCAT" .

<https://w3id.org/cdisc/cosmos/dss/QS/EQ5D0203/QSDTC/relationship> a cosmos_sdtm:RelationShip ;
    cosmos_sdtm:linkingPhrase <https://www.cdisc.org/cosmos/sdtm_v1.0/LinkingPhraseEnum#is%20the%20date%20of%20occurrence%20for> ;
    cosmos_sdtm:object "QSTESTCD" ;
    cosmos_sdtm:predicateTerm <https://www.cdisc.org/cosmos/sdtm_v1.0/PredicateTermEnum#IS_TIMING_FOR> ;
    cosmos_sdtm:subject "QSDTC" .

<https://w3id.org/cdisc/cosmos/dss/QS/EQ5D0203/QSEVINTX/assignedTerm> a cosmos_sdtm:AssignedTerm ;
    cosmos_sdtm:value "TODAY" .

<https://w3id.org/cdisc/cosmos/dss/QS/EQ5D0203/QSEVINTX/relationship> a cosmos_sdtm:RelationShip ;
    cosmos_sdtm:linkingPhrase <https://www.cdisc.org/cosmos/sdtm_v1.0/LinkingPhraseEnum#is%20the%20period%20of%20time%20to%20be%20considered%20when%20answering%20the%20question%20in> ;
    cosmos_sdtm:object "QSTESTCD" ;
    cosmos_sdtm:predicateTerm <https://www.cdisc.org/cosmos/sdtm_v1.0/PredicateTermEnum#IS_TIMING_FOR> ;
    cosmos_sdtm:subject "QSEVINTX" .

<https://w3id.org/cdisc/cosmos/dss/QS/EQ5D0203/QSORRES/relationship> a cosmos_sdtm:RelationShip ;
    cosmos_sdtm:linkingPhrase <https://www.cdisc.org/cosmos/sdtm_v1.0/LinkingPhraseEnum#is%20the%20result%20of%20the%20test%20in> ;
    cosmos_sdtm:object "QSTESTCD" ;
    cosmos_sdtm:predicateTerm <https://www.cdisc.org/cosmos/sdtm_v1.0/PredicateTermEnum#IS_RESULT_OF> ;
    cosmos_sdtm:subject "QSORRES" .

<https://w3id.org/cdisc/cosmos/dss/QS/EQ5D0203/QSSTRESC/relationship> a cosmos_sdtm:RelationShip ;
    cosmos_sdtm:linkingPhrase <https://www.cdisc.org/cosmos/sdtm_v1.0/LinkingPhraseEnum#is%20the%20result%20of%20the%20test%20in> ;
    cosmos_sdtm:object "QSTESTCD" ;
    cosmos_sdtm:predicateTerm <https://www.cdisc.org/cosmos/sdtm_v1.0/PredicateTermEnum#IS_RESULT_OF> ;
    cosmos_sdtm:subject "QSSTRESC" .

<https://w3id.org/cdisc/cosmos/dss/QS/EQ5D0203/QSSTRESN/relationship> a cosmos_sdtm:RelationShip ;
    cosmos_sdtm:linkingPhrase <https://www.cdisc.org/cosmos/sdtm_v1.0/LinkingPhraseEnum#is%20the%20result%20of%20the%20test%20in> ;
    cosmos_sdtm:object "QSTESTCD" ;
    cosmos_sdtm:predicateTerm <https://www.cdisc.org/cosmos/sdtm_v1.0/PredicateTermEnum#IS_RESULT_OF> ;
    cosmos_sdtm:subject "QSSTRESN" .

<https://w3id.org/cdisc/cosmos/dss/QS/EQ5D0203/QSTEST/assignedTerm> a cosmos_sdtm:AssignedTerm ;
    cosmos_sdtm:conceptId NCIT:C102069 ;
    cosmos_sdtm:value "EQ5D02-Usual Activities" .

<https://w3id.org/cdisc/cosmos/dss/QS/EQ5D0203/QSTEST/relationship> a cosmos_sdtm:RelationShip ;
    cosmos_sdtm:linkingPhrase <https://www.cdisc.org/cosmos/sdtm_v1.0/LinkingPhraseEnum#decodes%20the%20value%20in> ;
    cosmos_sdtm:object "QSTESTCD" ;
    cosmos_sdtm:predicateTerm <https://www.cdisc.org/cosmos/sdtm_v1.0/PredicateTermEnum#DECODES> ;
    cosmos_sdtm:subject "QSTEST" .

<https://w3id.org/cdisc/cosmos/dss/QS/EQ5D0203/QSTESTCD/assignedTerm> a cosmos_sdtm:AssignedTerm ;
    cosmos_sdtm:conceptId NCIT:C102069 ;
    cosmos_sdtm:value "EQ5D0203" .

<https://w3id.org/cdisc/cosmos/dss/QS/EQ5D0203/QSTESTCD/relationship> a cosmos_sdtm:RelationShip ;
    cosmos_sdtm:linkingPhrase <https://www.cdisc.org/cosmos/sdtm_v1.0/LinkingPhraseEnum#is%20the%20code%20for%20the%20value%20in> ;
    cosmos_sdtm:object "QSTEST" ;
    cosmos_sdtm:predicateTerm <https://www.cdisc.org/cosmos/sdtm_v1.0/PredicateTermEnum#IS_DECODED_BY> ;
    cosmos_sdtm:subject "QSTESTCD" .

<https://w3id.org/cdisc/cosmos/dss/QS/EQ5D0204/QSCAT/assignedTerm> a cosmos_sdtm:AssignedTerm ;
    cosmos_sdtm:conceptId NCIT:C102117 ;
    cosmos_sdtm:value "EQ-5D-5L" .

<https://w3id.org/cdisc/cosmos/dss/QS/EQ5D0204/QSCAT/relationship> a cosmos_sdtm:RelationShip ;
    cosmos_sdtm:linkingPhrase <https://www.cdisc.org/cosmos/sdtm_v1.0/LinkingPhraseEnum#groups%20values%20in> ;
    cosmos_sdtm:object "QSTESTCD" ;
    cosmos_sdtm:predicateTerm <https://www.cdisc.org/cosmos/sdtm_v1.0/PredicateTermEnum#GROUPS> ;
    cosmos_sdtm:subject "QSCAT" .

<https://w3id.org/cdisc/cosmos/dss/QS/EQ5D0204/QSDTC/relationship> a cosmos_sdtm:RelationShip ;
    cosmos_sdtm:linkingPhrase <https://www.cdisc.org/cosmos/sdtm_v1.0/LinkingPhraseEnum#is%20the%20date%20of%20occurrence%20for> ;
    cosmos_sdtm:object "QSTESTCD" ;
    cosmos_sdtm:predicateTerm <https://www.cdisc.org/cosmos/sdtm_v1.0/PredicateTermEnum#IS_TIMING_FOR> ;
    cosmos_sdtm:subject "QSDTC" .

<https://w3id.org/cdisc/cosmos/dss/QS/EQ5D0204/QSEVINTX/assignedTerm> a cosmos_sdtm:AssignedTerm ;
    cosmos_sdtm:value "TODAY" .

<https://w3id.org/cdisc/cosmos/dss/QS/EQ5D0204/QSEVINTX/relationship> a cosmos_sdtm:RelationShip ;
    cosmos_sdtm:linkingPhrase <https://www.cdisc.org/cosmos/sdtm_v1.0/LinkingPhraseEnum#is%20the%20period%20of%20time%20to%20be%20considered%20when%20answering%20the%20question%20in> ;
    cosmos_sdtm:object "QSTESTCD" ;
    cosmos_sdtm:predicateTerm <https://www.cdisc.org/cosmos/sdtm_v1.0/PredicateTermEnum#IS_TIMING_FOR> ;
    cosmos_sdtm:subject "QSEVINTX" .

<https://w3id.org/cdisc/cosmos/dss/QS/EQ5D0204/QSORRES/relationship> a cosmos_sdtm:RelationShip ;
    cosmos_sdtm:linkingPhrase <https://www.cdisc.org/cosmos/sdtm_v1.0/LinkingPhraseEnum#is%20the%20result%20of%20the%20test%20in> ;
    cosmos_sdtm:object "QSTESTCD" ;
    cosmos_sdtm:predicateTerm <https://www.cdisc.org/cosmos/sdtm_v1.0/PredicateTermEnum#IS_RESULT_OF> ;
    cosmos_sdtm:subject "QSORRES" .

<https://w3id.org/cdisc/cosmos/dss/QS/EQ5D0204/QSSTRESC/relationship> a cosmos_sdtm:RelationShip ;
    cosmos_sdtm:linkingPhrase <https://www.cdisc.org/cosmos/sdtm_v1.0/LinkingPhraseEnum#is%20the%20result%20of%20the%20test%20in> ;
    cosmos_sdtm:object "QSTESTCD" ;
    cosmos_sdtm:predicateTerm <https://www.cdisc.org/cosmos/sdtm_v1.0/PredicateTermEnum#IS_RESULT_OF> ;
    cosmos_sdtm:subject "QSSTRESC" .

<https://w3id.org/cdisc/cosmos/dss/QS/EQ5D0204/QSSTRESN/relationship> a cosmos_sdtm:RelationShip ;
    cosmos_sdtm:linkingPhrase <https://www.cdisc.org/cosmos/sdtm_v1.0/LinkingPhraseEnum#is%20the%20result%20of%20the%20test%20in> ;
    cosmos_sdtm:object "QSTESTCD" ;
    cosmos_sdtm:predicateTerm <https://www.cdisc.org/cosmos/sdtm_v1.0/PredicateTermEnum#IS_RESULT_OF> ;
    cosmos_sdtm:subject "QSSTRESN" .

<https://w3id.org/cdisc/cosmos/dss/QS/EQ5D0204/QSTEST/assignedTerm> a cosmos_sdtm:AssignedTerm ;
    cosmos_sdtm:conceptId NCIT:C102070 ;
    cosmos_sdtm:value "EQ5D02-Pain/Discomfort" .

<https://w3id.org/cdisc/cosmos/dss/QS/EQ5D0204/QSTEST/relationship> a cosmos_sdtm:RelationShip ;
    cosmos_sdtm:linkingPhrase <https://www.cdisc.org/cosmos/sdtm_v1.0/LinkingPhraseEnum#decodes%20the%20value%20in> ;
    cosmos_sdtm:object "QSTESTCD" ;
    cosmos_sdtm:predicateTerm <https://www.cdisc.org/cosmos/sdtm_v1.0/PredicateTermEnum#DECODES> ;
    cosmos_sdtm:subject "QSTEST" .

<https://w3id.org/cdisc/cosmos/dss/QS/EQ5D0204/QSTESTCD/assignedTerm> a cosmos_sdtm:AssignedTerm ;
    cosmos_sdtm:conceptId NCIT:C102070 ;
    cosmos_sdtm:value "EQ5D0204" .

<https://w3id.org/cdisc/cosmos/dss/QS/EQ5D0204/QSTESTCD/relationship> a cosmos_sdtm:RelationShip ;
    cosmos_sdtm:linkingPhrase <https://www.cdisc.org/cosmos/sdtm_v1.0/LinkingPhraseEnum#is%20the%20code%20for%20the%20value%20in> ;
    cosmos_sdtm:object "QSTEST" ;
    cosmos_sdtm:predicateTerm <https://www.cdisc.org/cosmos/sdtm_v1.0/PredicateTermEnum#IS_DECODED_BY> ;
    cosmos_sdtm:subject "QSTESTCD" .

<https://w3id.org/cdisc/cosmos/dss/QS/EQ5D0205/QSCAT/assignedTerm> a cosmos_sdtm:AssignedTerm ;
    cosmos_sdtm:conceptId NCIT:C102117 ;
    cosmos_sdtm:value "EQ-5D-5L" .

<https://w3id.org/cdisc/cosmos/dss/QS/EQ5D0205/QSCAT/relationship> a cosmos_sdtm:RelationShip ;
    cosmos_sdtm:linkingPhrase <https://www.cdisc.org/cosmos/sdtm_v1.0/LinkingPhraseEnum#groups%20values%20in> ;
    cosmos_sdtm:object "QSTESTCD" ;
    cosmos_sdtm:predicateTerm <https://www.cdisc.org/cosmos/sdtm_v1.0/PredicateTermEnum#GROUPS> ;
    cosmos_sdtm:subject "QSCAT" .

<https://w3id.org/cdisc/cosmos/dss/QS/EQ5D0205/QSDTC/relationship> a cosmos_sdtm:RelationShip ;
    cosmos_sdtm:linkingPhrase <https://www.cdisc.org/cosmos/sdtm_v1.0/LinkingPhraseEnum#is%20the%20date%20of%20occurrence%20for> ;
    cosmos_sdtm:object "QSTESTCD" ;
    cosmos_sdtm:predicateTerm <https://www.cdisc.org/cosmos/sdtm_v1.0/PredicateTermEnum#IS_TIMING_FOR> ;
    cosmos_sdtm:subject "QSDTC" .

<https://w3id.org/cdisc/cosmos/dss/QS/EQ5D0205/QSEVINTX/assignedTerm> a cosmos_sdtm:AssignedTerm ;
    cosmos_sdtm:value "TODAY" .

<https://w3id.org/cdisc/cosmos/dss/QS/EQ5D0205/QSEVINTX/relationship> a cosmos_sdtm:RelationShip ;
    cosmos_sdtm:linkingPhrase <https://www.cdisc.org/cosmos/sdtm_v1.0/LinkingPhraseEnum#is%20the%20period%20of%20time%20to%20be%20considered%20when%20answering%20the%20question%20in> ;
    cosmos_sdtm:object "QSTESTCD" ;
    cosmos_sdtm:predicateTerm <https://www.cdisc.org/cosmos/sdtm_v1.0/PredicateTermEnum#IS_TIMING_FOR> ;
    cosmos_sdtm:subject "QSEVINTX" .

<https://w3id.org/cdisc/cosmos/dss/QS/EQ5D0205/QSORRES/relationship> a cosmos_sdtm:RelationShip ;
    cosmos_sdtm:linkingPhrase <https://www.cdisc.org/cosmos/sdtm_v1.0/LinkingPhraseEnum#is%20the%20result%20of%20the%20test%20in> ;
    cosmos_sdtm:object "QSTESTCD" ;
    cosmos_sdtm:predicateTerm <https://www.cdisc.org/cosmos/sdtm_v1.0/PredicateTermEnum#IS_RESULT_OF> ;
    cosmos_sdtm:subject "QSORRES" .

<https://w3id.org/cdisc/cosmos/dss/QS/EQ5D0205/QSSTRESC/relationship> a cosmos_sdtm:RelationShip ;
    cosmos_sdtm:linkingPhrase <https://www.cdisc.org/cosmos/sdtm_v1.0/LinkingPhraseEnum#is%20the%20result%20of%20the%20test%20in> ;
    cosmos_sdtm:object "QSTESTCD" ;
    cosmos_sdtm:predicateTerm <https://www.cdisc.org/cosmos/sdtm_v1.0/PredicateTermEnum#IS_RESULT_OF> ;
    cosmos_sdtm:subject "QSSTRESC" .

<https://w3id.org/cdisc/cosmos/dss/QS/EQ5D0205/QSSTRESN/relationship> a cosmos_sdtm:RelationShip ;
    cosmos_sdtm:linkingPhrase <https://www.cdisc.org/cosmos/sdtm_v1.0/LinkingPhraseEnum#is%20the%20result%20of%20the%20test%20in> ;
    cosmos_sdtm:object "QSTESTCD" ;
    cosmos_sdtm:predicateTerm <https://www.cdisc.org/cosmos/sdtm_v1.0/PredicateTermEnum#IS_RESULT_OF> ;
    cosmos_sdtm:subject "QSSTRESN" .

<https://w3id.org/cdisc/cosmos/dss/QS/EQ5D0205/QSTEST/assignedTerm> a cosmos_sdtm:AssignedTerm ;
    cosmos_sdtm:conceptId NCIT:C102071 ;
    cosmos_sdtm:value "EQ5D02-Anxiety/Depression" .

<https://w3id.org/cdisc/cosmos/dss/QS/EQ5D0205/QSTEST/relationship> a cosmos_sdtm:RelationShip ;
    cosmos_sdtm:linkingPhrase <https://www.cdisc.org/cosmos/sdtm_v1.0/LinkingPhraseEnum#decodes%20the%20value%20in> ;
    cosmos_sdtm:object "QSTESTCD" ;
    cosmos_sdtm:predicateTerm <https://www.cdisc.org/cosmos/sdtm_v1.0/PredicateTermEnum#DECODES> ;
    cosmos_sdtm:subject "QSTEST" .

<https://w3id.org/cdisc/cosmos/dss/QS/EQ5D0205/QSTESTCD/assignedTerm> a cosmos_sdtm:AssignedTerm ;
    cosmos_sdtm:conceptId NCIT:C102071 ;
    cosmos_sdtm:value "EQ5D0205" .

<https://w3id.org/cdisc/cosmos/dss/QS/EQ5D0205/QSTESTCD/relationship> a cosmos_sdtm:RelationShip ;
    cosmos_sdtm:linkingPhrase <https://www.cdisc.org/cosmos/sdtm_v1.0/LinkingPhraseEnum#is%20the%20code%20for%20the%20value%20in> ;
    cosmos_sdtm:object "QSTEST" ;
    cosmos_sdtm:predicateTerm <https://www.cdisc.org/cosmos/sdtm_v1.0/PredicateTermEnum#IS_DECODED_BY> ;
    cosmos_sdtm:subject "QSTESTCD" .

<https://w3id.org/cdisc/cosmos/dss/QS/EQ5D0206/QSANTXHI/assignedTerm> a cosmos_sdtm:AssignedTerm ;
    cosmos_sdtm:value "The best health you can imagine" .

<https://w3id.org/cdisc/cosmos/dss/QS/EQ5D0206/QSANTXHI/relationship> a cosmos_sdtm:RelationShip ;
    cosmos_sdtm:linkingPhrase <https://www.cdisc.org/cosmos/sdtm_v1.0/LinkingPhraseEnum#is%20a%20reference%20range%20value%20for> ;
    cosmos_sdtm:object "QSTESTCD" ;
    cosmos_sdtm:predicateTerm <https://www.cdisc.org/cosmos/sdtm_v1.0/PredicateTermEnum#IS_REFERENCE_VALUE_FOR> ;
    cosmos_sdtm:subject "QSANTXHI" .

<https://w3id.org/cdisc/cosmos/dss/QS/EQ5D0206/QSANTXLO/assignedTerm> a cosmos_sdtm:AssignedTerm ;
    cosmos_sdtm:value "The worst health you can imagine" .

<https://w3id.org/cdisc/cosmos/dss/QS/EQ5D0206/QSANTXLO/relationship> a cosmos_sdtm:RelationShip ;
    cosmos_sdtm:linkingPhrase <https://www.cdisc.org/cosmos/sdtm_v1.0/LinkingPhraseEnum#is%20a%20reference%20range%20value%20for> ;
    cosmos_sdtm:object "QSTESTCD" ;
    cosmos_sdtm:predicateTerm <https://www.cdisc.org/cosmos/sdtm_v1.0/PredicateTermEnum#IS_REFERENCE_VALUE_FOR> ;
    cosmos_sdtm:subject "QSANTXLO" .

<https://w3id.org/cdisc/cosmos/dss/QS/EQ5D0206/QSANVLHI/assignedTerm> a cosmos_sdtm:AssignedTerm ;
    cosmos_sdtm:value "100" .

<https://w3id.org/cdisc/cosmos/dss/QS/EQ5D0206/QSANVLHI/relationship> a cosmos_sdtm:RelationShip ;
    cosmos_sdtm:linkingPhrase <https://www.cdisc.org/cosmos/sdtm_v1.0/LinkingPhraseEnum#is%20a%20reference%20range%20value%20for> ;
    cosmos_sdtm:object "QSTESTCD" ;
    cosmos_sdtm:predicateTerm <https://www.cdisc.org/cosmos/sdtm_v1.0/PredicateTermEnum#IS_REFERENCE_VALUE_FOR> ;
    cosmos_sdtm:subject "QSANVLHI" .

<https://w3id.org/cdisc/cosmos/dss/QS/EQ5D0206/QSANVLLO/assignedTerm> a cosmos_sdtm:AssignedTerm ;
    cosmos_sdtm:value "0" .

<https://w3id.org/cdisc/cosmos/dss/QS/EQ5D0206/QSANVLLO/relationship> a cosmos_sdtm:RelationShip ;
    cosmos_sdtm:linkingPhrase <https://www.cdisc.org/cosmos/sdtm_v1.0/LinkingPhraseEnum#is%20a%20reference%20range%20value%20for> ;
    cosmos_sdtm:object "QSTESTCD" ;
    cosmos_sdtm:predicateTerm <https://www.cdisc.org/cosmos/sdtm_v1.0/PredicateTermEnum#IS_REFERENCE_VALUE_FOR> ;
    cosmos_sdtm:subject "QSANVLLO" .

<https://w3id.org/cdisc/cosmos/dss/QS/EQ5D0206/QSCAT/assignedTerm> a cosmos_sdtm:AssignedTerm ;
    cosmos_sdtm:conceptId NCIT:C102117 ;
    cosmos_sdtm:value "EQ-5D-5L" .

<https://w3id.org/cdisc/cosmos/dss/QS/EQ5D0206/QSCAT/relationship> a cosmos_sdtm:RelationShip ;
    cosmos_sdtm:linkingPhrase <https://www.cdisc.org/cosmos/sdtm_v1.0/LinkingPhraseEnum#groups%20values%20in> ;
    cosmos_sdtm:object "QSTESTCD" ;
    cosmos_sdtm:predicateTerm <https://www.cdisc.org/cosmos/sdtm_v1.0/PredicateTermEnum#GROUPS> ;
    cosmos_sdtm:subject "QSCAT" .

<https://w3id.org/cdisc/cosmos/dss/QS/EQ5D0206/QSDTC/relationship> a cosmos_sdtm:RelationShip ;
    cosmos_sdtm:linkingPhrase <https://www.cdisc.org/cosmos/sdtm_v1.0/LinkingPhraseEnum#is%20the%20date%20of%20occurrence%20for> ;
    cosmos_sdtm:object "QSTESTCD" ;
    cosmos_sdtm:predicateTerm <https://www.cdisc.org/cosmos/sdtm_v1.0/PredicateTermEnum#IS_TIMING_FOR> ;
    cosmos_sdtm:subject "QSDTC" .

<https://w3id.org/cdisc/cosmos/dss/QS/EQ5D0206/QSEVINTX/assignedTerm> a cosmos_sdtm:AssignedTerm ;
    cosmos_sdtm:value "TODAY" .

<https://w3id.org/cdisc/cosmos/dss/QS/EQ5D0206/QSEVINTX/relationship> a cosmos_sdtm:RelationShip ;
    cosmos_sdtm:linkingPhrase <https://www.cdisc.org/cosmos/sdtm_v1.0/LinkingPhraseEnum#is%20the%20period%20of%20time%20to%20be%20considered%20when%20answering%20the%20question%20in> ;
    cosmos_sdtm:object "QSTESTCD" ;
    cosmos_sdtm:predicateTerm <https://www.cdisc.org/cosmos/sdtm_v1.0/PredicateTermEnum#IS_TIMING_FOR> ;
    cosmos_sdtm:subject "QSEVINTX" .

<https://w3id.org/cdisc/cosmos/dss/QS/EQ5D0206/QSMETHOD/assignedTerm> a cosmos_sdtm:AssignedTerm ;
    cosmos_sdtm:conceptId NCIT:C179788 ;
    cosmos_sdtm:value "VISUAL ANALOG SCALE (1-100)" .

<https://w3id.org/cdisc/cosmos/dss/QS/EQ5D0206/QSMETHOD/relationship> a cosmos_sdtm:RelationShip ;
    cosmos_sdtm:linkingPhrase <https://www.cdisc.org/cosmos/sdtm_v1.0/LinkingPhraseEnum#is%20the%20method%20for%20the%20test%20in> ;
    cosmos_sdtm:object "QSTESTCD" ;
    cosmos_sdtm:predicateTerm <https://www.cdisc.org/cosmos/sdtm_v1.0/PredicateTermEnum#SPECIFIES> ;
    cosmos_sdtm:subject "QSMETHOD" .

<https://w3id.org/cdisc/cosmos/dss/QS/EQ5D0206/QSORRES/relationship> a cosmos_sdtm:RelationShip ;
    cosmos_sdtm:linkingPhrase <https://www.cdisc.org/cosmos/sdtm_v1.0/LinkingPhraseEnum#is%20the%20result%20of%20the%20test%20in> ;
    cosmos_sdtm:object "QSTESTCD" ;
    cosmos_sdtm:predicateTerm <https://www.cdisc.org/cosmos/sdtm_v1.0/PredicateTermEnum#IS_RESULT_OF> ;
    cosmos_sdtm:subject "QSORRES" .

<https://w3id.org/cdisc/cosmos/dss/QS/EQ5D0206/QSSTRESC/relationship> a cosmos_sdtm:RelationShip ;
    cosmos_sdtm:linkingPhrase <https://www.cdisc.org/cosmos/sdtm_v1.0/LinkingPhraseEnum#is%20the%20result%20of%20the%20test%20in> ;
    cosmos_sdtm:object "QSTESTCD" ;
    cosmos_sdtm:predicateTerm <https://www.cdisc.org/cosmos/sdtm_v1.0/PredicateTermEnum#IS_RESULT_OF> ;
    cosmos_sdtm:subject "QSSTRESC" .

<https://w3id.org/cdisc/cosmos/dss/QS/EQ5D0206/QSSTRESN/relationship> a cosmos_sdtm:RelationShip ;
    cosmos_sdtm:linkingPhrase <https://www.cdisc.org/cosmos/sdtm_v1.0/LinkingPhraseEnum#is%20the%20result%20of%20the%20test%20in> ;
    cosmos_sdtm:object "QSTESTCD" ;
    cosmos_sdtm:predicateTerm <https://www.cdisc.org/cosmos/sdtm_v1.0/PredicateTermEnum#IS_RESULT_OF> ;
    cosmos_sdtm:subject "QSSTRESN" .

<https://w3id.org/cdisc/cosmos/dss/QS/EQ5D0206/QSTEST/assignedTerm> a cosmos_sdtm:AssignedTerm ;
    cosmos_sdtm:conceptId NCIT:C102072 ;
    cosmos_sdtm:value "EQ5D02-EQ VAS Score" .

<https://w3id.org/cdisc/cosmos/dss/QS/EQ5D0206/QSTEST/relationship> a cosmos_sdtm:RelationShip ;
    cosmos_sdtm:linkingPhrase <https://www.cdisc.org/cosmos/sdtm_v1.0/LinkingPhraseEnum#decodes%20the%20value%20in> ;
    cosmos_sdtm:object "QSTESTCD" ;
    cosmos_sdtm:predicateTerm <https://www.cdisc.org/cosmos/sdtm_v1.0/PredicateTermEnum#DECODES> ;
    cosmos_sdtm:subject "QSTEST" .

<https://w3id.org/cdisc/cosmos/dss/QS/EQ5D0206/QSTESTCD/assignedTerm> a cosmos_sdtm:AssignedTerm ;
    cosmos_sdtm:conceptId NCIT:C102072 ;
    cosmos_sdtm:value "EQ5D0206" .

<https://w3id.org/cdisc/cosmos/dss/QS/EQ5D0206/QSTESTCD/relationship> a cosmos_sdtm:RelationShip ;
    cosmos_sdtm:linkingPhrase <https://www.cdisc.org/cosmos/sdtm_v1.0/LinkingPhraseEnum#is%20the%20code%20for%20the%20value%20in> ;
    cosmos_sdtm:object "QSTEST" ;
    cosmos_sdtm:predicateTerm <https://www.cdisc.org/cosmos/sdtm_v1.0/PredicateTermEnum#IS_DECODED_BY> ;
    cosmos_sdtm:subject "QSTESTCD" .

<https://w3id.org/cdisc/cosmos/dss/QS/PATCHSURVEYACCEPTABILITY/QSCAT/assignedTerm> a cosmos_sdtm:AssignedTerm ;
    cosmos_sdtm:value "TTS ACCEPTABILITY SURVEY - LZZT" .

<https://w3id.org/cdisc/cosmos/dss/QS/PATCHSURVEYACCEPTABILITY/QSCAT/relationship> a cosmos_sdtm:RelationShip ;
    cosmos_sdtm:linkingPhrase <https://www.cdisc.org/cosmos/sdtm_v1.0/LinkingPhraseEnum#groups%20values%20in> ;
    cosmos_sdtm:object "QSTESTCD" ;
    cosmos_sdtm:predicateTerm <https://www.cdisc.org/cosmos/sdtm_v1.0/PredicateTermEnum#GROUPS> ;
    cosmos_sdtm:subject "QSCAT" .

<https://w3id.org/cdisc/cosmos/dss/QS/PATCHSURVEYACCEPTABILITY/QSDTC/relationship> a cosmos_sdtm:RelationShip ;
    cosmos_sdtm:linkingPhrase <https://www.cdisc.org/cosmos/sdtm_v1.0/LinkingPhraseEnum#is%20the%20date%20of%20occurrence%20for> ;
    cosmos_sdtm:object "QSTESTCD" ;
    cosmos_sdtm:predicateTerm <https://www.cdisc.org/cosmos/sdtm_v1.0/PredicateTermEnum#IS_TIMING_FOR> ;
    cosmos_sdtm:subject "QSDTC" .

<https://w3id.org/cdisc/cosmos/dss/QS/PATCHSURVEYACCEPTABILITY/QSEVAL/assignedTerm> a cosmos_sdtm:AssignedTerm ;
    cosmos_sdtm:conceptId NCIT:C17445 ;
    cosmos_sdtm:value "CAREGIVER" .

<https://w3id.org/cdisc/cosmos/dss/QS/PATCHSURVEYACCEPTABILITY/QSEVAL/relationship> a cosmos_sdtm:RelationShip ;
    cosmos_sdtm:linkingPhrase <https://www.cdisc.org/cosmos/sdtm_v1.0/LinkingPhraseEnum#is%20the%20role%20of%20the%20assessor%20who%20performed%20the%20test%20in> ;
    cosmos_sdtm:object "QSTEST" ;
    cosmos_sdtm:predicateTerm <https://www.cdisc.org/cosmos/sdtm_v1.0/PredicateTermEnum#PERFORMS> ;
    cosmos_sdtm:subject "QSEVAL" .

<https://w3id.org/cdisc/cosmos/dss/QS/PATCHSURVEYACCEPTABILITY/QSORRES/relationship> a cosmos_sdtm:RelationShip ;
    cosmos_sdtm:linkingPhrase <https://www.cdisc.org/cosmos/sdtm_v1.0/LinkingPhraseEnum#is%20the%20result%20of%20the%20test%20in> ;
    cosmos_sdtm:object "QSTESTCD" ;
    cosmos_sdtm:predicateTerm <https://www.cdisc.org/cosmos/sdtm_v1.0/PredicateTermEnum#IS_RESULT_OF> ;
    cosmos_sdtm:subject "QSORRES" .

<https://w3id.org/cdisc/cosmos/dss/QS/PATCHSURVEYACCEPTABILITY/QSSTRESC/relationship> a cosmos_sdtm:RelationShip ;
    cosmos_sdtm:linkingPhrase <https://www.cdisc.org/cosmos/sdtm_v1.0/LinkingPhraseEnum#is%20the%20result%20of%20the%20test%20in> ;
    cosmos_sdtm:object "QSTESTCD" ;
    cosmos_sdtm:predicateTerm <https://www.cdisc.org/cosmos/sdtm_v1.0/PredicateTermEnum#IS_RESULT_OF> ;
    cosmos_sdtm:subject "QSSTRESC" .

<https://w3id.org/cdisc/cosmos/dss/QS/PATCHSURVEYACCEPTABILITY/QSSTRESN/relationship> a cosmos_sdtm:RelationShip ;
    cosmos_sdtm:linkingPhrase <https://www.cdisc.org/cosmos/sdtm_v1.0/LinkingPhraseEnum#is%20the%20result%20of%20the%20test%20in> ;
    cosmos_sdtm:object "QSTESTCD" ;
    cosmos_sdtm:predicateTerm <https://www.cdisc.org/cosmos/sdtm_v1.0/PredicateTermEnum#IS_RESULT_OF> ;
    cosmos_sdtm:subject "QSSTRESN" .

<https://w3id.org/cdisc/cosmos/dss/QS/PATCHSURVEYACCEPTABILITY/QSTEST/assignedTerm> a cosmos_sdtm:AssignedTerm ;
    cosmos_sdtm:value "TTSACC04- Durability" .

<https://w3id.org/cdisc/cosmos/dss/QS/PATCHSURVEYACCEPTABILITY/QSTEST/relationship> a cosmos_sdtm:RelationShip ;
    cosmos_sdtm:linkingPhrase <https://www.cdisc.org/cosmos/sdtm_v1.0/LinkingPhraseEnum#decodes%20the%20value%20in> ;
    cosmos_sdtm:object "QSTESTCD" ;
    cosmos_sdtm:predicateTerm <https://www.cdisc.org/cosmos/sdtm_v1.0/PredicateTermEnum#DECODES> ;
    cosmos_sdtm:subject "QSTEST" .

<https://w3id.org/cdisc/cosmos/dss/QS/PATCHSURVEYACCEPTABILITY/QSTESTCD/assignedTerm> a cosmos_sdtm:AssignedTerm ;
    cosmos_sdtm:value "TTSACC04" .

<https://w3id.org/cdisc/cosmos/dss/QS/PATCHSURVEYACCEPTABILITY/QSTESTCD/relationship> a cosmos_sdtm:RelationShip ;
    cosmos_sdtm:linkingPhrase <https://www.cdisc.org/cosmos/sdtm_v1.0/LinkingPhraseEnum#is%20the%20code%20for%20the%20value%20in> ;
    cosmos_sdtm:object "QSTEST" ;
    cosmos_sdtm:predicateTerm <https://www.cdisc.org/cosmos/sdtm_v1.0/PredicateTermEnum#IS_DECODED_BY> ;
    cosmos_sdtm:subject "QSTESTCD" .

<https://w3id.org/cdisc/cosmos/dss/QS/PATCHSURVEYAPPEARANCE/QSCAT/assignedTerm> a cosmos_sdtm:AssignedTerm ;
    cosmos_sdtm:value "TTS ACCEPTABILITY SURVEY - LZZT" .

<https://w3id.org/cdisc/cosmos/dss/QS/PATCHSURVEYAPPEARANCE/QSCAT/relationship> a cosmos_sdtm:RelationShip ;
    cosmos_sdtm:linkingPhrase <https://www.cdisc.org/cosmos/sdtm_v1.0/LinkingPhraseEnum#groups%20values%20in> ;
    cosmos_sdtm:object "QSTESTCD" ;
    cosmos_sdtm:predicateTerm <https://www.cdisc.org/cosmos/sdtm_v1.0/PredicateTermEnum#GROUPS> ;
    cosmos_sdtm:subject "QSCAT" .

<https://w3id.org/cdisc/cosmos/dss/QS/PATCHSURVEYAPPEARANCE/QSDTC/relationship> a cosmos_sdtm:RelationShip ;
    cosmos_sdtm:linkingPhrase <https://www.cdisc.org/cosmos/sdtm_v1.0/LinkingPhraseEnum#is%20the%20date%20of%20occurrence%20for> ;
    cosmos_sdtm:object "QSTESTCD" ;
    cosmos_sdtm:predicateTerm <https://www.cdisc.org/cosmos/sdtm_v1.0/PredicateTermEnum#IS_TIMING_FOR> ;
    cosmos_sdtm:subject "QSDTC" .

<https://w3id.org/cdisc/cosmos/dss/QS/PATCHSURVEYAPPEARANCE/QSEVAL/assignedTerm> a cosmos_sdtm:AssignedTerm ;
    cosmos_sdtm:conceptId NCIT:C17445 ;
    cosmos_sdtm:value "CAREGIVER" .

<https://w3id.org/cdisc/cosmos/dss/QS/PATCHSURVEYAPPEARANCE/QSEVAL/relationship> a cosmos_sdtm:RelationShip ;
    cosmos_sdtm:linkingPhrase <https://www.cdisc.org/cosmos/sdtm_v1.0/LinkingPhraseEnum#is%20the%20role%20of%20the%20assessor%20who%20performed%20the%20test%20in> ;
    cosmos_sdtm:object "QSTEST" ;
    cosmos_sdtm:predicateTerm <https://www.cdisc.org/cosmos/sdtm_v1.0/PredicateTermEnum#PERFORMS> ;
    cosmos_sdtm:subject "QSEVAL" .

<https://w3id.org/cdisc/cosmos/dss/QS/PATCHSURVEYAPPEARANCE/QSORRES/relationship> a cosmos_sdtm:RelationShip ;
    cosmos_sdtm:linkingPhrase <https://www.cdisc.org/cosmos/sdtm_v1.0/LinkingPhraseEnum#is%20the%20result%20of%20the%20test%20in> ;
    cosmos_sdtm:object "QSTESTCD" ;
    cosmos_sdtm:predicateTerm <https://www.cdisc.org/cosmos/sdtm_v1.0/PredicateTermEnum#IS_RESULT_OF> ;
    cosmos_sdtm:subject "QSORRES" .

<https://w3id.org/cdisc/cosmos/dss/QS/PATCHSURVEYAPPEARANCE/QSSTRESC/relationship> a cosmos_sdtm:RelationShip ;
    cosmos_sdtm:linkingPhrase <https://www.cdisc.org/cosmos/sdtm_v1.0/LinkingPhraseEnum#is%20the%20result%20of%20the%20test%20in> ;
    cosmos_sdtm:object "QSTESTCD" ;
    cosmos_sdtm:predicateTerm <https://www.cdisc.org/cosmos/sdtm_v1.0/PredicateTermEnum#IS_RESULT_OF> ;
    cosmos_sdtm:subject "QSSTRESC" .

<https://w3id.org/cdisc/cosmos/dss/QS/PATCHSURVEYAPPEARANCE/QSSTRESN/relationship> a cosmos_sdtm:RelationShip ;
    cosmos_sdtm:linkingPhrase <https://www.cdisc.org/cosmos/sdtm_v1.0/LinkingPhraseEnum#is%20the%20result%20of%20the%20test%20in> ;
    cosmos_sdtm:object "QSTESTCD" ;
    cosmos_sdtm:predicateTerm <https://www.cdisc.org/cosmos/sdtm_v1.0/PredicateTermEnum#IS_RESULT_OF> ;
    cosmos_sdtm:subject "QSSTRESN" .

<https://w3id.org/cdisc/cosmos/dss/QS/PATCHSURVEYAPPEARANCE/QSTEST/assignedTerm> a cosmos_sdtm:AssignedTerm ;
    cosmos_sdtm:value "TTSACC01 - Patch Appearance" .

<https://w3id.org/cdisc/cosmos/dss/QS/PATCHSURVEYAPPEARANCE/QSTEST/relationship> a cosmos_sdtm:RelationShip ;
    cosmos_sdtm:linkingPhrase <https://www.cdisc.org/cosmos/sdtm_v1.0/LinkingPhraseEnum#decodes%20the%20value%20in> ;
    cosmos_sdtm:object "QSTESTCD" ;
    cosmos_sdtm:predicateTerm <https://www.cdisc.org/cosmos/sdtm_v1.0/PredicateTermEnum#DECODES> ;
    cosmos_sdtm:subject "QSTEST" .

<https://w3id.org/cdisc/cosmos/dss/QS/PATCHSURVEYAPPEARANCE/QSTESTCD/assignedTerm> a cosmos_sdtm:AssignedTerm ;
    cosmos_sdtm:value "TTSACC01" .

<https://w3id.org/cdisc/cosmos/dss/QS/PATCHSURVEYAPPEARANCE/QSTESTCD/relationship> a cosmos_sdtm:RelationShip ;
    cosmos_sdtm:linkingPhrase <https://www.cdisc.org/cosmos/sdtm_v1.0/LinkingPhraseEnum#is%20the%20code%20for%20the%20value%20in> ;
    cosmos_sdtm:object "QSTEST" ;
    cosmos_sdtm:predicateTerm <https://www.cdisc.org/cosmos/sdtm_v1.0/PredicateTermEnum#IS_DECODED_BY> ;
    cosmos_sdtm:subject "QSTESTCD" .

<https://w3id.org/cdisc/cosmos/dss/QS/PATCHSURVEYDURABILITY/QSCAT/assignedTerm> a cosmos_sdtm:AssignedTerm ;
    cosmos_sdtm:value "TTS ACCEPTABILITY SURVEY - LZZT" .

<https://w3id.org/cdisc/cosmos/dss/QS/PATCHSURVEYDURABILITY/QSCAT/relationship> a cosmos_sdtm:RelationShip ;
    cosmos_sdtm:linkingPhrase <https://www.cdisc.org/cosmos/sdtm_v1.0/LinkingPhraseEnum#groups%20values%20in> ;
    cosmos_sdtm:object "QSTESTCD" ;
    cosmos_sdtm:predicateTerm <https://www.cdisc.org/cosmos/sdtm_v1.0/PredicateTermEnum#GROUPS> ;
    cosmos_sdtm:subject "QSCAT" .

<https://w3id.org/cdisc/cosmos/dss/QS/PATCHSURVEYDURABILITY/QSDTC/relationship> a cosmos_sdtm:RelationShip ;
    cosmos_sdtm:linkingPhrase <https://www.cdisc.org/cosmos/sdtm_v1.0/LinkingPhraseEnum#is%20the%20date%20of%20occurrence%20for> ;
    cosmos_sdtm:object "QSTESTCD" ;
    cosmos_sdtm:predicateTerm <https://www.cdisc.org/cosmos/sdtm_v1.0/PredicateTermEnum#IS_TIMING_FOR> ;
    cosmos_sdtm:subject "QSDTC" .

<https://w3id.org/cdisc/cosmos/dss/QS/PATCHSURVEYDURABILITY/QSEVAL/assignedTerm> a cosmos_sdtm:AssignedTerm ;
    cosmos_sdtm:conceptId NCIT:C17445 ;
    cosmos_sdtm:value "CAREGIVER" .

<https://w3id.org/cdisc/cosmos/dss/QS/PATCHSURVEYDURABILITY/QSEVAL/relationship> a cosmos_sdtm:RelationShip ;
    cosmos_sdtm:linkingPhrase <https://www.cdisc.org/cosmos/sdtm_v1.0/LinkingPhraseEnum#is%20the%20role%20of%20the%20assessor%20who%20performed%20the%20test%20in> ;
    cosmos_sdtm:object "QSTEST" ;
    cosmos_sdtm:predicateTerm <https://www.cdisc.org/cosmos/sdtm_v1.0/PredicateTermEnum#PERFORMS> ;
    cosmos_sdtm:subject "QSEVAL" .

<https://w3id.org/cdisc/cosmos/dss/QS/PATCHSURVEYDURABILITY/QSORRES/relationship> a cosmos_sdtm:RelationShip ;
    cosmos_sdtm:linkingPhrase <https://www.cdisc.org/cosmos/sdtm_v1.0/LinkingPhraseEnum#is%20the%20result%20of%20the%20test%20in> ;
    cosmos_sdtm:object "QSTESTCD" ;
    cosmos_sdtm:predicateTerm <https://www.cdisc.org/cosmos/sdtm_v1.0/PredicateTermEnum#IS_RESULT_OF> ;
    cosmos_sdtm:subject "QSORRES" .

<https://w3id.org/cdisc/cosmos/dss/QS/PATCHSURVEYDURABILITY/QSSTRESC/relationship> a cosmos_sdtm:RelationShip ;
    cosmos_sdtm:linkingPhrase <https://www.cdisc.org/cosmos/sdtm_v1.0/LinkingPhraseEnum#is%20the%20result%20of%20the%20test%20in> ;
    cosmos_sdtm:object "QSTESTCD" ;
    cosmos_sdtm:predicateTerm <https://www.cdisc.org/cosmos/sdtm_v1.0/PredicateTermEnum#IS_RESULT_OF> ;
    cosmos_sdtm:subject "QSSTRESC" .

<https://w3id.org/cdisc/cosmos/dss/QS/PATCHSURVEYDURABILITY/QSSTRESN/relationship> a cosmos_sdtm:RelationShip ;
    cosmos_sdtm:linkingPhrase <https://www.cdisc.org/cosmos/sdtm_v1.0/LinkingPhraseEnum#is%20the%20result%20of%20the%20test%20in> ;
    cosmos_sdtm:object "QSTESTCD" ;
    cosmos_sdtm:predicateTerm <https://www.cdisc.org/cosmos/sdtm_v1.0/PredicateTermEnum#IS_RESULT_OF> ;
    cosmos_sdtm:subject "QSSTRESN" .

<https://w3id.org/cdisc/cosmos/dss/QS/PATCHSURVEYDURABILITY/QSTEST/assignedTerm> a cosmos_sdtm:AssignedTerm ;
    cosmos_sdtm:value "TTSACC03 - Durability" .

<https://w3id.org/cdisc/cosmos/dss/QS/PATCHSURVEYDURABILITY/QSTEST/relationship> a cosmos_sdtm:RelationShip ;
    cosmos_sdtm:linkingPhrase <https://www.cdisc.org/cosmos/sdtm_v1.0/LinkingPhraseEnum#decodes%20the%20value%20in> ;
    cosmos_sdtm:object "QSTESTCD" ;
    cosmos_sdtm:predicateTerm <https://www.cdisc.org/cosmos/sdtm_v1.0/PredicateTermEnum#DECODES> ;
    cosmos_sdtm:subject "QSTEST" .

<https://w3id.org/cdisc/cosmos/dss/QS/PATCHSURVEYDURABILITY/QSTESTCD/assignedTerm> a cosmos_sdtm:AssignedTerm ;
    cosmos_sdtm:value "TTSACC03" .

<https://w3id.org/cdisc/cosmos/dss/QS/PATCHSURVEYDURABILITY/QSTESTCD/relationship> a cosmos_sdtm:RelationShip ;
    cosmos_sdtm:linkingPhrase <https://www.cdisc.org/cosmos/sdtm_v1.0/LinkingPhraseEnum#is%20the%20code%20for%20the%20value%20in> ;
    cosmos_sdtm:object "QSTEST" ;
    cosmos_sdtm:predicateTerm <https://www.cdisc.org/cosmos/sdtm_v1.0/PredicateTermEnum#IS_DECODED_BY> ;
    cosmos_sdtm:subject "QSTESTCD" .

<https://w3id.org/cdisc/cosmos/dss/QS/PATCHSURVEYSIZE/QSCAT/assignedTerm> a cosmos_sdtm:AssignedTerm ;
    cosmos_sdtm:value "TTS ACCEPTABILITY SURVEY - LZZT" .

<https://w3id.org/cdisc/cosmos/dss/QS/PATCHSURVEYSIZE/QSCAT/relationship> a cosmos_sdtm:RelationShip ;
    cosmos_sdtm:linkingPhrase <https://www.cdisc.org/cosmos/sdtm_v1.0/LinkingPhraseEnum#groups%20values%20in> ;
    cosmos_sdtm:object "QSTESTCD" ;
    cosmos_sdtm:predicateTerm <https://www.cdisc.org/cosmos/sdtm_v1.0/PredicateTermEnum#GROUPS> ;
    cosmos_sdtm:subject "QSCAT" .

<https://w3id.org/cdisc/cosmos/dss/QS/PATCHSURVEYSIZE/QSDTC/relationship> a cosmos_sdtm:RelationShip ;
    cosmos_sdtm:linkingPhrase <https://www.cdisc.org/cosmos/sdtm_v1.0/LinkingPhraseEnum#is%20the%20date%20of%20occurrence%20for> ;
    cosmos_sdtm:object "QSTESTCD" ;
    cosmos_sdtm:predicateTerm <https://www.cdisc.org/cosmos/sdtm_v1.0/PredicateTermEnum#IS_TIMING_FOR> ;
    cosmos_sdtm:subject "QSDTC" .

<https://w3id.org/cdisc/cosmos/dss/QS/PATCHSURVEYSIZE/QSEVAL/assignedTerm> a cosmos_sdtm:AssignedTerm ;
    cosmos_sdtm:conceptId NCIT:C17445 ;
    cosmos_sdtm:value "CAREGIVER" .

<https://w3id.org/cdisc/cosmos/dss/QS/PATCHSURVEYSIZE/QSEVAL/relationship> a cosmos_sdtm:RelationShip ;
    cosmos_sdtm:linkingPhrase <https://www.cdisc.org/cosmos/sdtm_v1.0/LinkingPhraseEnum#is%20the%20role%20of%20the%20assessor%20who%20performed%20the%20test%20in> ;
    cosmos_sdtm:object "QSTEST" ;
    cosmos_sdtm:predicateTerm <https://www.cdisc.org/cosmos/sdtm_v1.0/PredicateTermEnum#PERFORMS> ;
    cosmos_sdtm:subject "QSEVAL" .

<https://w3id.org/cdisc/cosmos/dss/QS/PATCHSURVEYSIZE/QSORRES/relationship> a cosmos_sdtm:RelationShip ;
    cosmos_sdtm:linkingPhrase <https://www.cdisc.org/cosmos/sdtm_v1.0/LinkingPhraseEnum#is%20the%20result%20of%20the%20test%20in> ;
    cosmos_sdtm:object "QSTESTCD" ;
    cosmos_sdtm:predicateTerm <https://www.cdisc.org/cosmos/sdtm_v1.0/PredicateTermEnum#IS_RESULT_OF> ;
    cosmos_sdtm:subject "QSORRES" .

<https://w3id.org/cdisc/cosmos/dss/QS/PATCHSURVEYSIZE/QSSTRESC/relationship> a cosmos_sdtm:RelationShip ;
    cosmos_sdtm:linkingPhrase <https://www.cdisc.org/cosmos/sdtm_v1.0/LinkingPhraseEnum#is%20the%20result%20of%20the%20test%20in> ;
    cosmos_sdtm:object "QSTESTCD" ;
    cosmos_sdtm:predicateTerm <https://www.cdisc.org/cosmos/sdtm_v1.0/PredicateTermEnum#IS_RESULT_OF> ;
    cosmos_sdtm:subject "QSSTRESC" .

<https://w3id.org/cdisc/cosmos/dss/QS/PATCHSURVEYSIZE/QSSTRESN/relationship> a cosmos_sdtm:RelationShip ;
    cosmos_sdtm:linkingPhrase <https://www.cdisc.org/cosmos/sdtm_v1.0/LinkingPhraseEnum#is%20the%20result%20of%20the%20test%20in> ;
    cosmos_sdtm:object "QSTESTCD" ;
    cosmos_sdtm:predicateTerm <https://www.cdisc.org/cosmos/sdtm_v1.0/PredicateTermEnum#IS_RESULT_OF> ;
    cosmos_sdtm:subject "QSSTRESN" .

<https://w3id.org/cdisc/cosmos/dss/QS/PATCHSURVEYSIZE/QSTEST/assignedTerm> a cosmos_sdtm:AssignedTerm ;
    cosmos_sdtm:value "TTSACC02 - Size" .

<https://w3id.org/cdisc/cosmos/dss/QS/PATCHSURVEYSIZE/QSTEST/relationship> a cosmos_sdtm:RelationShip ;
    cosmos_sdtm:linkingPhrase <https://www.cdisc.org/cosmos/sdtm_v1.0/LinkingPhraseEnum#decodes%20the%20value%20in> ;
    cosmos_sdtm:object "QSTESTCD" ;
    cosmos_sdtm:predicateTerm <https://www.cdisc.org/cosmos/sdtm_v1.0/PredicateTermEnum#DECODES> ;
    cosmos_sdtm:subject "QSTEST" .

<https://w3id.org/cdisc/cosmos/dss/QS/PATCHSURVEYSIZE/QSTESTCD/assignedTerm> a cosmos_sdtm:AssignedTerm ;
    cosmos_sdtm:value "TTSACC02" .

<https://w3id.org/cdisc/cosmos/dss/QS/PATCHSURVEYSIZE/QSTESTCD/relationship> a cosmos_sdtm:RelationShip ;
    cosmos_sdtm:linkingPhrase <https://www.cdisc.org/cosmos/sdtm_v1.0/LinkingPhraseEnum#is%20the%20code%20for%20the%20value%20in> ;
    cosmos_sdtm:object "QSTEST" ;
    cosmos_sdtm:predicateTerm <https://www.cdisc.org/cosmos/sdtm_v1.0/PredicateTermEnum#IS_DECODED_BY> ;
    cosmos_sdtm:subject "QSTESTCD" .

NCIT:C179950 a cosmos_sdtm:CodeList ;
    dcterms:identifier "C179950" ;
    skos:exactMatch <http://ncicb.nci.nih.gov/xml/owl/EVS/Thesaurus.owl#C179950> ;
    cosmos_sdtm:submissionValue "CES0101STR" .

NCIT:C179951 a cosmos_sdtm:CodeList ;
    dcterms:identifier "C179951" ;
    skos:exactMatch <http://ncicb.nci.nih.gov/xml/owl/EVS/Thesaurus.owl#C179951> ;
    cosmos_sdtm:submissionValue "CES0102STR" .

NCIT:C179952 a cosmos_sdtm:CodeList ;
    dcterms:identifier "C179952" ;
    skos:exactMatch <http://ncicb.nci.nih.gov/xml/owl/EVS/Thesaurus.owl#C179952> ;
    cosmos_sdtm:submissionValue "CES0103STR" .

NCIT:C179953 a cosmos_sdtm:CodeList ;
    dcterms:identifier "C179953" ;
    skos:exactMatch <http://ncicb.nci.nih.gov/xml/owl/EVS/Thesaurus.owl#C179953> ;
    cosmos_sdtm:submissionValue "CES0104STR" .

<https://w3id.org/cdisc/cosmos/dss/QS/CES0101/QSCAT> a cosmos_sdtm:SDTMVariable ;
    cosmos_sdtm:assignedTerm <https://w3id.org/cdisc/cosmos/dss/QS/CES0101/QSCAT/assignedTerm> ;
    cosmos_sdtm:codelist NCIT:C100129 ;
    cosmos_sdtm:comparator <https://www.cdisc.org/cosmos/sdtm_v1.0/ComparatorEnum#EQ> ;
    cosmos_sdtm:dataElementConceptId NCIT:C25372 ;
    cosmos_sdtm:isNonStandard false ;
    cosmos_sdtm:mandatoryValue true ;
    cosmos_sdtm:mandatoryVariable true ;
    cosmos_sdtm:name "QSCAT" ;
    cosmos_sdtm:originSource NCIT:C70793 ;
    cosmos_sdtm:originType NCIT:C170547 ;
    cosmos_sdtm:relationship <https://w3id.org/cdisc/cosmos/dss/QS/CES0101/QSCAT/relationship> ;
    cosmos_sdtm:role <https://www.cdisc.org/cosmos/sdtm_v1.0/RoleEnum#Qualifier> .

<https://w3id.org/cdisc/cosmos/dss/QS/CES0101/QSDTC> a cosmos_sdtm:SDTMVariable ;
    cosmos_sdtm:dataElementConceptId NCIT:C82515 ;
    cosmos_sdtm:isNonStandard false ;
    cosmos_sdtm:mandatoryValue false ;
    cosmos_sdtm:mandatoryVariable true ;
    cosmos_sdtm:name "QSDTC" ;
    cosmos_sdtm:relationship <https://w3id.org/cdisc/cosmos/dss/QS/CES0101/QSDTC/relationship> ;
    cosmos_sdtm:role <https://www.cdisc.org/cosmos/sdtm_v1.0/RoleEnum#Timing> .

<https://w3id.org/cdisc/cosmos/dss/QS/CES0101/QSORRES> a cosmos_sdtm:SDTMVariable ;
    cosmos_sdtm:codelist NCIT:C179945 ;
    cosmos_sdtm:dataElementConceptId NCIT:C91106 ;
    cosmos_sdtm:dataType <https://www.cdisc.org/cosmos/sdtm_v1.0/SDTMVariableDataTypeEnum#text> ;
    cosmos_sdtm:isNonStandard false ;
    cosmos_sdtm:length 20 ;
    cosmos_sdtm:mandatoryValue false ;
    cosmos_sdtm:mandatoryVariable true ;
    cosmos_sdtm:name "QSORRES" ;
    cosmos_sdtm:originSource NCIT:C25936 ;
    cosmos_sdtm:originType NCIT:C170548 ;
    cosmos_sdtm:relationship <https://w3id.org/cdisc/cosmos/dss/QS/CES0101/QSORRES/relationship> ;
    cosmos_sdtm:role <https://www.cdisc.org/cosmos/sdtm_v1.0/RoleEnum#Qualifier> ;
    cosmos_sdtm:vlmTarget true .

<https://w3id.org/cdisc/cosmos/dss/QS/CES0101/QSSTRESC> a cosmos_sdtm:SDTMVariable ;
    cosmos_sdtm:codelist NCIT:C179950 ;
    cosmos_sdtm:dataElementConceptId NCIT:C46126 ;
    cosmos_sdtm:dataType <https://www.cdisc.org/cosmos/sdtm_v1.0/SDTMVariableDataTypeEnum#integer> ;
    cosmos_sdtm:isNonStandard false ;
    cosmos_sdtm:length 1 ;
    cosmos_sdtm:mandatoryValue false ;
    cosmos_sdtm:mandatoryVariable true ;
    cosmos_sdtm:name "QSSTRESC" ;
    cosmos_sdtm:originSource NCIT:C70793 ;
    cosmos_sdtm:originType NCIT:C170549 ;
    cosmos_sdtm:relationship <https://w3id.org/cdisc/cosmos/dss/QS/CES0101/QSSTRESC/relationship> ;
    cosmos_sdtm:role <https://www.cdisc.org/cosmos/sdtm_v1.0/RoleEnum#Qualifier> ;
    cosmos_sdtm:vlmTarget true .

<https://w3id.org/cdisc/cosmos/dss/QS/CES0101/QSSTRESN> a cosmos_sdtm:SDTMVariable ;
    cosmos_sdtm:codelist NCIT:C179950 ;
    cosmos_sdtm:dataElementConceptId NCIT:C46126 ;
    cosmos_sdtm:dataType <https://www.cdisc.org/cosmos/sdtm_v1.0/SDTMVariableDataTypeEnum#integer> ;
    cosmos_sdtm:isNonStandard false ;
    cosmos_sdtm:length 1 ;
    cosmos_sdtm:mandatoryValue false ;
    cosmos_sdtm:mandatoryVariable true ;
    cosmos_sdtm:name "QSSTRESN" ;
    cosmos_sdtm:originSource NCIT:C70793 ;
    cosmos_sdtm:originType NCIT:C170549 ;
    cosmos_sdtm:relationship <https://w3id.org/cdisc/cosmos/dss/QS/CES0101/QSSTRESN/relationship> ;
    cosmos_sdtm:role <https://www.cdisc.org/cosmos/sdtm_v1.0/RoleEnum#Qualifier> ;
    cosmos_sdtm:vlmTarget true .

<https://w3id.org/cdisc/cosmos/dss/QS/CES0101/QSTEST> a cosmos_sdtm:SDTMVariable ;
    cosmos_sdtm:assignedTerm <https://w3id.org/cdisc/cosmos/dss/QS/CES0101/QSTEST/assignedTerm> ;
    cosmos_sdtm:codelist NCIT:C132518 ;
    cosmos_sdtm:isNonStandard false ;
    cosmos_sdtm:mandatoryValue true ;
    cosmos_sdtm:mandatoryVariable true ;
    cosmos_sdtm:name "QSTEST" ;
    cosmos_sdtm:originSource NCIT:C70793 ;
    cosmos_sdtm:originType NCIT:C170547 ;
    cosmos_sdtm:relationship <https://w3id.org/cdisc/cosmos/dss/QS/CES0101/QSTEST/relationship> ;
    cosmos_sdtm:role <https://www.cdisc.org/cosmos/sdtm_v1.0/RoleEnum#Qualifier> .

<https://w3id.org/cdisc/cosmos/dss/QS/CES0101/QSTESTCD> a cosmos_sdtm:SDTMVariable ;
    cosmos_sdtm:assignedTerm <https://w3id.org/cdisc/cosmos/dss/QS/CES0101/QSTESTCD/assignedTerm> ;
    cosmos_sdtm:codelist NCIT:C132519 ;
    cosmos_sdtm:comparator <https://www.cdisc.org/cosmos/sdtm_v1.0/ComparatorEnum#EQ> ;
    cosmos_sdtm:isNonStandard false ;
    cosmos_sdtm:mandatoryValue true ;
    cosmos_sdtm:mandatoryVariable true ;
    cosmos_sdtm:name "QSTESTCD" ;
    cosmos_sdtm:originSource NCIT:C70793 ;
    cosmos_sdtm:originType NCIT:C170547 ;
    cosmos_sdtm:relationship <https://w3id.org/cdisc/cosmos/dss/QS/CES0101/QSTESTCD/relationship> ;
    cosmos_sdtm:role <https://www.cdisc.org/cosmos/sdtm_v1.0/RoleEnum#Topic> .

<https://w3id.org/cdisc/cosmos/dss/QS/CES0102/QSCAT> a cosmos_sdtm:SDTMVariable ;
    cosmos_sdtm:assignedTerm <https://w3id.org/cdisc/cosmos/dss/QS/CES0102/QSCAT/assignedTerm> ;
    cosmos_sdtm:codelist NCIT:C100129 ;
    cosmos_sdtm:comparator <https://www.cdisc.org/cosmos/sdtm_v1.0/ComparatorEnum#EQ> ;
    cosmos_sdtm:dataElementConceptId NCIT:C25372 ;
    cosmos_sdtm:isNonStandard false ;
    cosmos_sdtm:mandatoryValue true ;
    cosmos_sdtm:mandatoryVariable true ;
    cosmos_sdtm:name "QSCAT" ;
    cosmos_sdtm:originSource NCIT:C70793 ;
    cosmos_sdtm:originType NCIT:C170547 ;
    cosmos_sdtm:relationship <https://w3id.org/cdisc/cosmos/dss/QS/CES0102/QSCAT/relationship> ;
    cosmos_sdtm:role <https://www.cdisc.org/cosmos/sdtm_v1.0/RoleEnum#Qualifier> .

<https://w3id.org/cdisc/cosmos/dss/QS/CES0102/QSDTC> a cosmos_sdtm:SDTMVariable ;
    cosmos_sdtm:dataElementConceptId NCIT:C82515 ;
    cosmos_sdtm:isNonStandard false ;
    cosmos_sdtm:mandatoryValue false ;
    cosmos_sdtm:mandatoryVariable true ;
    cosmos_sdtm:name "QSDTC" ;
    cosmos_sdtm:relationship <https://w3id.org/cdisc/cosmos/dss/QS/CES0102/QSDTC/relationship> ;
    cosmos_sdtm:role <https://www.cdisc.org/cosmos/sdtm_v1.0/RoleEnum#Timing> .

<https://w3id.org/cdisc/cosmos/dss/QS/CES0102/QSORRES> a cosmos_sdtm:SDTMVariable ;
    cosmos_sdtm:codelist NCIT:C179946 ;
    cosmos_sdtm:dataElementConceptId NCIT:C91106 ;
    cosmos_sdtm:dataType <https://www.cdisc.org/cosmos/sdtm_v1.0/SDTMVariableDataTypeEnum#text> ;
    cosmos_sdtm:isNonStandard false ;
    cosmos_sdtm:length 20 ;
    cosmos_sdtm:mandatoryValue false ;
    cosmos_sdtm:mandatoryVariable true ;
    cosmos_sdtm:name "QSORRES" ;
    cosmos_sdtm:originSource NCIT:C25936 ;
    cosmos_sdtm:originType NCIT:C170548 ;
    cosmos_sdtm:relationship <https://w3id.org/cdisc/cosmos/dss/QS/CES0102/QSORRES/relationship> ;
    cosmos_sdtm:role <https://www.cdisc.org/cosmos/sdtm_v1.0/RoleEnum#Qualifier> ;
    cosmos_sdtm:vlmTarget true .

<https://w3id.org/cdisc/cosmos/dss/QS/CES0102/QSSTRESC> a cosmos_sdtm:SDTMVariable ;
    cosmos_sdtm:codelist NCIT:C179951 ;
    cosmos_sdtm:dataElementConceptId NCIT:C46126 ;
    cosmos_sdtm:dataType <https://www.cdisc.org/cosmos/sdtm_v1.0/SDTMVariableDataTypeEnum#integer> ;
    cosmos_sdtm:isNonStandard false ;
    cosmos_sdtm:length 1 ;
    cosmos_sdtm:mandatoryValue false ;
    cosmos_sdtm:mandatoryVariable true ;
    cosmos_sdtm:name "QSSTRESC" ;
    cosmos_sdtm:originSource NCIT:C70793 ;
    cosmos_sdtm:originType NCIT:C170549 ;
    cosmos_sdtm:relationship <https://w3id.org/cdisc/cosmos/dss/QS/CES0102/QSSTRESC/relationship> ;
    cosmos_sdtm:role <https://www.cdisc.org/cosmos/sdtm_v1.0/RoleEnum#Qualifier> ;
    cosmos_sdtm:vlmTarget true .

<https://w3id.org/cdisc/cosmos/dss/QS/CES0102/QSSTRESN> a cosmos_sdtm:SDTMVariable ;
    cosmos_sdtm:codelist NCIT:C179951 ;
    cosmos_sdtm:dataElementConceptId NCIT:C46126 ;
    cosmos_sdtm:dataType <https://www.cdisc.org/cosmos/sdtm_v1.0/SDTMVariableDataTypeEnum#integer> ;
    cosmos_sdtm:isNonStandard false ;
    cosmos_sdtm:length 1 ;
    cosmos_sdtm:mandatoryValue false ;
    cosmos_sdtm:mandatoryVariable true ;
    cosmos_sdtm:name "QSSTRESN" ;
    cosmos_sdtm:originSource NCIT:C70793 ;
    cosmos_sdtm:originType NCIT:C170549 ;
    cosmos_sdtm:relationship <https://w3id.org/cdisc/cosmos/dss/QS/CES0102/QSSTRESN/relationship> ;
    cosmos_sdtm:role <https://www.cdisc.org/cosmos/sdtm_v1.0/RoleEnum#Qualifier> ;
    cosmos_sdtm:vlmTarget true .

<https://w3id.org/cdisc/cosmos/dss/QS/CES0102/QSTEST> a cosmos_sdtm:SDTMVariable ;
    cosmos_sdtm:assignedTerm <https://w3id.org/cdisc/cosmos/dss/QS/CES0102/QSTEST/assignedTerm> ;
    cosmos_sdtm:codelist NCIT:C132518 ;
    cosmos_sdtm:isNonStandard false ;
    cosmos_sdtm:mandatoryValue true ;
    cosmos_sdtm:mandatoryVariable true ;
    cosmos_sdtm:name "QSTEST" ;
    cosmos_sdtm:originSource NCIT:C70793 ;
    cosmos_sdtm:originType NCIT:C170547 ;
    cosmos_sdtm:relationship <https://w3id.org/cdisc/cosmos/dss/QS/CES0102/QSTEST/relationship> ;
    cosmos_sdtm:role <https://www.cdisc.org/cosmos/sdtm_v1.0/RoleEnum#Qualifier> .

<https://w3id.org/cdisc/cosmos/dss/QS/CES0102/QSTESTCD> a cosmos_sdtm:SDTMVariable ;
    cosmos_sdtm:assignedTerm <https://w3id.org/cdisc/cosmos/dss/QS/CES0102/QSTESTCD/assignedTerm> ;
    cosmos_sdtm:codelist NCIT:C132519 ;
    cosmos_sdtm:comparator <https://www.cdisc.org/cosmos/sdtm_v1.0/ComparatorEnum#EQ> ;
    cosmos_sdtm:isNonStandard false ;
    cosmos_sdtm:mandatoryValue true ;
    cosmos_sdtm:mandatoryVariable true ;
    cosmos_sdtm:name "QSTESTCD" ;
    cosmos_sdtm:originSource NCIT:C70793 ;
    cosmos_sdtm:originType NCIT:C170547 ;
    cosmos_sdtm:relationship <https://w3id.org/cdisc/cosmos/dss/QS/CES0102/QSTESTCD/relationship> ;
    cosmos_sdtm:role <https://www.cdisc.org/cosmos/sdtm_v1.0/RoleEnum#Topic> .

<https://w3id.org/cdisc/cosmos/dss/QS/CES0103/QSCAT> a cosmos_sdtm:SDTMVariable ;
    cosmos_sdtm:assignedTerm <https://w3id.org/cdisc/cosmos/dss/QS/CES0103/QSCAT/assignedTerm> ;
    cosmos_sdtm:codelist NCIT:C100129 ;
    cosmos_sdtm:comparator <https://www.cdisc.org/cosmos/sdtm_v1.0/ComparatorEnum#EQ> ;
    cosmos_sdtm:dataElementConceptId NCIT:C25372 ;
    cosmos_sdtm:isNonStandard false ;
    cosmos_sdtm:mandatoryValue true ;
    cosmos_sdtm:mandatoryVariable true ;
    cosmos_sdtm:name "QSCAT" ;
    cosmos_sdtm:originSource NCIT:C70793 ;
    cosmos_sdtm:originType NCIT:C170547 ;
    cosmos_sdtm:relationship <https://w3id.org/cdisc/cosmos/dss/QS/CES0103/QSCAT/relationship> ;
    cosmos_sdtm:role <https://www.cdisc.org/cosmos/sdtm_v1.0/RoleEnum#Qualifier> .

<https://w3id.org/cdisc/cosmos/dss/QS/CES0103/QSDTC> a cosmos_sdtm:SDTMVariable ;
    cosmos_sdtm:dataElementConceptId NCIT:C82515 ;
    cosmos_sdtm:isNonStandard false ;
    cosmos_sdtm:mandatoryValue false ;
    cosmos_sdtm:mandatoryVariable true ;
    cosmos_sdtm:name "QSDTC" ;
    cosmos_sdtm:relationship <https://w3id.org/cdisc/cosmos/dss/QS/CES0103/QSDTC/relationship> ;
    cosmos_sdtm:role <https://www.cdisc.org/cosmos/sdtm_v1.0/RoleEnum#Timing> .

<https://w3id.org/cdisc/cosmos/dss/QS/CES0103/QSORRES> a cosmos_sdtm:SDTMVariable ;
    cosmos_sdtm:codelist NCIT:C179947 ;
    cosmos_sdtm:dataElementConceptId NCIT:C91106 ;
    cosmos_sdtm:dataType <https://www.cdisc.org/cosmos/sdtm_v1.0/SDTMVariableDataTypeEnum#text> ;
    cosmos_sdtm:isNonStandard false ;
    cosmos_sdtm:length 20 ;
    cosmos_sdtm:mandatoryValue false ;
    cosmos_sdtm:mandatoryVariable true ;
    cosmos_sdtm:name "QSORRES" ;
    cosmos_sdtm:originSource NCIT:C25936 ;
    cosmos_sdtm:originType NCIT:C170548 ;
    cosmos_sdtm:relationship <https://w3id.org/cdisc/cosmos/dss/QS/CES0103/QSORRES/relationship> ;
    cosmos_sdtm:role <https://www.cdisc.org/cosmos/sdtm_v1.0/RoleEnum#Qualifier> ;
    cosmos_sdtm:vlmTarget true .

<https://w3id.org/cdisc/cosmos/dss/QS/CES0103/QSSTRESC> a cosmos_sdtm:SDTMVariable ;
    cosmos_sdtm:codelist NCIT:C179952 ;
    cosmos_sdtm:dataElementConceptId NCIT:C46126 ;
    cosmos_sdtm:dataType <https://www.cdisc.org/cosmos/sdtm_v1.0/SDTMVariableDataTypeEnum#integer> ;
    cosmos_sdtm:isNonStandard false ;
    cosmos_sdtm:length 1 ;
    cosmos_sdtm:mandatoryValue false ;
    cosmos_sdtm:mandatoryVariable true ;
    cosmos_sdtm:name "QSSTRESC" ;
    cosmos_sdtm:originSource NCIT:C70793 ;
    cosmos_sdtm:originType NCIT:C170549 ;
    cosmos_sdtm:relationship <https://w3id.org/cdisc/cosmos/dss/QS/CES0103/QSSTRESC/relationship> ;
    cosmos_sdtm:role <https://www.cdisc.org/cosmos/sdtm_v1.0/RoleEnum#Qualifier> ;
    cosmos_sdtm:vlmTarget true .

<https://w3id.org/cdisc/cosmos/dss/QS/CES0103/QSSTRESN> a cosmos_sdtm:SDTMVariable ;
    cosmos_sdtm:codelist NCIT:C179952 ;
    cosmos_sdtm:dataElementConceptId NCIT:C46126 ;
    cosmos_sdtm:dataType <https://www.cdisc.org/cosmos/sdtm_v1.0/SDTMVariableDataTypeEnum#integer> ;
    cosmos_sdtm:isNonStandard false ;
    cosmos_sdtm:length 1 ;
    cosmos_sdtm:mandatoryValue false ;
    cosmos_sdtm:mandatoryVariable true ;
    cosmos_sdtm:name "QSSTRESN" ;
    cosmos_sdtm:originSource NCIT:C70793 ;
    cosmos_sdtm:originType NCIT:C170549 ;
    cosmos_sdtm:relationship <https://w3id.org/cdisc/cosmos/dss/QS/CES0103/QSSTRESN/relationship> ;
    cosmos_sdtm:role <https://www.cdisc.org/cosmos/sdtm_v1.0/RoleEnum#Qualifier> ;
    cosmos_sdtm:vlmTarget true .

<https://w3id.org/cdisc/cosmos/dss/QS/CES0103/QSTEST> a cosmos_sdtm:SDTMVariable ;
    cosmos_sdtm:assignedTerm <https://w3id.org/cdisc/cosmos/dss/QS/CES0103/QSTEST/assignedTerm> ;
    cosmos_sdtm:codelist NCIT:C132518 ;
    cosmos_sdtm:isNonStandard false ;
    cosmos_sdtm:mandatoryValue true ;
    cosmos_sdtm:mandatoryVariable true ;
    cosmos_sdtm:name "QSTEST" ;
    cosmos_sdtm:originSource NCIT:C70793 ;
    cosmos_sdtm:originType NCIT:C170547 ;
    cosmos_sdtm:relationship <https://w3id.org/cdisc/cosmos/dss/QS/CES0103/QSTEST/relationship> ;
    cosmos_sdtm:role <https://www.cdisc.org/cosmos/sdtm_v1.0/RoleEnum#Qualifier> .

<https://w3id.org/cdisc/cosmos/dss/QS/CES0103/QSTESTCD> a cosmos_sdtm:SDTMVariable ;
    cosmos_sdtm:assignedTerm <https://w3id.org/cdisc/cosmos/dss/QS/CES0103/QSTESTCD/assignedTerm> ;
    cosmos_sdtm:codelist NCIT:C132519 ;
    cosmos_sdtm:comparator <https://www.cdisc.org/cosmos/sdtm_v1.0/ComparatorEnum#EQ> ;
    cosmos_sdtm:isNonStandard false ;
    cosmos_sdtm:mandatoryValue true ;
    cosmos_sdtm:mandatoryVariable true ;
    cosmos_sdtm:name "QSTESTCD" ;
    cosmos_sdtm:originSource NCIT:C70793 ;
    cosmos_sdtm:originType NCIT:C170547 ;
    cosmos_sdtm:relationship <https://w3id.org/cdisc/cosmos/dss/QS/CES0103/QSTESTCD/relationship> ;
    cosmos_sdtm:role <https://www.cdisc.org/cosmos/sdtm_v1.0/RoleEnum#Topic> .

<https://w3id.org/cdisc/cosmos/dss/QS/CES0104/QSCAT> a cosmos_sdtm:SDTMVariable ;
    cosmos_sdtm:assignedTerm <https://w3id.org/cdisc/cosmos/dss/QS/CES0104/QSCAT/assignedTerm> ;
    cosmos_sdtm:codelist NCIT:C100129 ;
    cosmos_sdtm:comparator <https://www.cdisc.org/cosmos/sdtm_v1.0/ComparatorEnum#EQ> ;
    cosmos_sdtm:dataElementConceptId NCIT:C25372 ;
    cosmos_sdtm:isNonStandard false ;
    cosmos_sdtm:mandatoryValue true ;
    cosmos_sdtm:mandatoryVariable true ;
    cosmos_sdtm:name "QSCAT" ;
    cosmos_sdtm:originSource NCIT:C70793 ;
    cosmos_sdtm:originType NCIT:C170547 ;
    cosmos_sdtm:relationship <https://w3id.org/cdisc/cosmos/dss/QS/CES0104/QSCAT/relationship> ;
    cosmos_sdtm:role <https://www.cdisc.org/cosmos/sdtm_v1.0/RoleEnum#Qualifier> .

<https://w3id.org/cdisc/cosmos/dss/QS/CES0104/QSDTC> a cosmos_sdtm:SDTMVariable ;
    cosmos_sdtm:dataElementConceptId NCIT:C82515 ;
    cosmos_sdtm:isNonStandard false ;
    cosmos_sdtm:mandatoryValue false ;
    cosmos_sdtm:mandatoryVariable true ;
    cosmos_sdtm:name "QSDTC" ;
    cosmos_sdtm:relationship <https://w3id.org/cdisc/cosmos/dss/QS/CES0104/QSDTC/relationship> ;
    cosmos_sdtm:role <https://www.cdisc.org/cosmos/sdtm_v1.0/RoleEnum#Timing> .

<https://w3id.org/cdisc/cosmos/dss/QS/CES0104/QSORRES> a cosmos_sdtm:SDTMVariable ;
    cosmos_sdtm:codelist NCIT:C179948 ;
    cosmos_sdtm:dataElementConceptId NCIT:C91106 ;
    cosmos_sdtm:dataType <https://www.cdisc.org/cosmos/sdtm_v1.0/SDTMVariableDataTypeEnum#text> ;
    cosmos_sdtm:isNonStandard false ;
    cosmos_sdtm:length 20 ;
    cosmos_sdtm:mandatoryValue false ;
    cosmos_sdtm:mandatoryVariable true ;
    cosmos_sdtm:name "QSORRES" ;
    cosmos_sdtm:originSource NCIT:C25936 ;
    cosmos_sdtm:originType NCIT:C170548 ;
    cosmos_sdtm:relationship <https://w3id.org/cdisc/cosmos/dss/QS/CES0104/QSORRES/relationship> ;
    cosmos_sdtm:role <https://www.cdisc.org/cosmos/sdtm_v1.0/RoleEnum#Qualifier> ;
    cosmos_sdtm:vlmTarget true .

<https://w3id.org/cdisc/cosmos/dss/QS/CES0104/QSSTRESC> a cosmos_sdtm:SDTMVariable ;
    cosmos_sdtm:codelist NCIT:C179953 ;
    cosmos_sdtm:dataElementConceptId NCIT:C46126 ;
    cosmos_sdtm:dataType <https://www.cdisc.org/cosmos/sdtm_v1.0/SDTMVariableDataTypeEnum#integer> ;
    cosmos_sdtm:isNonStandard false ;
    cosmos_sdtm:length 1 ;
    cosmos_sdtm:mandatoryValue false ;
    cosmos_sdtm:mandatoryVariable true ;
    cosmos_sdtm:name "QSSTRESC" ;
    cosmos_sdtm:originSource NCIT:C70793 ;
    cosmos_sdtm:originType NCIT:C170549 ;
    cosmos_sdtm:relationship <https://w3id.org/cdisc/cosmos/dss/QS/CES0104/QSSTRESC/relationship> ;
    cosmos_sdtm:role <https://www.cdisc.org/cosmos/sdtm_v1.0/RoleEnum#Qualifier> ;
    cosmos_sdtm:vlmTarget true .

<https://w3id.org/cdisc/cosmos/dss/QS/CES0104/QSSTRESN> a cosmos_sdtm:SDTMVariable ;
    cosmos_sdtm:codelist NCIT:C179953 ;
    cosmos_sdtm:dataElementConceptId NCIT:C46126 ;
    cosmos_sdtm:dataType <https://www.cdisc.org/cosmos/sdtm_v1.0/SDTMVariableDataTypeEnum#integer> ;
    cosmos_sdtm:isNonStandard false ;
    cosmos_sdtm:length 1 ;
    cosmos_sdtm:mandatoryValue false ;
    cosmos_sdtm:mandatoryVariable true ;
    cosmos_sdtm:name "QSSTRESN" ;
    cosmos_sdtm:originSource NCIT:C70793 ;
    cosmos_sdtm:originType NCIT:C170549 ;
    cosmos_sdtm:relationship <https://w3id.org/cdisc/cosmos/dss/QS/CES0104/QSSTRESN/relationship> ;
    cosmos_sdtm:role <https://www.cdisc.org/cosmos/sdtm_v1.0/RoleEnum#Qualifier> ;
    cosmos_sdtm:vlmTarget true .

<https://w3id.org/cdisc/cosmos/dss/QS/CES0104/QSTEST> a cosmos_sdtm:SDTMVariable ;
    cosmos_sdtm:assignedTerm <https://w3id.org/cdisc/cosmos/dss/QS/CES0104/QSTEST/assignedTerm> ;
    cosmos_sdtm:codelist NCIT:C132518 ;
    cosmos_sdtm:isNonStandard false ;
    cosmos_sdtm:mandatoryValue true ;
    cosmos_sdtm:mandatoryVariable true ;
    cosmos_sdtm:name "QSTEST" ;
    cosmos_sdtm:originSource NCIT:C70793 ;
    cosmos_sdtm:originType NCIT:C170547 ;
    cosmos_sdtm:relationship <https://w3id.org/cdisc/cosmos/dss/QS/CES0104/QSTEST/relationship> ;
    cosmos_sdtm:role <https://www.cdisc.org/cosmos/sdtm_v1.0/RoleEnum#Qualifier> .

<https://w3id.org/cdisc/cosmos/dss/QS/CES0104/QSTESTCD> a cosmos_sdtm:SDTMVariable ;
    cosmos_sdtm:assignedTerm <https://w3id.org/cdisc/cosmos/dss/QS/CES0104/QSTESTCD/assignedTerm> ;
    cosmos_sdtm:codelist NCIT:C132519 ;
    cosmos_sdtm:comparator <https://www.cdisc.org/cosmos/sdtm_v1.0/ComparatorEnum#EQ> ;
    cosmos_sdtm:isNonStandard false ;
    cosmos_sdtm:mandatoryValue true ;
    cosmos_sdtm:mandatoryVariable true ;
    cosmos_sdtm:name "QSTESTCD" ;
    cosmos_sdtm:originSource NCIT:C70793 ;
    cosmos_sdtm:originType NCIT:C170547 ;
    cosmos_sdtm:relationship <https://w3id.org/cdisc/cosmos/dss/QS/CES0104/QSTESTCD/relationship> ;
    cosmos_sdtm:role <https://www.cdisc.org/cosmos/sdtm_v1.0/RoleEnum#Topic> .

<https://w3id.org/cdisc/cosmos/dss/QS/CES0105/QSCAT> a cosmos_sdtm:SDTMVariable ;
    cosmos_sdtm:assignedTerm <https://w3id.org/cdisc/cosmos/dss/QS/CES0105/QSCAT/assignedTerm> ;
    cosmos_sdtm:codelist NCIT:C100129 ;
    cosmos_sdtm:comparator <https://www.cdisc.org/cosmos/sdtm_v1.0/ComparatorEnum#EQ> ;
    cosmos_sdtm:dataElementConceptId NCIT:C25372 ;
    cosmos_sdtm:isNonStandard false ;
    cosmos_sdtm:mandatoryValue true ;
    cosmos_sdtm:mandatoryVariable true ;
    cosmos_sdtm:name "QSCAT" ;
    cosmos_sdtm:originSource NCIT:C70793 ;
    cosmos_sdtm:originType NCIT:C170547 ;
    cosmos_sdtm:relationship <https://w3id.org/cdisc/cosmos/dss/QS/CES0105/QSCAT/relationship> ;
    cosmos_sdtm:role <https://www.cdisc.org/cosmos/sdtm_v1.0/RoleEnum#Qualifier> .

<https://w3id.org/cdisc/cosmos/dss/QS/CES0105/QSDTC> a cosmos_sdtm:SDTMVariable ;
    cosmos_sdtm:dataElementConceptId NCIT:C82515 ;
    cosmos_sdtm:isNonStandard false ;
    cosmos_sdtm:mandatoryValue false ;
    cosmos_sdtm:mandatoryVariable true ;
    cosmos_sdtm:name "QSDTC" ;
    cosmos_sdtm:relationship <https://w3id.org/cdisc/cosmos/dss/QS/CES0105/QSDTC/relationship> ;
    cosmos_sdtm:role <https://www.cdisc.org/cosmos/sdtm_v1.0/RoleEnum#Timing> .

<https://w3id.org/cdisc/cosmos/dss/QS/CES0105/QSORRES> a cosmos_sdtm:SDTMVariable ;
    cosmos_sdtm:codelist NCIT:C179949 ;
    cosmos_sdtm:dataElementConceptId NCIT:C91106 ;
    cosmos_sdtm:dataType <https://www.cdisc.org/cosmos/sdtm_v1.0/SDTMVariableDataTypeEnum#text> ;
    cosmos_sdtm:isNonStandard false ;
    cosmos_sdtm:length 20 ;
    cosmos_sdtm:mandatoryValue false ;
    cosmos_sdtm:mandatoryVariable true ;
    cosmos_sdtm:name "QSORRES" ;
    cosmos_sdtm:originSource NCIT:C25936 ;
    cosmos_sdtm:originType NCIT:C170548 ;
    cosmos_sdtm:relationship <https://w3id.org/cdisc/cosmos/dss/QS/CES0105/QSORRES/relationship> ;
    cosmos_sdtm:role <https://www.cdisc.org/cosmos/sdtm_v1.0/RoleEnum#Qualifier> ;
    cosmos_sdtm:vlmTarget true .

<https://w3id.org/cdisc/cosmos/dss/QS/CES0105/QSSTRESC> a cosmos_sdtm:SDTMVariable ;
    cosmos_sdtm:codelist NCIT:C179954 ;
    cosmos_sdtm:dataElementConceptId NCIT:C46126 ;
    cosmos_sdtm:dataType <https://www.cdisc.org/cosmos/sdtm_v1.0/SDTMVariableDataTypeEnum#integer> ;
    cosmos_sdtm:isNonStandard false ;
    cosmos_sdtm:length 1 ;
    cosmos_sdtm:mandatoryValue false ;
    cosmos_sdtm:mandatoryVariable true ;
    cosmos_sdtm:name "QSSTRESC" ;
    cosmos_sdtm:originSource NCIT:C70793 ;
    cosmos_sdtm:originType NCIT:C170549 ;
    cosmos_sdtm:relationship <https://w3id.org/cdisc/cosmos/dss/QS/CES0105/QSSTRESC/relationship> ;
    cosmos_sdtm:role <https://www.cdisc.org/cosmos/sdtm_v1.0/RoleEnum#Qualifier> ;
    cosmos_sdtm:vlmTarget true .

<https://w3id.org/cdisc/cosmos/dss/QS/CES0105/QSSTRESN> a cosmos_sdtm:SDTMVariable ;
    cosmos_sdtm:codelist NCIT:C179954 ;
    cosmos_sdtm:dataElementConceptId NCIT:C46126 ;
    cosmos_sdtm:dataType <https://www.cdisc.org/cosmos/sdtm_v1.0/SDTMVariableDataTypeEnum#integer> ;
    cosmos_sdtm:isNonStandard false ;
    cosmos_sdtm:length 1 ;
    cosmos_sdtm:mandatoryValue false ;
    cosmos_sdtm:mandatoryVariable true ;
    cosmos_sdtm:name "QSSTRESN" ;
    cosmos_sdtm:originSource NCIT:C70793 ;
    cosmos_sdtm:originType NCIT:C170549 ;
    cosmos_sdtm:relationship <https://w3id.org/cdisc/cosmos/dss/QS/CES0105/QSSTRESN/relationship> ;
    cosmos_sdtm:role <https://www.cdisc.org/cosmos/sdtm_v1.0/RoleEnum#Qualifier> ;
    cosmos_sdtm:vlmTarget true .

<https://w3id.org/cdisc/cosmos/dss/QS/CES0105/QSTEST> a cosmos_sdtm:SDTMVariable ;
    cosmos_sdtm:assignedTerm <https://w3id.org/cdisc/cosmos/dss/QS/CES0105/QSTEST/assignedTerm> ;
    cosmos_sdtm:codelist NCIT:C132518 ;
    cosmos_sdtm:isNonStandard false ;
    cosmos_sdtm:mandatoryValue true ;
    cosmos_sdtm:mandatoryVariable true ;
    cosmos_sdtm:name "QSTEST" ;
    cosmos_sdtm:originSource NCIT:C70793 ;
    cosmos_sdtm:originType NCIT:C170547 ;
    cosmos_sdtm:relationship <https://w3id.org/cdisc/cosmos/dss/QS/CES0105/QSTEST/relationship> ;
    cosmos_sdtm:role <https://www.cdisc.org/cosmos/sdtm_v1.0/RoleEnum#Qualifier> .

<https://w3id.org/cdisc/cosmos/dss/QS/CES0105/QSTESTCD> a cosmos_sdtm:SDTMVariable ;
    cosmos_sdtm:assignedTerm <https://w3id.org/cdisc/cosmos/dss/QS/CES0105/QSTESTCD/assignedTerm> ;
    cosmos_sdtm:codelist NCIT:C132519 ;
    cosmos_sdtm:comparator <https://www.cdisc.org/cosmos/sdtm_v1.0/ComparatorEnum#EQ> ;
    cosmos_sdtm:isNonStandard false ;
    cosmos_sdtm:mandatoryValue true ;
    cosmos_sdtm:mandatoryVariable true ;
    cosmos_sdtm:name "QSTESTCD" ;
    cosmos_sdtm:originSource NCIT:C70793 ;
    cosmos_sdtm:originType NCIT:C170547 ;
    cosmos_sdtm:relationship <https://w3id.org/cdisc/cosmos/dss/QS/CES0105/QSTESTCD/relationship> ;
    cosmos_sdtm:role <https://www.cdisc.org/cosmos/sdtm_v1.0/RoleEnum#Topic> .

<https://w3id.org/cdisc/cosmos/dss/QS/CES0106/QSCAT> a cosmos_sdtm:SDTMVariable ;
    cosmos_sdtm:assignedTerm <https://w3id.org/cdisc/cosmos/dss/QS/CES0106/QSCAT/assignedTerm> ;
    cosmos_sdtm:codelist NCIT:C100129 ;
    cosmos_sdtm:comparator <https://www.cdisc.org/cosmos/sdtm_v1.0/ComparatorEnum#EQ> ;
    cosmos_sdtm:dataElementConceptId NCIT:C25372 ;
    cosmos_sdtm:isNonStandard false ;
    cosmos_sdtm:mandatoryValue true ;
    cosmos_sdtm:mandatoryVariable true ;
    cosmos_sdtm:name "QSCAT" ;
    cosmos_sdtm:originSource NCIT:C70793 ;
    cosmos_sdtm:originType NCIT:C170547 ;
    cosmos_sdtm:relationship <https://w3id.org/cdisc/cosmos/dss/QS/CES0106/QSCAT/relationship> ;
    cosmos_sdtm:role <https://www.cdisc.org/cosmos/sdtm_v1.0/RoleEnum#Qualifier> .

<https://w3id.org/cdisc/cosmos/dss/QS/CES0106/QSDTC> a cosmos_sdtm:SDTMVariable ;
    cosmos_sdtm:dataElementConceptId NCIT:C82515 ;
    cosmos_sdtm:isNonStandard false ;
    cosmos_sdtm:mandatoryValue false ;
    cosmos_sdtm:mandatoryVariable true ;
    cosmos_sdtm:name "QSDTC" ;
    cosmos_sdtm:relationship <https://w3id.org/cdisc/cosmos/dss/QS/CES0106/QSDTC/relationship> ;
    cosmos_sdtm:role <https://www.cdisc.org/cosmos/sdtm_v1.0/RoleEnum#Timing> .

<https://w3id.org/cdisc/cosmos/dss/QS/CES0106/QSORRES> a cosmos_sdtm:SDTMVariable ;
    cosmos_sdtm:codelist NCIT:C179949 ;
    cosmos_sdtm:dataElementConceptId NCIT:C91106 ;
    cosmos_sdtm:dataType <https://www.cdisc.org/cosmos/sdtm_v1.0/SDTMVariableDataTypeEnum#text> ;
    cosmos_sdtm:isNonStandard false ;
    cosmos_sdtm:length 20 ;
    cosmos_sdtm:mandatoryValue false ;
    cosmos_sdtm:mandatoryVariable true ;
    cosmos_sdtm:name "QSORRES" ;
    cosmos_sdtm:originSource NCIT:C25936 ;
    cosmos_sdtm:originType NCIT:C170548 ;
    cosmos_sdtm:relationship <https://w3id.org/cdisc/cosmos/dss/QS/CES0106/QSORRES/relationship> ;
    cosmos_sdtm:role <https://www.cdisc.org/cosmos/sdtm_v1.0/RoleEnum#Qualifier> ;
    cosmos_sdtm:vlmTarget true .

<https://w3id.org/cdisc/cosmos/dss/QS/CES0106/QSSTRESC> a cosmos_sdtm:SDTMVariable ;
    cosmos_sdtm:codelist NCIT:C179954 ;
    cosmos_sdtm:dataElementConceptId NCIT:C46126 ;
    cosmos_sdtm:dataType <https://www.cdisc.org/cosmos/sdtm_v1.0/SDTMVariableDataTypeEnum#integer> ;
    cosmos_sdtm:isNonStandard false ;
    cosmos_sdtm:length 1 ;
    cosmos_sdtm:mandatoryValue false ;
    cosmos_sdtm:mandatoryVariable true ;
    cosmos_sdtm:name "QSSTRESC" ;
    cosmos_sdtm:originSource NCIT:C70793 ;
    cosmos_sdtm:originType NCIT:C170549 ;
    cosmos_sdtm:relationship <https://w3id.org/cdisc/cosmos/dss/QS/CES0106/QSSTRESC/relationship> ;
    cosmos_sdtm:role <https://www.cdisc.org/cosmos/sdtm_v1.0/RoleEnum#Qualifier> ;
    cosmos_sdtm:vlmTarget true .

<https://w3id.org/cdisc/cosmos/dss/QS/CES0106/QSSTRESN> a cosmos_sdtm:SDTMVariable ;
    cosmos_sdtm:codelist NCIT:C179954 ;
    cosmos_sdtm:dataElementConceptId NCIT:C46126 ;
    cosmos_sdtm:dataType <https://www.cdisc.org/cosmos/sdtm_v1.0/SDTMVariableDataTypeEnum#integer> ;
    cosmos_sdtm:isNonStandard false ;
    cosmos_sdtm:length 1 ;
    cosmos_sdtm:mandatoryValue false ;
    cosmos_sdtm:mandatoryVariable true ;
    cosmos_sdtm:name "QSSTRESN" ;
    cosmos_sdtm:originSource NCIT:C70793 ;
    cosmos_sdtm:originType NCIT:C170549 ;
    cosmos_sdtm:relationship <https://w3id.org/cdisc/cosmos/dss/QS/CES0106/QSSTRESN/relationship> ;
    cosmos_sdtm:role <https://www.cdisc.org/cosmos/sdtm_v1.0/RoleEnum#Qualifier> ;
    cosmos_sdtm:vlmTarget true .

<https://w3id.org/cdisc/cosmos/dss/QS/CES0106/QSTEST> a cosmos_sdtm:SDTMVariable ;
    cosmos_sdtm:assignedTerm <https://w3id.org/cdisc/cosmos/dss/QS/CES0106/QSTEST/assignedTerm> ;
    cosmos_sdtm:codelist NCIT:C132518 ;
    cosmos_sdtm:isNonStandard false ;
    cosmos_sdtm:mandatoryValue true ;
    cosmos_sdtm:mandatoryVariable true ;
    cosmos_sdtm:name "QSTEST" ;
    cosmos_sdtm:originSource NCIT:C70793 ;
    cosmos_sdtm:originType NCIT:C170547 ;
    cosmos_sdtm:relationship <https://w3id.org/cdisc/cosmos/dss/QS/CES0106/QSTEST/relationship> ;
    cosmos_sdtm:role <https://www.cdisc.org/cosmos/sdtm_v1.0/RoleEnum#Qualifier> .

<https://w3id.org/cdisc/cosmos/dss/QS/CES0106/QSTESTCD> a cosmos_sdtm:SDTMVariable ;
    cosmos_sdtm:assignedTerm <https://w3id.org/cdisc/cosmos/dss/QS/CES0106/QSTESTCD/assignedTerm> ;
    cosmos_sdtm:codelist NCIT:C132519 ;
    cosmos_sdtm:comparator <https://www.cdisc.org/cosmos/sdtm_v1.0/ComparatorEnum#EQ> ;
    cosmos_sdtm:isNonStandard false ;
    cosmos_sdtm:mandatoryValue true ;
    cosmos_sdtm:mandatoryVariable true ;
    cosmos_sdtm:name "QSTESTCD" ;
    cosmos_sdtm:originSource NCIT:C70793 ;
    cosmos_sdtm:originType NCIT:C170547 ;
    cosmos_sdtm:relationship <https://w3id.org/cdisc/cosmos/dss/QS/CES0106/QSTESTCD/relationship> ;
    cosmos_sdtm:role <https://www.cdisc.org/cosmos/sdtm_v1.0/RoleEnum#Topic> .

<https://w3id.org/cdisc/cosmos/dss/QS/CES0107/QSCAT> a cosmos_sdtm:SDTMVariable ;
    cosmos_sdtm:assignedTerm <https://w3id.org/cdisc/cosmos/dss/QS/CES0107/QSCAT/assignedTerm> ;
    cosmos_sdtm:codelist NCIT:C100129 ;
    cosmos_sdtm:comparator <https://www.cdisc.org/cosmos/sdtm_v1.0/ComparatorEnum#EQ> ;
    cosmos_sdtm:dataElementConceptId NCIT:C25372 ;
    cosmos_sdtm:isNonStandard false ;
    cosmos_sdtm:mandatoryValue true ;
    cosmos_sdtm:mandatoryVariable true ;
    cosmos_sdtm:name "QSCAT" ;
    cosmos_sdtm:originSource NCIT:C70793 ;
    cosmos_sdtm:originType NCIT:C170547 ;
    cosmos_sdtm:relationship <https://w3id.org/cdisc/cosmos/dss/QS/CES0107/QSCAT/relationship> ;
    cosmos_sdtm:role <https://www.cdisc.org/cosmos/sdtm_v1.0/RoleEnum#Qualifier> .

<https://w3id.org/cdisc/cosmos/dss/QS/CES0107/QSDTC> a cosmos_sdtm:SDTMVariable ;
    cosmos_sdtm:dataElementConceptId NCIT:C82515 ;
    cosmos_sdtm:isNonStandard false ;
    cosmos_sdtm:mandatoryValue false ;
    cosmos_sdtm:mandatoryVariable true ;
    cosmos_sdtm:name "QSDTC" ;
    cosmos_sdtm:relationship <https://w3id.org/cdisc/cosmos/dss/QS/CES0107/QSDTC/relationship> ;
    cosmos_sdtm:role <https://www.cdisc.org/cosmos/sdtm_v1.0/RoleEnum#Timing> .

<https://w3id.org/cdisc/cosmos/dss/QS/CES0107/QSORRES> a cosmos_sdtm:SDTMVariable ;
    cosmos_sdtm:codelist NCIT:C179949 ;
    cosmos_sdtm:dataElementConceptId NCIT:C91106 ;
    cosmos_sdtm:dataType <https://www.cdisc.org/cosmos/sdtm_v1.0/SDTMVariableDataTypeEnum#text> ;
    cosmos_sdtm:isNonStandard false ;
    cosmos_sdtm:length 20 ;
    cosmos_sdtm:mandatoryValue false ;
    cosmos_sdtm:mandatoryVariable true ;
    cosmos_sdtm:name "QSORRES" ;
    cosmos_sdtm:originSource NCIT:C25936 ;
    cosmos_sdtm:originType NCIT:C170548 ;
    cosmos_sdtm:relationship <https://w3id.org/cdisc/cosmos/dss/QS/CES0107/QSORRES/relationship> ;
    cosmos_sdtm:role <https://www.cdisc.org/cosmos/sdtm_v1.0/RoleEnum#Qualifier> ;
    cosmos_sdtm:vlmTarget true .

<https://w3id.org/cdisc/cosmos/dss/QS/CES0107/QSSTRESC> a cosmos_sdtm:SDTMVariable ;
    cosmos_sdtm:codelist NCIT:C179954 ;
    cosmos_sdtm:dataElementConceptId NCIT:C46126 ;
    cosmos_sdtm:dataType <https://www.cdisc.org/cosmos/sdtm_v1.0/SDTMVariableDataTypeEnum#integer> ;
    cosmos_sdtm:isNonStandard false ;
    cosmos_sdtm:length 1 ;
    cosmos_sdtm:mandatoryValue false ;
    cosmos_sdtm:mandatoryVariable true ;
    cosmos_sdtm:name "QSSTRESC" ;
    cosmos_sdtm:originSource NCIT:C70793 ;
    cosmos_sdtm:originType NCIT:C170549 ;
    cosmos_sdtm:relationship <https://w3id.org/cdisc/cosmos/dss/QS/CES0107/QSSTRESC/relationship> ;
    cosmos_sdtm:role <https://www.cdisc.org/cosmos/sdtm_v1.0/RoleEnum#Qualifier> ;
    cosmos_sdtm:vlmTarget true .

<https://w3id.org/cdisc/cosmos/dss/QS/CES0107/QSSTRESN> a cosmos_sdtm:SDTMVariable ;
    cosmos_sdtm:codelist NCIT:C179954 ;
    cosmos_sdtm:dataElementConceptId NCIT:C46126 ;
    cosmos_sdtm:dataType <https://www.cdisc.org/cosmos/sdtm_v1.0/SDTMVariableDataTypeEnum#integer> ;
    cosmos_sdtm:isNonStandard false ;
    cosmos_sdtm:length 1 ;
    cosmos_sdtm:mandatoryValue false ;
    cosmos_sdtm:mandatoryVariable true ;
    cosmos_sdtm:name "QSSTRESN" ;
    cosmos_sdtm:originSource NCIT:C70793 ;
    cosmos_sdtm:originType NCIT:C170549 ;
    cosmos_sdtm:relationship <https://w3id.org/cdisc/cosmos/dss/QS/CES0107/QSSTRESN/relationship> ;
    cosmos_sdtm:role <https://www.cdisc.org/cosmos/sdtm_v1.0/RoleEnum#Qualifier> ;
    cosmos_sdtm:vlmTarget true .

<https://w3id.org/cdisc/cosmos/dss/QS/CES0107/QSTEST> a cosmos_sdtm:SDTMVariable ;
    cosmos_sdtm:assignedTerm <https://w3id.org/cdisc/cosmos/dss/QS/CES0107/QSTEST/assignedTerm> ;
    cosmos_sdtm:codelist NCIT:C132518 ;
    cosmos_sdtm:isNonStandard false ;
    cosmos_sdtm:mandatoryValue true ;
    cosmos_sdtm:mandatoryVariable true ;
    cosmos_sdtm:name "QSTEST" ;
    cosmos_sdtm:originSource NCIT:C70793 ;
    cosmos_sdtm:originType NCIT:C170547 ;
    cosmos_sdtm:relationship <https://w3id.org/cdisc/cosmos/dss/QS/CES0107/QSTEST/relationship> ;
    cosmos_sdtm:role <https://www.cdisc.org/cosmos/sdtm_v1.0/RoleEnum#Qualifier> .

<https://w3id.org/cdisc/cosmos/dss/QS/CES0107/QSTESTCD> a cosmos_sdtm:SDTMVariable ;
    cosmos_sdtm:assignedTerm <https://w3id.org/cdisc/cosmos/dss/QS/CES0107/QSTESTCD/assignedTerm> ;
    cosmos_sdtm:codelist NCIT:C132519 ;
    cosmos_sdtm:comparator <https://www.cdisc.org/cosmos/sdtm_v1.0/ComparatorEnum#EQ> ;
    cosmos_sdtm:isNonStandard false ;
    cosmos_sdtm:mandatoryValue true ;
    cosmos_sdtm:mandatoryVariable true ;
    cosmos_sdtm:name "QSTESTCD" ;
    cosmos_sdtm:originSource NCIT:C70793 ;
    cosmos_sdtm:originType NCIT:C170547 ;
    cosmos_sdtm:relationship <https://w3id.org/cdisc/cosmos/dss/QS/CES0107/QSTESTCD/relationship> ;
    cosmos_sdtm:role <https://www.cdisc.org/cosmos/sdtm_v1.0/RoleEnum#Topic> .

<https://w3id.org/cdisc/cosmos/dss/QS/EQ5D0201/QSCAT> a cosmos_sdtm:SDTMVariable ;
    cosmos_sdtm:assignedTerm <https://w3id.org/cdisc/cosmos/dss/QS/EQ5D0201/QSCAT/assignedTerm> ;
    cosmos_sdtm:codelist NCIT:C100129 ;
    cosmos_sdtm:comparator <https://www.cdisc.org/cosmos/sdtm_v1.0/ComparatorEnum#EQ> ;
    cosmos_sdtm:dataElementConceptId NCIT:C25372 ;
    cosmos_sdtm:isNonStandard false ;
    cosmos_sdtm:mandatoryValue true ;
    cosmos_sdtm:mandatoryVariable true ;
    cosmos_sdtm:name "QSCAT" ;
    cosmos_sdtm:originSource NCIT:C70793 ;
    cosmos_sdtm:originType NCIT:C170547 ;
    cosmos_sdtm:relationship <https://w3id.org/cdisc/cosmos/dss/QS/EQ5D0201/QSCAT/relationship> ;
    cosmos_sdtm:role <https://www.cdisc.org/cosmos/sdtm_v1.0/RoleEnum#Qualifier> .

<https://w3id.org/cdisc/cosmos/dss/QS/EQ5D0201/QSDTC> a cosmos_sdtm:SDTMVariable ;
    cosmos_sdtm:dataElementConceptId NCIT:C82515 ;
    cosmos_sdtm:isNonStandard false ;
    cosmos_sdtm:mandatoryValue false ;
    cosmos_sdtm:mandatoryVariable true ;
    cosmos_sdtm:name "QSDTC" ;
    cosmos_sdtm:relationship <https://w3id.org/cdisc/cosmos/dss/QS/EQ5D0201/QSDTC/relationship> ;
    cosmos_sdtm:role <https://www.cdisc.org/cosmos/sdtm_v1.0/RoleEnum#Timing> .

<https://w3id.org/cdisc/cosmos/dss/QS/EQ5D0201/QSEVINTX> a cosmos_sdtm:SDTMVariable ;
    cosmos_sdtm:assignedTerm <https://w3id.org/cdisc/cosmos/dss/QS/EQ5D0201/QSEVINTX/assignedTerm> ;
    cosmos_sdtm:dataElementConceptId NCIT:C82534 ;
    cosmos_sdtm:isNonStandard false ;
    cosmos_sdtm:mandatoryValue false ;
    cosmos_sdtm:mandatoryVariable true ;
    cosmos_sdtm:name "QSEVINTX" ;
    cosmos_sdtm:originSource NCIT:C70793 ;
    cosmos_sdtm:originType NCIT:C170547 ;
    cosmos_sdtm:relationship <https://w3id.org/cdisc/cosmos/dss/QS/EQ5D0201/QSEVINTX/relationship> ;
    cosmos_sdtm:role <https://www.cdisc.org/cosmos/sdtm_v1.0/RoleEnum#Timing> .

<https://w3id.org/cdisc/cosmos/dss/QS/EQ5D0201/QSORRES> a cosmos_sdtm:SDTMVariable ;
    cosmos_sdtm:dataElementConceptId NCIT:C91106 ;
    cosmos_sdtm:dataType <https://www.cdisc.org/cosmos/sdtm_v1.0/SDTMVariableDataTypeEnum#text> ;
    cosmos_sdtm:isNonStandard false ;
    cosmos_sdtm:length 60 ;
    cosmos_sdtm:mandatoryValue false ;
    cosmos_sdtm:mandatoryVariable true ;
    cosmos_sdtm:name "QSORRES" ;
    cosmos_sdtm:originSource NCIT:C25936 ;
    cosmos_sdtm:originType NCIT:C170548 ;
    cosmos_sdtm:relationship <https://w3id.org/cdisc/cosmos/dss/QS/EQ5D0201/QSORRES/relationship> ;
    cosmos_sdtm:role <https://www.cdisc.org/cosmos/sdtm_v1.0/RoleEnum#Qualifier> ;
    cosmos_sdtm:valueList "I am unable to walk",
        "I have moderate problems walking",
        "I have no problems walking",
        "I have severe problems walking",
        "I have slight problems walking" ;
    cosmos_sdtm:vlmTarget true .

<https://w3id.org/cdisc/cosmos/dss/QS/EQ5D0201/QSSTRESC> a cosmos_sdtm:SDTMVariable ;
    cosmos_sdtm:dataElementConceptId NCIT:C46126 ;
    cosmos_sdtm:dataType <https://www.cdisc.org/cosmos/sdtm_v1.0/SDTMVariableDataTypeEnum#integer> ;
    cosmos_sdtm:isNonStandard false ;
    cosmos_sdtm:length 1 ;
    cosmos_sdtm:mandatoryValue false ;
    cosmos_sdtm:mandatoryVariable true ;
    cosmos_sdtm:name "QSSTRESC" ;
    cosmos_sdtm:originSource NCIT:C70793 ;
    cosmos_sdtm:originType NCIT:C170549 ;
    cosmos_sdtm:relationship <https://w3id.org/cdisc/cosmos/dss/QS/EQ5D0201/QSSTRESC/relationship> ;
    cosmos_sdtm:role <https://www.cdisc.org/cosmos/sdtm_v1.0/RoleEnum#Qualifier> ;
    cosmos_sdtm:valueList "1",
        "2",
        "3",
        "4",
        "5" ;
    cosmos_sdtm:vlmTarget true .

<https://w3id.org/cdisc/cosmos/dss/QS/EQ5D0201/QSSTRESN> a cosmos_sdtm:SDTMVariable ;
    cosmos_sdtm:dataElementConceptId NCIT:C46126 ;
    cosmos_sdtm:dataType <https://www.cdisc.org/cosmos/sdtm_v1.0/SDTMVariableDataTypeEnum#integer> ;
    cosmos_sdtm:isNonStandard false ;
    cosmos_sdtm:length 1 ;
    cosmos_sdtm:mandatoryValue false ;
    cosmos_sdtm:mandatoryVariable true ;
    cosmos_sdtm:name "QSSTRESN" ;
    cosmos_sdtm:originSource NCIT:C70793 ;
    cosmos_sdtm:originType NCIT:C170549 ;
    cosmos_sdtm:relationship <https://w3id.org/cdisc/cosmos/dss/QS/EQ5D0201/QSSTRESN/relationship> ;
    cosmos_sdtm:role <https://www.cdisc.org/cosmos/sdtm_v1.0/RoleEnum#Qualifier> ;
    cosmos_sdtm:valueList "1",
        "2",
        "3",
        "4",
        "5" ;
    cosmos_sdtm:vlmTarget true .

<https://w3id.org/cdisc/cosmos/dss/QS/EQ5D0201/QSTEST> a cosmos_sdtm:SDTMVariable ;
    cosmos_sdtm:assignedTerm <https://w3id.org/cdisc/cosmos/dss/QS/EQ5D0201/QSTEST/assignedTerm> ;
    cosmos_sdtm:codelist NCIT:C101818 ;
    cosmos_sdtm:isNonStandard false ;
    cosmos_sdtm:mandatoryValue true ;
    cosmos_sdtm:mandatoryVariable true ;
    cosmos_sdtm:name "QSTEST" ;
    cosmos_sdtm:originSource NCIT:C70793 ;
    cosmos_sdtm:originType NCIT:C170547 ;
    cosmos_sdtm:relationship <https://w3id.org/cdisc/cosmos/dss/QS/EQ5D0201/QSTEST/relationship> ;
    cosmos_sdtm:role <https://www.cdisc.org/cosmos/sdtm_v1.0/RoleEnum#Qualifier> .

<https://w3id.org/cdisc/cosmos/dss/QS/EQ5D0201/QSTESTCD> a cosmos_sdtm:SDTMVariable ;
    cosmos_sdtm:assignedTerm <https://w3id.org/cdisc/cosmos/dss/QS/EQ5D0201/QSTESTCD/assignedTerm> ;
    cosmos_sdtm:codelist NCIT:C101817 ;
    cosmos_sdtm:comparator <https://www.cdisc.org/cosmos/sdtm_v1.0/ComparatorEnum#EQ> ;
    cosmos_sdtm:isNonStandard false ;
    cosmos_sdtm:mandatoryValue true ;
    cosmos_sdtm:mandatoryVariable true ;
    cosmos_sdtm:name "QSTESTCD" ;
    cosmos_sdtm:originSource NCIT:C70793 ;
    cosmos_sdtm:originType NCIT:C170547 ;
    cosmos_sdtm:relationship <https://w3id.org/cdisc/cosmos/dss/QS/EQ5D0201/QSTESTCD/relationship> ;
    cosmos_sdtm:role <https://www.cdisc.org/cosmos/sdtm_v1.0/RoleEnum#Topic> .

<https://w3id.org/cdisc/cosmos/dss/QS/EQ5D0202/QSCAT> a cosmos_sdtm:SDTMVariable ;
    cosmos_sdtm:assignedTerm <https://w3id.org/cdisc/cosmos/dss/QS/EQ5D0202/QSCAT/assignedTerm> ;
    cosmos_sdtm:codelist NCIT:C100129 ;
    cosmos_sdtm:comparator <https://www.cdisc.org/cosmos/sdtm_v1.0/ComparatorEnum#EQ> ;
    cosmos_sdtm:dataElementConceptId NCIT:C25372 ;
    cosmos_sdtm:isNonStandard false ;
    cosmos_sdtm:mandatoryValue true ;
    cosmos_sdtm:mandatoryVariable true ;
    cosmos_sdtm:name "QSCAT" ;
    cosmos_sdtm:originSource NCIT:C70793 ;
    cosmos_sdtm:originType NCIT:C170547 ;
    cosmos_sdtm:relationship <https://w3id.org/cdisc/cosmos/dss/QS/EQ5D0202/QSCAT/relationship> ;
    cosmos_sdtm:role <https://www.cdisc.org/cosmos/sdtm_v1.0/RoleEnum#Qualifier> .

<https://w3id.org/cdisc/cosmos/dss/QS/EQ5D0202/QSDTC> a cosmos_sdtm:SDTMVariable ;
    cosmos_sdtm:dataElementConceptId NCIT:C82515 ;
    cosmos_sdtm:isNonStandard false ;
    cosmos_sdtm:mandatoryValue false ;
    cosmos_sdtm:mandatoryVariable true ;
    cosmos_sdtm:name "QSDTC" ;
    cosmos_sdtm:relationship <https://w3id.org/cdisc/cosmos/dss/QS/EQ5D0202/QSDTC/relationship> ;
    cosmos_sdtm:role <https://www.cdisc.org/cosmos/sdtm_v1.0/RoleEnum#Timing> .

<https://w3id.org/cdisc/cosmos/dss/QS/EQ5D0202/QSEVINTX> a cosmos_sdtm:SDTMVariable ;
    cosmos_sdtm:assignedTerm <https://w3id.org/cdisc/cosmos/dss/QS/EQ5D0202/QSEVINTX/assignedTerm> ;
    cosmos_sdtm:dataElementConceptId NCIT:C82534 ;
    cosmos_sdtm:isNonStandard false ;
    cosmos_sdtm:mandatoryValue false ;
    cosmos_sdtm:mandatoryVariable true ;
    cosmos_sdtm:name "QSEVINTX" ;
    cosmos_sdtm:originSource NCIT:C70793 ;
    cosmos_sdtm:originType NCIT:C170547 ;
    cosmos_sdtm:relationship <https://w3id.org/cdisc/cosmos/dss/QS/EQ5D0202/QSEVINTX/relationship> ;
    cosmos_sdtm:role <https://www.cdisc.org/cosmos/sdtm_v1.0/RoleEnum#Timing> .

<https://w3id.org/cdisc/cosmos/dss/QS/EQ5D0202/QSORRES> a cosmos_sdtm:SDTMVariable ;
    cosmos_sdtm:dataElementConceptId NCIT:C91106 ;
    cosmos_sdtm:dataType <https://www.cdisc.org/cosmos/sdtm_v1.0/SDTMVariableDataTypeEnum#text> ;
    cosmos_sdtm:isNonStandard false ;
    cosmos_sdtm:length 60 ;
    cosmos_sdtm:mandatoryValue false ;
    cosmos_sdtm:mandatoryVariable true ;
    cosmos_sdtm:name "QSORRES" ;
    cosmos_sdtm:originSource NCIT:C25936 ;
    cosmos_sdtm:originType NCIT:C170548 ;
    cosmos_sdtm:relationship <https://w3id.org/cdisc/cosmos/dss/QS/EQ5D0202/QSORRES/relationship> ;
    cosmos_sdtm:role <https://www.cdisc.org/cosmos/sdtm_v1.0/RoleEnum#Qualifier> ;
    cosmos_sdtm:valueList "I am unable to wash or dress myself",
        "I have moderate problems washing or dressing myself",
        "I have no problems washing or dressing myself",
        "I have severe problems washing or dressing myself",
        "I have slight problems washing or dressing myself" ;
    cosmos_sdtm:vlmTarget true .

<https://w3id.org/cdisc/cosmos/dss/QS/EQ5D0202/QSSTRESC> a cosmos_sdtm:SDTMVariable ;
    cosmos_sdtm:dataElementConceptId NCIT:C46126 ;
    cosmos_sdtm:dataType <https://www.cdisc.org/cosmos/sdtm_v1.0/SDTMVariableDataTypeEnum#integer> ;
    cosmos_sdtm:isNonStandard false ;
    cosmos_sdtm:length 1 ;
    cosmos_sdtm:mandatoryValue false ;
    cosmos_sdtm:mandatoryVariable true ;
    cosmos_sdtm:name "QSSTRESC" ;
    cosmos_sdtm:originSource NCIT:C70793 ;
    cosmos_sdtm:originType NCIT:C170549 ;
    cosmos_sdtm:relationship <https://w3id.org/cdisc/cosmos/dss/QS/EQ5D0202/QSSTRESC/relationship> ;
    cosmos_sdtm:role <https://www.cdisc.org/cosmos/sdtm_v1.0/RoleEnum#Qualifier> ;
    cosmos_sdtm:valueList "1",
        "2",
        "3",
        "4",
        "5" ;
    cosmos_sdtm:vlmTarget true .

<https://w3id.org/cdisc/cosmos/dss/QS/EQ5D0202/QSSTRESN> a cosmos_sdtm:SDTMVariable ;
    cosmos_sdtm:dataElementConceptId NCIT:C46126 ;
    cosmos_sdtm:dataType <https://www.cdisc.org/cosmos/sdtm_v1.0/SDTMVariableDataTypeEnum#integer> ;
    cosmos_sdtm:isNonStandard false ;
    cosmos_sdtm:length 1 ;
    cosmos_sdtm:mandatoryValue false ;
    cosmos_sdtm:mandatoryVariable true ;
    cosmos_sdtm:name "QSSTRESN" ;
    cosmos_sdtm:originSource NCIT:C70793 ;
    cosmos_sdtm:originType NCIT:C170549 ;
    cosmos_sdtm:relationship <https://w3id.org/cdisc/cosmos/dss/QS/EQ5D0202/QSSTRESN/relationship> ;
    cosmos_sdtm:role <https://www.cdisc.org/cosmos/sdtm_v1.0/RoleEnum#Qualifier> ;
    cosmos_sdtm:valueList "1",
        "2",
        "3",
        "4",
        "5" ;
    cosmos_sdtm:vlmTarget true .

<https://w3id.org/cdisc/cosmos/dss/QS/EQ5D0202/QSTEST> a cosmos_sdtm:SDTMVariable ;
    cosmos_sdtm:assignedTerm <https://w3id.org/cdisc/cosmos/dss/QS/EQ5D0202/QSTEST/assignedTerm> ;
    cosmos_sdtm:codelist NCIT:C101818 ;
    cosmos_sdtm:isNonStandard false ;
    cosmos_sdtm:mandatoryValue true ;
    cosmos_sdtm:mandatoryVariable true ;
    cosmos_sdtm:name "QSTEST" ;
    cosmos_sdtm:originSource NCIT:C70793 ;
    cosmos_sdtm:originType NCIT:C170547 ;
    cosmos_sdtm:relationship <https://w3id.org/cdisc/cosmos/dss/QS/EQ5D0202/QSTEST/relationship> ;
    cosmos_sdtm:role <https://www.cdisc.org/cosmos/sdtm_v1.0/RoleEnum#Qualifier> .

<https://w3id.org/cdisc/cosmos/dss/QS/EQ5D0202/QSTESTCD> a cosmos_sdtm:SDTMVariable ;
    cosmos_sdtm:assignedTerm <https://w3id.org/cdisc/cosmos/dss/QS/EQ5D0202/QSTESTCD/assignedTerm> ;
    cosmos_sdtm:codelist NCIT:C101817 ;
    cosmos_sdtm:comparator <https://www.cdisc.org/cosmos/sdtm_v1.0/ComparatorEnum#EQ> ;
    cosmos_sdtm:isNonStandard false ;
    cosmos_sdtm:mandatoryValue true ;
    cosmos_sdtm:mandatoryVariable true ;
    cosmos_sdtm:name "QSTESTCD" ;
    cosmos_sdtm:originSource NCIT:C70793 ;
    cosmos_sdtm:originType NCIT:C170547 ;
    cosmos_sdtm:relationship <https://w3id.org/cdisc/cosmos/dss/QS/EQ5D0202/QSTESTCD/relationship> ;
    cosmos_sdtm:role <https://www.cdisc.org/cosmos/sdtm_v1.0/RoleEnum#Topic> .

<https://w3id.org/cdisc/cosmos/dss/QS/EQ5D0203/QSCAT> a cosmos_sdtm:SDTMVariable ;
    cosmos_sdtm:assignedTerm <https://w3id.org/cdisc/cosmos/dss/QS/EQ5D0203/QSCAT/assignedTerm> ;
    cosmos_sdtm:codelist NCIT:C100129 ;
    cosmos_sdtm:comparator <https://www.cdisc.org/cosmos/sdtm_v1.0/ComparatorEnum#EQ> ;
    cosmos_sdtm:dataElementConceptId NCIT:C25372 ;
    cosmos_sdtm:isNonStandard false ;
    cosmos_sdtm:mandatoryValue true ;
    cosmos_sdtm:mandatoryVariable true ;
    cosmos_sdtm:name "QSCAT" ;
    cosmos_sdtm:originSource NCIT:C70793 ;
    cosmos_sdtm:originType NCIT:C170547 ;
    cosmos_sdtm:relationship <https://w3id.org/cdisc/cosmos/dss/QS/EQ5D0203/QSCAT/relationship> ;
    cosmos_sdtm:role <https://www.cdisc.org/cosmos/sdtm_v1.0/RoleEnum#Qualifier> .

<https://w3id.org/cdisc/cosmos/dss/QS/EQ5D0203/QSDTC> a cosmos_sdtm:SDTMVariable ;
    cosmos_sdtm:dataElementConceptId NCIT:C82515 ;
    cosmos_sdtm:isNonStandard false ;
    cosmos_sdtm:mandatoryValue false ;
    cosmos_sdtm:mandatoryVariable true ;
    cosmos_sdtm:name "QSDTC" ;
    cosmos_sdtm:relationship <https://w3id.org/cdisc/cosmos/dss/QS/EQ5D0203/QSDTC/relationship> ;
    cosmos_sdtm:role <https://www.cdisc.org/cosmos/sdtm_v1.0/RoleEnum#Timing> .

<https://w3id.org/cdisc/cosmos/dss/QS/EQ5D0203/QSEVINTX> a cosmos_sdtm:SDTMVariable ;
    cosmos_sdtm:assignedTerm <https://w3id.org/cdisc/cosmos/dss/QS/EQ5D0203/QSEVINTX/assignedTerm> ;
    cosmos_sdtm:dataElementConceptId NCIT:C82534 ;
    cosmos_sdtm:isNonStandard false ;
    cosmos_sdtm:mandatoryValue false ;
    cosmos_sdtm:mandatoryVariable true ;
    cosmos_sdtm:name "QSEVINTX" ;
    cosmos_sdtm:originSource NCIT:C70793 ;
    cosmos_sdtm:originType NCIT:C170547 ;
    cosmos_sdtm:relationship <https://w3id.org/cdisc/cosmos/dss/QS/EQ5D0203/QSEVINTX/relationship> ;
    cosmos_sdtm:role <https://www.cdisc.org/cosmos/sdtm_v1.0/RoleEnum#Timing> .

<https://w3id.org/cdisc/cosmos/dss/QS/EQ5D0203/QSORRES> a cosmos_sdtm:SDTMVariable ;
    cosmos_sdtm:dataElementConceptId NCIT:C91106 ;
    cosmos_sdtm:dataType <https://www.cdisc.org/cosmos/sdtm_v1.0/SDTMVariableDataTypeEnum#text> ;
    cosmos_sdtm:isNonStandard false ;
    cosmos_sdtm:length 60 ;
    cosmos_sdtm:mandatoryValue false ;
    cosmos_sdtm:mandatoryVariable true ;
    cosmos_sdtm:name "QSORRES" ;
    cosmos_sdtm:originSource NCIT:C25936 ;
    cosmos_sdtm:originType NCIT:C170548 ;
    cosmos_sdtm:relationship <https://w3id.org/cdisc/cosmos/dss/QS/EQ5D0203/QSORRES/relationship> ;
    cosmos_sdtm:role <https://www.cdisc.org/cosmos/sdtm_v1.0/RoleEnum#Qualifier> ;
    cosmos_sdtm:valueList "I am unable to do my usual activities",
        "I have moderate problems doing my usual activities",
        "I have no problems doing my usual activities",
        "I have severe problems doing my usual activities",
        "I have slight problems doing my usual activities" ;
    cosmos_sdtm:vlmTarget true .

<https://w3id.org/cdisc/cosmos/dss/QS/EQ5D0203/QSSTRESC> a cosmos_sdtm:SDTMVariable ;
    cosmos_sdtm:dataElementConceptId NCIT:C46126 ;
    cosmos_sdtm:dataType <https://www.cdisc.org/cosmos/sdtm_v1.0/SDTMVariableDataTypeEnum#integer> ;
    cosmos_sdtm:isNonStandard false ;
    cosmos_sdtm:length 1 ;
    cosmos_sdtm:mandatoryValue false ;
    cosmos_sdtm:mandatoryVariable true ;
    cosmos_sdtm:name "QSSTRESC" ;
    cosmos_sdtm:originSource NCIT:C70793 ;
    cosmos_sdtm:originType NCIT:C170549 ;
    cosmos_sdtm:relationship <https://w3id.org/cdisc/cosmos/dss/QS/EQ5D0203/QSSTRESC/relationship> ;
    cosmos_sdtm:role <https://www.cdisc.org/cosmos/sdtm_v1.0/RoleEnum#Qualifier> ;
    cosmos_sdtm:valueList "1",
        "2",
        "3",
        "4",
        "5" ;
    cosmos_sdtm:vlmTarget true .

<https://w3id.org/cdisc/cosmos/dss/QS/EQ5D0203/QSSTRESN> a cosmos_sdtm:SDTMVariable ;
    cosmos_sdtm:dataElementConceptId NCIT:C46126 ;
    cosmos_sdtm:dataType <https://www.cdisc.org/cosmos/sdtm_v1.0/SDTMVariableDataTypeEnum#integer> ;
    cosmos_sdtm:isNonStandard false ;
    cosmos_sdtm:length 1 ;
    cosmos_sdtm:mandatoryValue false ;
    cosmos_sdtm:mandatoryVariable true ;
    cosmos_sdtm:name "QSSTRESN" ;
    cosmos_sdtm:originSource NCIT:C70793 ;
    cosmos_sdtm:originType NCIT:C170549 ;
    cosmos_sdtm:relationship <https://w3id.org/cdisc/cosmos/dss/QS/EQ5D0203/QSSTRESN/relationship> ;
    cosmos_sdtm:role <https://www.cdisc.org/cosmos/sdtm_v1.0/RoleEnum#Qualifier> ;
    cosmos_sdtm:valueList "1",
        "2",
        "3",
        "4",
        "5" ;
    cosmos_sdtm:vlmTarget true .

<https://w3id.org/cdisc/cosmos/dss/QS/EQ5D0203/QSTEST> a cosmos_sdtm:SDTMVariable ;
    cosmos_sdtm:assignedTerm <https://w3id.org/cdisc/cosmos/dss/QS/EQ5D0203/QSTEST/assignedTerm> ;
    cosmos_sdtm:codelist NCIT:C101818 ;
    cosmos_sdtm:isNonStandard false ;
    cosmos_sdtm:mandatoryValue true ;
    cosmos_sdtm:mandatoryVariable true ;
    cosmos_sdtm:name "QSTEST" ;
    cosmos_sdtm:originSource NCIT:C70793 ;
    cosmos_sdtm:originType NCIT:C170547 ;
    cosmos_sdtm:relationship <https://w3id.org/cdisc/cosmos/dss/QS/EQ5D0203/QSTEST/relationship> ;
    cosmos_sdtm:role <https://www.cdisc.org/cosmos/sdtm_v1.0/RoleEnum#Qualifier> .

<https://w3id.org/cdisc/cosmos/dss/QS/EQ5D0203/QSTESTCD> a cosmos_sdtm:SDTMVariable ;
    cosmos_sdtm:assignedTerm <https://w3id.org/cdisc/cosmos/dss/QS/EQ5D0203/QSTESTCD/assignedTerm> ;
    cosmos_sdtm:codelist NCIT:C101817 ;
    cosmos_sdtm:comparator <https://www.cdisc.org/cosmos/sdtm_v1.0/ComparatorEnum#EQ> ;
    cosmos_sdtm:isNonStandard false ;
    cosmos_sdtm:mandatoryValue true ;
    cosmos_sdtm:mandatoryVariable true ;
    cosmos_sdtm:name "QSTESTCD" ;
    cosmos_sdtm:originSource NCIT:C70793 ;
    cosmos_sdtm:originType NCIT:C170547 ;
    cosmos_sdtm:relationship <https://w3id.org/cdisc/cosmos/dss/QS/EQ5D0203/QSTESTCD/relationship> ;
    cosmos_sdtm:role <https://www.cdisc.org/cosmos/sdtm_v1.0/RoleEnum#Topic> .

<https://w3id.org/cdisc/cosmos/dss/QS/EQ5D0204/QSCAT> a cosmos_sdtm:SDTMVariable ;
    cosmos_sdtm:assignedTerm <https://w3id.org/cdisc/cosmos/dss/QS/EQ5D0204/QSCAT/assignedTerm> ;
    cosmos_sdtm:codelist NCIT:C100129 ;
    cosmos_sdtm:comparator <https://www.cdisc.org/cosmos/sdtm_v1.0/ComparatorEnum#EQ> ;
    cosmos_sdtm:dataElementConceptId NCIT:C25372 ;
    cosmos_sdtm:isNonStandard false ;
    cosmos_sdtm:mandatoryValue true ;
    cosmos_sdtm:mandatoryVariable true ;
    cosmos_sdtm:name "QSCAT" ;
    cosmos_sdtm:originSource NCIT:C70793 ;
    cosmos_sdtm:originType NCIT:C170547 ;
    cosmos_sdtm:relationship <https://w3id.org/cdisc/cosmos/dss/QS/EQ5D0204/QSCAT/relationship> ;
    cosmos_sdtm:role <https://www.cdisc.org/cosmos/sdtm_v1.0/RoleEnum#Qualifier> .

<https://w3id.org/cdisc/cosmos/dss/QS/EQ5D0204/QSDTC> a cosmos_sdtm:SDTMVariable ;
    cosmos_sdtm:dataElementConceptId NCIT:C82515 ;
    cosmos_sdtm:isNonStandard false ;
    cosmos_sdtm:mandatoryValue false ;
    cosmos_sdtm:mandatoryVariable true ;
    cosmos_sdtm:name "QSDTC" ;
    cosmos_sdtm:relationship <https://w3id.org/cdisc/cosmos/dss/QS/EQ5D0204/QSDTC/relationship> ;
    cosmos_sdtm:role <https://www.cdisc.org/cosmos/sdtm_v1.0/RoleEnum#Timing> .

<https://w3id.org/cdisc/cosmos/dss/QS/EQ5D0204/QSEVINTX> a cosmos_sdtm:SDTMVariable ;
    cosmos_sdtm:assignedTerm <https://w3id.org/cdisc/cosmos/dss/QS/EQ5D0204/QSEVINTX/assignedTerm> ;
    cosmos_sdtm:dataElementConceptId NCIT:C82534 ;
    cosmos_sdtm:isNonStandard false ;
    cosmos_sdtm:mandatoryValue false ;
    cosmos_sdtm:mandatoryVariable true ;
    cosmos_sdtm:name "QSEVINTX" ;
    cosmos_sdtm:originSource NCIT:C70793 ;
    cosmos_sdtm:originType NCIT:C170547 ;
    cosmos_sdtm:relationship <https://w3id.org/cdisc/cosmos/dss/QS/EQ5D0204/QSEVINTX/relationship> ;
    cosmos_sdtm:role <https://www.cdisc.org/cosmos/sdtm_v1.0/RoleEnum#Timing> .

<https://w3id.org/cdisc/cosmos/dss/QS/EQ5D0204/QSORRES> a cosmos_sdtm:SDTMVariable ;
    cosmos_sdtm:dataElementConceptId NCIT:C91106 ;
    cosmos_sdtm:dataType <https://www.cdisc.org/cosmos/sdtm_v1.0/SDTMVariableDataTypeEnum#text> ;
    cosmos_sdtm:isNonStandard false ;
    cosmos_sdtm:length 60 ;
    cosmos_sdtm:mandatoryValue false ;
    cosmos_sdtm:mandatoryVariable true ;
    cosmos_sdtm:name "QSORRES" ;
    cosmos_sdtm:originSource NCIT:C25936 ;
    cosmos_sdtm:originType NCIT:C170548 ;
    cosmos_sdtm:relationship <https://w3id.org/cdisc/cosmos/dss/QS/EQ5D0204/QSORRES/relationship> ;
    cosmos_sdtm:role <https://www.cdisc.org/cosmos/sdtm_v1.0/RoleEnum#Qualifier> ;
    cosmos_sdtm:valueList "I have extreme pain or discomfort",
        "I have moderate pain or discomfort",
        "I have no pain or discomfort",
        "I have severe pain or discomfort",
        "I have slight pain or discomfort" ;
    cosmos_sdtm:vlmTarget true .

<https://w3id.org/cdisc/cosmos/dss/QS/EQ5D0204/QSSTRESC> a cosmos_sdtm:SDTMVariable ;
    cosmos_sdtm:dataElementConceptId NCIT:C46126 ;
    cosmos_sdtm:dataType <https://www.cdisc.org/cosmos/sdtm_v1.0/SDTMVariableDataTypeEnum#integer> ;
    cosmos_sdtm:isNonStandard false ;
    cosmos_sdtm:length 1 ;
    cosmos_sdtm:mandatoryValue false ;
    cosmos_sdtm:mandatoryVariable true ;
    cosmos_sdtm:name "QSSTRESC" ;
    cosmos_sdtm:originSource NCIT:C70793 ;
    cosmos_sdtm:originType NCIT:C170549 ;
    cosmos_sdtm:relationship <https://w3id.org/cdisc/cosmos/dss/QS/EQ5D0204/QSSTRESC/relationship> ;
    cosmos_sdtm:role <https://www.cdisc.org/cosmos/sdtm_v1.0/RoleEnum#Qualifier> ;
    cosmos_sdtm:valueList "1",
        "2",
        "3",
        "4",
        "5" ;
    cosmos_sdtm:vlmTarget true .

<https://w3id.org/cdisc/cosmos/dss/QS/EQ5D0204/QSSTRESN> a cosmos_sdtm:SDTMVariable ;
    cosmos_sdtm:dataElementConceptId NCIT:C46126 ;
    cosmos_sdtm:dataType <https://www.cdisc.org/cosmos/sdtm_v1.0/SDTMVariableDataTypeEnum#integer> ;
    cosmos_sdtm:isNonStandard false ;
    cosmos_sdtm:length 1 ;
    cosmos_sdtm:mandatoryValue false ;
    cosmos_sdtm:mandatoryVariable true ;
    cosmos_sdtm:name "QSSTRESN" ;
    cosmos_sdtm:originSource NCIT:C70793 ;
    cosmos_sdtm:originType NCIT:C170549 ;
    cosmos_sdtm:relationship <https://w3id.org/cdisc/cosmos/dss/QS/EQ5D0204/QSSTRESN/relationship> ;
    cosmos_sdtm:role <https://www.cdisc.org/cosmos/sdtm_v1.0/RoleEnum#Qualifier> ;
    cosmos_sdtm:valueList "1",
        "2",
        "3",
        "4",
        "5" ;
    cosmos_sdtm:vlmTarget true .

<https://w3id.org/cdisc/cosmos/dss/QS/EQ5D0204/QSTEST> a cosmos_sdtm:SDTMVariable ;
    cosmos_sdtm:assignedTerm <https://w3id.org/cdisc/cosmos/dss/QS/EQ5D0204/QSTEST/assignedTerm> ;
    cosmos_sdtm:codelist NCIT:C101818 ;
    cosmos_sdtm:isNonStandard false ;
    cosmos_sdtm:mandatoryValue true ;
    cosmos_sdtm:mandatoryVariable true ;
    cosmos_sdtm:name "QSTEST" ;
    cosmos_sdtm:originSource NCIT:C70793 ;
    cosmos_sdtm:originType NCIT:C170547 ;
    cosmos_sdtm:relationship <https://w3id.org/cdisc/cosmos/dss/QS/EQ5D0204/QSTEST/relationship> ;
    cosmos_sdtm:role <https://www.cdisc.org/cosmos/sdtm_v1.0/RoleEnum#Qualifier> .

<https://w3id.org/cdisc/cosmos/dss/QS/EQ5D0204/QSTESTCD> a cosmos_sdtm:SDTMVariable ;
    cosmos_sdtm:assignedTerm <https://w3id.org/cdisc/cosmos/dss/QS/EQ5D0204/QSTESTCD/assignedTerm> ;
    cosmos_sdtm:codelist NCIT:C101817 ;
    cosmos_sdtm:comparator <https://www.cdisc.org/cosmos/sdtm_v1.0/ComparatorEnum#EQ> ;
    cosmos_sdtm:isNonStandard false ;
    cosmos_sdtm:mandatoryValue true ;
    cosmos_sdtm:mandatoryVariable true ;
    cosmos_sdtm:name "QSTESTCD" ;
    cosmos_sdtm:originSource NCIT:C70793 ;
    cosmos_sdtm:originType NCIT:C170547 ;
    cosmos_sdtm:relationship <https://w3id.org/cdisc/cosmos/dss/QS/EQ5D0204/QSTESTCD/relationship> ;
    cosmos_sdtm:role <https://www.cdisc.org/cosmos/sdtm_v1.0/RoleEnum#Topic> .

<https://w3id.org/cdisc/cosmos/dss/QS/EQ5D0205/QSCAT> a cosmos_sdtm:SDTMVariable ;
    cosmos_sdtm:assignedTerm <https://w3id.org/cdisc/cosmos/dss/QS/EQ5D0205/QSCAT/assignedTerm> ;
    cosmos_sdtm:codelist NCIT:C100129 ;
    cosmos_sdtm:comparator <https://www.cdisc.org/cosmos/sdtm_v1.0/ComparatorEnum#EQ> ;
    cosmos_sdtm:dataElementConceptId NCIT:C25372 ;
    cosmos_sdtm:isNonStandard false ;
    cosmos_sdtm:mandatoryValue true ;
    cosmos_sdtm:mandatoryVariable true ;
    cosmos_sdtm:name "QSCAT" ;
    cosmos_sdtm:originSource NCIT:C70793 ;
    cosmos_sdtm:originType NCIT:C170547 ;
    cosmos_sdtm:relationship <https://w3id.org/cdisc/cosmos/dss/QS/EQ5D0205/QSCAT/relationship> ;
    cosmos_sdtm:role <https://www.cdisc.org/cosmos/sdtm_v1.0/RoleEnum#Qualifier> .

<https://w3id.org/cdisc/cosmos/dss/QS/EQ5D0205/QSDTC> a cosmos_sdtm:SDTMVariable ;
    cosmos_sdtm:dataElementConceptId NCIT:C82515 ;
    cosmos_sdtm:isNonStandard false ;
    cosmos_sdtm:mandatoryValue false ;
    cosmos_sdtm:mandatoryVariable true ;
    cosmos_sdtm:name "QSDTC" ;
    cosmos_sdtm:relationship <https://w3id.org/cdisc/cosmos/dss/QS/EQ5D0205/QSDTC/relationship> ;
    cosmos_sdtm:role <https://www.cdisc.org/cosmos/sdtm_v1.0/RoleEnum#Timing> .

<https://w3id.org/cdisc/cosmos/dss/QS/EQ5D0205/QSEVINTX> a cosmos_sdtm:SDTMVariable ;
    cosmos_sdtm:assignedTerm <https://w3id.org/cdisc/cosmos/dss/QS/EQ5D0205/QSEVINTX/assignedTerm> ;
    cosmos_sdtm:dataElementConceptId NCIT:C82534 ;
    cosmos_sdtm:isNonStandard false ;
    cosmos_sdtm:mandatoryValue false ;
    cosmos_sdtm:mandatoryVariable true ;
    cosmos_sdtm:name "QSEVINTX" ;
    cosmos_sdtm:originSource NCIT:C70793 ;
    cosmos_sdtm:originType NCIT:C170547 ;
    cosmos_sdtm:relationship <https://w3id.org/cdisc/cosmos/dss/QS/EQ5D0205/QSEVINTX/relationship> ;
    cosmos_sdtm:role <https://www.cdisc.org/cosmos/sdtm_v1.0/RoleEnum#Timing> .

<https://w3id.org/cdisc/cosmos/dss/QS/EQ5D0205/QSORRES> a cosmos_sdtm:SDTMVariable ;
    cosmos_sdtm:dataElementConceptId NCIT:C91106 ;
    cosmos_sdtm:dataType <https://www.cdisc.org/cosmos/sdtm_v1.0/SDTMVariableDataTypeEnum#text> ;
    cosmos_sdtm:isNonStandard false ;
    cosmos_sdtm:length 60 ;
    cosmos_sdtm:mandatoryValue false ;
    cosmos_sdtm:mandatoryVariable true ;
    cosmos_sdtm:name "QSORRES" ;
    cosmos_sdtm:originSource NCIT:C25936 ;
    cosmos_sdtm:originType NCIT:C170548 ;
    cosmos_sdtm:relationship <https://w3id.org/cdisc/cosmos/dss/QS/EQ5D0205/QSORRES/relationship> ;
    cosmos_sdtm:role <https://www.cdisc.org/cosmos/sdtm_v1.0/RoleEnum#Qualifier> ;
    cosmos_sdtm:valueList "I am extremely anxious or depressed",
        "I am moderately anxious or depressed",
        "I am not anxious or depressed",
        "I am severely anxious or depressed",
        "I am slightly anxious or depressed" ;
    cosmos_sdtm:vlmTarget true .

<https://w3id.org/cdisc/cosmos/dss/QS/EQ5D0205/QSSTRESC> a cosmos_sdtm:SDTMVariable ;
    cosmos_sdtm:dataElementConceptId NCIT:C46126 ;
    cosmos_sdtm:dataType <https://www.cdisc.org/cosmos/sdtm_v1.0/SDTMVariableDataTypeEnum#integer> ;
    cosmos_sdtm:isNonStandard false ;
    cosmos_sdtm:length 1 ;
    cosmos_sdtm:mandatoryValue false ;
    cosmos_sdtm:mandatoryVariable true ;
    cosmos_sdtm:name "QSSTRESC" ;
    cosmos_sdtm:originSource NCIT:C70793 ;
    cosmos_sdtm:originType NCIT:C170549 ;
    cosmos_sdtm:relationship <https://w3id.org/cdisc/cosmos/dss/QS/EQ5D0205/QSSTRESC/relationship> ;
    cosmos_sdtm:role <https://www.cdisc.org/cosmos/sdtm_v1.0/RoleEnum#Qualifier> ;
    cosmos_sdtm:valueList "1",
        "2",
        "3",
        "4",
        "5" ;
    cosmos_sdtm:vlmTarget true .

<https://w3id.org/cdisc/cosmos/dss/QS/EQ5D0205/QSSTRESN> a cosmos_sdtm:SDTMVariable ;
    cosmos_sdtm:dataElementConceptId NCIT:C46126 ;
    cosmos_sdtm:dataType <https://www.cdisc.org/cosmos/sdtm_v1.0/SDTMVariableDataTypeEnum#integer> ;
    cosmos_sdtm:isNonStandard false ;
    cosmos_sdtm:length 1 ;
    cosmos_sdtm:mandatoryValue false ;
    cosmos_sdtm:mandatoryVariable true ;
    cosmos_sdtm:name "QSSTRESN" ;
    cosmos_sdtm:originSource NCIT:C70793 ;
    cosmos_sdtm:originType NCIT:C170549 ;
    cosmos_sdtm:relationship <https://w3id.org/cdisc/cosmos/dss/QS/EQ5D0205/QSSTRESN/relationship> ;
    cosmos_sdtm:role <https://www.cdisc.org/cosmos/sdtm_v1.0/RoleEnum#Qualifier> ;
    cosmos_sdtm:valueList "1",
        "2",
        "3",
        "4",
        "5" ;
    cosmos_sdtm:vlmTarget true .

<https://w3id.org/cdisc/cosmos/dss/QS/EQ5D0205/QSTEST> a cosmos_sdtm:SDTMVariable ;
    cosmos_sdtm:assignedTerm <https://w3id.org/cdisc/cosmos/dss/QS/EQ5D0205/QSTEST/assignedTerm> ;
    cosmos_sdtm:codelist NCIT:C101818 ;
    cosmos_sdtm:isNonStandard false ;
    cosmos_sdtm:mandatoryValue true ;
    cosmos_sdtm:mandatoryVariable true ;
    cosmos_sdtm:name "QSTEST" ;
    cosmos_sdtm:originSource NCIT:C70793 ;
    cosmos_sdtm:originType NCIT:C170547 ;
    cosmos_sdtm:relationship <https://w3id.org/cdisc/cosmos/dss/QS/EQ5D0205/QSTEST/relationship> ;
    cosmos_sdtm:role <https://www.cdisc.org/cosmos/sdtm_v1.0/RoleEnum#Qualifier> .

<https://w3id.org/cdisc/cosmos/dss/QS/EQ5D0205/QSTESTCD> a cosmos_sdtm:SDTMVariable ;
    cosmos_sdtm:assignedTerm <https://w3id.org/cdisc/cosmos/dss/QS/EQ5D0205/QSTESTCD/assignedTerm> ;
    cosmos_sdtm:codelist NCIT:C101817 ;
    cosmos_sdtm:comparator <https://www.cdisc.org/cosmos/sdtm_v1.0/ComparatorEnum#EQ> ;
    cosmos_sdtm:isNonStandard false ;
    cosmos_sdtm:mandatoryValue true ;
    cosmos_sdtm:mandatoryVariable true ;
    cosmos_sdtm:name "QSTESTCD" ;
    cosmos_sdtm:originSource NCIT:C70793 ;
    cosmos_sdtm:originType NCIT:C170547 ;
    cosmos_sdtm:relationship <https://w3id.org/cdisc/cosmos/dss/QS/EQ5D0205/QSTESTCD/relationship> ;
    cosmos_sdtm:role <https://www.cdisc.org/cosmos/sdtm_v1.0/RoleEnum#Topic> .

<https://w3id.org/cdisc/cosmos/dss/QS/EQ5D0206/QSANTXHI> a cosmos_sdtm:SDTMVariable ;
    cosmos_sdtm:assignedTerm <https://w3id.org/cdisc/cosmos/dss/QS/EQ5D0206/QSANTXHI/assignedTerm> ;
    cosmos_sdtm:dataElementConceptId NCIT:C121936 ;
    cosmos_sdtm:isNonStandard true ;
    cosmos_sdtm:mandatoryValue false ;
    cosmos_sdtm:mandatoryVariable true ;
    cosmos_sdtm:name "QSANTXHI" ;
    cosmos_sdtm:originSource NCIT:C70793 ;
    cosmos_sdtm:originType NCIT:C170547 ;
    cosmos_sdtm:relationship <https://w3id.org/cdisc/cosmos/dss/QS/EQ5D0206/QSANTXHI/relationship> ;
    cosmos_sdtm:role <https://www.cdisc.org/cosmos/sdtm_v1.0/RoleEnum#Qualifier> .

<https://w3id.org/cdisc/cosmos/dss/QS/EQ5D0206/QSANTXLO> a cosmos_sdtm:SDTMVariable ;
    cosmos_sdtm:assignedTerm <https://w3id.org/cdisc/cosmos/dss/QS/EQ5D0206/QSANTXLO/assignedTerm> ;
    cosmos_sdtm:dataElementConceptId NCIT:C70934 ;
    cosmos_sdtm:isNonStandard true ;
    cosmos_sdtm:mandatoryValue false ;
    cosmos_sdtm:mandatoryVariable true ;
    cosmos_sdtm:name "QSANTXLO" ;
    cosmos_sdtm:originSource NCIT:C70793 ;
    cosmos_sdtm:originType NCIT:C170547 ;
    cosmos_sdtm:relationship <https://w3id.org/cdisc/cosmos/dss/QS/EQ5D0206/QSANTXLO/relationship> ;
    cosmos_sdtm:role <https://www.cdisc.org/cosmos/sdtm_v1.0/RoleEnum#Qualifier> .

<https://w3id.org/cdisc/cosmos/dss/QS/EQ5D0206/QSANVLHI> a cosmos_sdtm:SDTMVariable ;
    cosmos_sdtm:assignedTerm <https://w3id.org/cdisc/cosmos/dss/QS/EQ5D0206/QSANVLHI/assignedTerm> ;
    cosmos_sdtm:dataElementConceptId NCIT:C121935 ;
    cosmos_sdtm:isNonStandard true ;
    cosmos_sdtm:mandatoryValue false ;
    cosmos_sdtm:mandatoryVariable true ;
    cosmos_sdtm:name "QSANVLHI" ;
    cosmos_sdtm:originSource NCIT:C70793 ;
    cosmos_sdtm:originType NCIT:C170547 ;
    cosmos_sdtm:relationship <https://w3id.org/cdisc/cosmos/dss/QS/EQ5D0206/QSANVLHI/relationship> ;
    cosmos_sdtm:role <https://www.cdisc.org/cosmos/sdtm_v1.0/RoleEnum#Qualifier> .

<https://w3id.org/cdisc/cosmos/dss/QS/EQ5D0206/QSANVLLO> a cosmos_sdtm:SDTMVariable ;
    cosmos_sdtm:assignedTerm <https://w3id.org/cdisc/cosmos/dss/QS/EQ5D0206/QSANVLLO/assignedTerm> ;
    cosmos_sdtm:dataElementConceptId NCIT:C70933 ;
    cosmos_sdtm:isNonStandard true ;
    cosmos_sdtm:mandatoryValue false ;
    cosmos_sdtm:mandatoryVariable true ;
    cosmos_sdtm:name "QSANVLLO" ;
    cosmos_sdtm:originSource NCIT:C70793 ;
    cosmos_sdtm:originType NCIT:C170547 ;
    cosmos_sdtm:relationship <https://w3id.org/cdisc/cosmos/dss/QS/EQ5D0206/QSANVLLO/relationship> ;
    cosmos_sdtm:role <https://www.cdisc.org/cosmos/sdtm_v1.0/RoleEnum#Qualifier> .

<https://w3id.org/cdisc/cosmos/dss/QS/EQ5D0206/QSCAT> a cosmos_sdtm:SDTMVariable ;
    cosmos_sdtm:assignedTerm <https://w3id.org/cdisc/cosmos/dss/QS/EQ5D0206/QSCAT/assignedTerm> ;
    cosmos_sdtm:codelist NCIT:C100129 ;
    cosmos_sdtm:comparator <https://www.cdisc.org/cosmos/sdtm_v1.0/ComparatorEnum#EQ> ;
    cosmos_sdtm:dataElementConceptId NCIT:C25372 ;
    cosmos_sdtm:isNonStandard false ;
    cosmos_sdtm:mandatoryValue true ;
    cosmos_sdtm:mandatoryVariable true ;
    cosmos_sdtm:name "QSCAT" ;
    cosmos_sdtm:originSource NCIT:C70793 ;
    cosmos_sdtm:originType NCIT:C170547 ;
    cosmos_sdtm:relationship <https://w3id.org/cdisc/cosmos/dss/QS/EQ5D0206/QSCAT/relationship> ;
    cosmos_sdtm:role <https://www.cdisc.org/cosmos/sdtm_v1.0/RoleEnum#Qualifier> .

<https://w3id.org/cdisc/cosmos/dss/QS/EQ5D0206/QSDTC> a cosmos_sdtm:SDTMVariable ;
    cosmos_sdtm:dataElementConceptId NCIT:C82515 ;
    cosmos_sdtm:isNonStandard false ;
    cosmos_sdtm:mandatoryValue false ;
    cosmos_sdtm:mandatoryVariable true ;
    cosmos_sdtm:name "QSDTC" ;
    cosmos_sdtm:relationship <https://w3id.org/cdisc/cosmos/dss/QS/EQ5D0206/QSDTC/relationship> ;
    cosmos_sdtm:role <https://www.cdisc.org/cosmos/sdtm_v1.0/RoleEnum#Timing> .

<https://w3id.org/cdisc/cosmos/dss/QS/EQ5D0206/QSEVINTX> a cosmos_sdtm:SDTMVariable ;
    cosmos_sdtm:assignedTerm <https://w3id.org/cdisc/cosmos/dss/QS/EQ5D0206/QSEVINTX/assignedTerm> ;
    cosmos_sdtm:dataElementConceptId NCIT:C82534 ;
    cosmos_sdtm:isNonStandard false ;
    cosmos_sdtm:mandatoryValue false ;
    cosmos_sdtm:mandatoryVariable true ;
    cosmos_sdtm:name "QSEVINTX" ;
    cosmos_sdtm:originSource NCIT:C70793 ;
    cosmos_sdtm:originType NCIT:C170547 ;
    cosmos_sdtm:relationship <https://w3id.org/cdisc/cosmos/dss/QS/EQ5D0206/QSEVINTX/relationship> ;
    cosmos_sdtm:role <https://www.cdisc.org/cosmos/sdtm_v1.0/RoleEnum#Timing> .

<https://w3id.org/cdisc/cosmos/dss/QS/EQ5D0206/QSMETHOD> a cosmos_sdtm:SDTMVariable ;
    cosmos_sdtm:assignedTerm <https://w3id.org/cdisc/cosmos/dss/QS/EQ5D0206/QSMETHOD/assignedTerm> ;
    cosmos_sdtm:codelist NCIT:C158113 ;
    cosmos_sdtm:comparator <https://www.cdisc.org/cosmos/sdtm_v1.0/ComparatorEnum#EQ> ;
    cosmos_sdtm:dataElementConceptId NCIT:C82535 ;
    cosmos_sdtm:isNonStandard false ;
    cosmos_sdtm:mandatoryValue false ;
    cosmos_sdtm:mandatoryVariable true ;
    cosmos_sdtm:name "QSMETHOD" ;
    cosmos_sdtm:relationship <https://w3id.org/cdisc/cosmos/dss/QS/EQ5D0206/QSMETHOD/relationship> ;
    cosmos_sdtm:role <https://www.cdisc.org/cosmos/sdtm_v1.0/RoleEnum#Qualifier> .

<https://w3id.org/cdisc/cosmos/dss/QS/EQ5D0206/QSORRES> a cosmos_sdtm:SDTMVariable ;
    cosmos_sdtm:dataElementConceptId NCIT:C91106 ;
    cosmos_sdtm:dataType <https://www.cdisc.org/cosmos/sdtm_v1.0/SDTMVariableDataTypeEnum#integer> ;
    cosmos_sdtm:isNonStandard false ;
    cosmos_sdtm:length 3 ;
    cosmos_sdtm:mandatoryValue false ;
    cosmos_sdtm:mandatoryVariable true ;
    cosmos_sdtm:name "QSORRES" ;
    cosmos_sdtm:originSource NCIT:C25936 ;
    cosmos_sdtm:originType NCIT:C170548 ;
    cosmos_sdtm:relationship <https://w3id.org/cdisc/cosmos/dss/QS/EQ5D0206/QSORRES/relationship> ;
    cosmos_sdtm:role <https://www.cdisc.org/cosmos/sdtm_v1.0/RoleEnum#Qualifier> ;
    cosmos_sdtm:valueList "0",
        "1",
        "10",
        "100",
        "11",
        "12",
        "13",
        "14",
        "15",
        "16",
        "17",
        "18",
        "19",
        "2",
        "20",
        "21",
        "22",
        "23",
        "24",
        "25",
        "26",
        "27",
        "28",
        "29",
        "3",
        "30",
        "31",
        "32",
        "33",
        "34",
        "35",
        "36",
        "37",
        "38",
        "39",
        "4",
        "40",
        "41",
        "42",
        "43",
        "44",
        "45",
        "46",
        "47",
        "48",
        "49",
        "5",
        "50",
        "51",
        "52",
        "53",
        "54",
        "55",
        "56",
        "57",
        "58",
        "59",
        "6",
        "60",
        "61",
        "62",
        "63",
        "64",
        "65",
        "66",
        "67",
        "68",
        "69",
        "7",
        "70",
        "71",
        "72",
        "73",
        "74",
        "75",
        "76",
        "77",
        "78",
        "79",
        "8",
        "80",
        "81",
        "82",
        "83",
        "84",
        "85",
        "86",
        "87",
        "88",
        "89",
        "9",
        "90",
        "91",
        "92",
        "93",
        "94",
        "95",
        "96",
        "97",
        "98",
        "99" ;
    cosmos_sdtm:vlmTarget true .

<https://w3id.org/cdisc/cosmos/dss/QS/EQ5D0206/QSSTRESC> a cosmos_sdtm:SDTMVariable ;
    cosmos_sdtm:dataElementConceptId NCIT:C46126 ;
    cosmos_sdtm:dataType <https://www.cdisc.org/cosmos/sdtm_v1.0/SDTMVariableDataTypeEnum#integer> ;
    cosmos_sdtm:isNonStandard false ;
    cosmos_sdtm:length 3 ;
    cosmos_sdtm:mandatoryValue false ;
    cosmos_sdtm:mandatoryVariable true ;
    cosmos_sdtm:name "QSSTRESC" ;
    cosmos_sdtm:originSource NCIT:C70793 ;
    cosmos_sdtm:originType NCIT:C170549 ;
    cosmos_sdtm:relationship <https://w3id.org/cdisc/cosmos/dss/QS/EQ5D0206/QSSTRESC/relationship> ;
    cosmos_sdtm:role <https://www.cdisc.org/cosmos/sdtm_v1.0/RoleEnum#Qualifier> ;
    cosmos_sdtm:valueList "0",
        "1",
        "10",
        "100",
        "11",
        "12",
        "13",
        "14",
        "15",
        "16",
        "17",
        "18",
        "19",
        "2",
        "20",
        "21",
        "22",
        "23",
        "24",
        "25",
        "26",
        "27",
        "28",
        "29",
        "3",
        "30",
        "31",
        "32",
        "33",
        "34",
        "35",
        "36",
        "37",
        "38",
        "39",
        "4",
        "40",
        "41",
        "42",
        "43",
        "44",
        "45",
        "46",
        "47",
        "48",
        "49",
        "5",
        "50",
        "51",
        "52",
        "53",
        "54",
        "55",
        "56",
        "57",
        "58",
        "59",
        "6",
        "60",
        "61",
        "62",
        "63",
        "64",
        "65",
        "66",
        "67",
        "68",
        "69",
        "7",
        "70",
        "71",
        "72",
        "73",
        "74",
        "75",
        "76",
        "77",
        "78",
        "79",
        "8",
        "80",
        "81",
        "82",
        "83",
        "84",
        "85",
        "86",
        "87",
        "88",
        "89",
        "9",
        "90",
        "91",
        "92",
        "93",
        "94",
        "95",
        "96",
        "97",
        "98",
        "99" ;
    cosmos_sdtm:vlmTarget true .

<https://w3id.org/cdisc/cosmos/dss/QS/EQ5D0206/QSSTRESN> a cosmos_sdtm:SDTMVariable ;
    cosmos_sdtm:dataElementConceptId NCIT:C46126 ;
    cosmos_sdtm:dataType <https://www.cdisc.org/cosmos/sdtm_v1.0/SDTMVariableDataTypeEnum#integer> ;
    cosmos_sdtm:isNonStandard false ;
    cosmos_sdtm:length 3 ;
    cosmos_sdtm:mandatoryValue false ;
    cosmos_sdtm:mandatoryVariable true ;
    cosmos_sdtm:name "QSSTRESN" ;
    cosmos_sdtm:originSource NCIT:C70793 ;
    cosmos_sdtm:originType NCIT:C170549 ;
    cosmos_sdtm:relationship <https://w3id.org/cdisc/cosmos/dss/QS/EQ5D0206/QSSTRESN/relationship> ;
    cosmos_sdtm:role <https://www.cdisc.org/cosmos/sdtm_v1.0/RoleEnum#Qualifier> ;
    cosmos_sdtm:valueList "0",
        "1",
        "10",
        "100",
        "11",
        "12",
        "13",
        "14",
        "15",
        "16",
        "17",
        "18",
        "19",
        "2",
        "20",
        "21",
        "22",
        "23",
        "24",
        "25",
        "26",
        "27",
        "28",
        "29",
        "3",
        "30",
        "31",
        "32",
        "33",
        "34",
        "35",
        "36",
        "37",
        "38",
        "39",
        "4",
        "40",
        "41",
        "42",
        "43",
        "44",
        "45",
        "46",
        "47",
        "48",
        "49",
        "5",
        "50",
        "51",
        "52",
        "53",
        "54",
        "55",
        "56",
        "57",
        "58",
        "59",
        "6",
        "60",
        "61",
        "62",
        "63",
        "64",
        "65",
        "66",
        "67",
        "68",
        "69",
        "7",
        "70",
        "71",
        "72",
        "73",
        "74",
        "75",
        "76",
        "77",
        "78",
        "79",
        "8",
        "80",
        "81",
        "82",
        "83",
        "84",
        "85",
        "86",
        "87",
        "88",
        "89",
        "9",
        "90",
        "91",
        "92",
        "93",
        "94",
        "95",
        "96",
        "97",
        "98",
        "99" ;
    cosmos_sdtm:vlmTarget true .

<https://w3id.org/cdisc/cosmos/dss/QS/EQ5D0206/QSTEST> a cosmos_sdtm:SDTMVariable ;
    cosmos_sdtm:assignedTerm <https://w3id.org/cdisc/cosmos/dss/QS/EQ5D0206/QSTEST/assignedTerm> ;
    cosmos_sdtm:codelist NCIT:C101818 ;
    cosmos_sdtm:isNonStandard false ;
    cosmos_sdtm:mandatoryValue true ;
    cosmos_sdtm:mandatoryVariable true ;
    cosmos_sdtm:name "QSTEST" ;
    cosmos_sdtm:originSource NCIT:C70793 ;
    cosmos_sdtm:originType NCIT:C170547 ;
    cosmos_sdtm:relationship <https://w3id.org/cdisc/cosmos/dss/QS/EQ5D0206/QSTEST/relationship> ;
    cosmos_sdtm:role <https://www.cdisc.org/cosmos/sdtm_v1.0/RoleEnum#Qualifier> .

<https://w3id.org/cdisc/cosmos/dss/QS/EQ5D0206/QSTESTCD> a cosmos_sdtm:SDTMVariable ;
    cosmos_sdtm:assignedTerm <https://w3id.org/cdisc/cosmos/dss/QS/EQ5D0206/QSTESTCD/assignedTerm> ;
    cosmos_sdtm:codelist NCIT:C101817 ;
    cosmos_sdtm:comparator <https://www.cdisc.org/cosmos/sdtm_v1.0/ComparatorEnum#EQ> ;
    cosmos_sdtm:isNonStandard false ;
    cosmos_sdtm:mandatoryValue true ;
    cosmos_sdtm:mandatoryVariable true ;
    cosmos_sdtm:name "QSTESTCD" ;
    cosmos_sdtm:originSource NCIT:C70793 ;
    cosmos_sdtm:originType NCIT:C170547 ;
    cosmos_sdtm:relationship <https://w3id.org/cdisc/cosmos/dss/QS/EQ5D0206/QSTESTCD/relationship> ;
    cosmos_sdtm:role <https://www.cdisc.org/cosmos/sdtm_v1.0/RoleEnum#Topic> .

<https://w3id.org/cdisc/cosmos/dss/QS/PATCHSURVEYACCEPTABILITY/QSCAT> a cosmos_sdtm:SDTMVariable ;
    cosmos_sdtm:assignedTerm <https://w3id.org/cdisc/cosmos/dss/QS/PATCHSURVEYACCEPTABILITY/QSCAT/assignedTerm> ;
    cosmos_sdtm:codelist NCIT:C100129 ;
    cosmos_sdtm:comparator <https://www.cdisc.org/cosmos/sdtm_v1.0/ComparatorEnum#EQ> ;
    cosmos_sdtm:isNonStandard false ;
    cosmos_sdtm:mandatoryValue true ;
    cosmos_sdtm:mandatoryVariable true ;
    cosmos_sdtm:name "QSCAT" ;
    cosmos_sdtm:originSource NCIT:C70793 ;
    cosmos_sdtm:originType NCIT:C170547 ;
    cosmos_sdtm:relationship <https://w3id.org/cdisc/cosmos/dss/QS/PATCHSURVEYACCEPTABILITY/QSCAT/relationship> ;
    cosmos_sdtm:role <https://www.cdisc.org/cosmos/sdtm_v1.0/RoleEnum#Qualifier> .

<https://w3id.org/cdisc/cosmos/dss/QS/PATCHSURVEYACCEPTABILITY/QSDTC> a cosmos_sdtm:SDTMVariable ;
    cosmos_sdtm:dataElementConceptId NCIT:C82515 ;
    cosmos_sdtm:isNonStandard false ;
    cosmos_sdtm:mandatoryValue false ;
    cosmos_sdtm:mandatoryVariable true ;
    cosmos_sdtm:name "QSDTC" ;
    cosmos_sdtm:relationship <https://w3id.org/cdisc/cosmos/dss/QS/PATCHSURVEYACCEPTABILITY/QSDTC/relationship> ;
    cosmos_sdtm:role <https://www.cdisc.org/cosmos/sdtm_v1.0/RoleEnum#Timing> .

<https://w3id.org/cdisc/cosmos/dss/QS/PATCHSURVEYACCEPTABILITY/QSEVAL> a cosmos_sdtm:SDTMVariable ;
    cosmos_sdtm:assignedTerm <https://w3id.org/cdisc/cosmos/dss/QS/PATCHSURVEYACCEPTABILITY/QSEVAL/assignedTerm> ;
    cosmos_sdtm:codelist NCIT:C78735 ;
    cosmos_sdtm:comparator <https://www.cdisc.org/cosmos/sdtm_v1.0/ComparatorEnum#EQ> ;
    cosmos_sdtm:dataElementConceptId NCIT:C51824 ;
    cosmos_sdtm:isNonStandard false ;
    cosmos_sdtm:mandatoryValue false ;
    cosmos_sdtm:mandatoryVariable true ;
    cosmos_sdtm:name "QSEVAL" ;
    cosmos_sdtm:originSource NCIT:C70793 ;
    cosmos_sdtm:originType NCIT:C170547 ;
    cosmos_sdtm:relationship <https://w3id.org/cdisc/cosmos/dss/QS/PATCHSURVEYACCEPTABILITY/QSEVAL/relationship> ;
    cosmos_sdtm:role <https://www.cdisc.org/cosmos/sdtm_v1.0/RoleEnum#Qualifier> .

<https://w3id.org/cdisc/cosmos/dss/QS/PATCHSURVEYACCEPTABILITY/QSORRES> a cosmos_sdtm:SDTMVariable ;
    cosmos_sdtm:dataElementConceptId NCIT:C46126 ;
    cosmos_sdtm:dataType <https://www.cdisc.org/cosmos/sdtm_v1.0/SDTMVariableDataTypeEnum#text> ;
    cosmos_sdtm:isNonStandard false ;
    cosmos_sdtm:length 200 ;
    cosmos_sdtm:mandatoryValue false ;
    cosmos_sdtm:mandatoryVariable true ;
    cosmos_sdtm:name "QSORRES" ;
    cosmos_sdtm:originSource NCIT:C25936 ;
    cosmos_sdtm:originType NCIT:C170548 ;
    cosmos_sdtm:relationship <https://w3id.org/cdisc/cosmos/dss/QS/PATCHSURVEYACCEPTABILITY/QSORRES/relationship> ;
    cosmos_sdtm:role <https://www.cdisc.org/cosmos/sdtm_v1.0/RoleEnum#Qualifier> ;
    cosmos_sdtm:valueList "Have no preference (neutral) for an oral or patch formulation",
        "Insist that the patient receive a patch",
        "Insist that the patient receive an oral pill",
        "Prefer that the patient receive a patch",
        "Prefer that the patient receive an oral pill" ;
    cosmos_sdtm:vlmTarget true .

<https://w3id.org/cdisc/cosmos/dss/QS/PATCHSURVEYACCEPTABILITY/QSSTRESC> a cosmos_sdtm:SDTMVariable ;
    cosmos_sdtm:dataElementConceptId NCIT:C91106 ;
    cosmos_sdtm:dataType <https://www.cdisc.org/cosmos/sdtm_v1.0/SDTMVariableDataTypeEnum#integer> ;
    cosmos_sdtm:isNonStandard false ;
    cosmos_sdtm:length 1 ;
    cosmos_sdtm:mandatoryValue false ;
    cosmos_sdtm:mandatoryVariable true ;
    cosmos_sdtm:name "QSSTRESC" ;
    cosmos_sdtm:originSource NCIT:C70793 ;
    cosmos_sdtm:originType NCIT:C170549 ;
    cosmos_sdtm:relationship <https://w3id.org/cdisc/cosmos/dss/QS/PATCHSURVEYACCEPTABILITY/QSSTRESC/relationship> ;
    cosmos_sdtm:role <https://www.cdisc.org/cosmos/sdtm_v1.0/RoleEnum#Qualifier> ;
    cosmos_sdtm:valueList "1",
        "2",
        "3",
        "4",
        "5" ;
    cosmos_sdtm:vlmTarget true .

<https://w3id.org/cdisc/cosmos/dss/QS/PATCHSURVEYACCEPTABILITY/QSSTRESN> a cosmos_sdtm:SDTMVariable ;
    cosmos_sdtm:dataElementConceptId NCIT:C91106 ;
    cosmos_sdtm:dataType <https://www.cdisc.org/cosmos/sdtm_v1.0/SDTMVariableDataTypeEnum#integer> ;
    cosmos_sdtm:isNonStandard false ;
    cosmos_sdtm:length 1 ;
    cosmos_sdtm:mandatoryValue false ;
    cosmos_sdtm:mandatoryVariable true ;
    cosmos_sdtm:name "QSSTRESN" ;
    cosmos_sdtm:originSource NCIT:C70793 ;
    cosmos_sdtm:originType NCIT:C170549 ;
    cosmos_sdtm:relationship <https://w3id.org/cdisc/cosmos/dss/QS/PATCHSURVEYACCEPTABILITY/QSSTRESN/relationship> ;
    cosmos_sdtm:role <https://www.cdisc.org/cosmos/sdtm_v1.0/RoleEnum#Qualifier> ;
    cosmos_sdtm:valueList "1",
        "2",
        "3",
        "4",
        "5",
        "6",
        "7" ;
    cosmos_sdtm:vlmTarget true .

<https://w3id.org/cdisc/cosmos/dss/QS/PATCHSURVEYACCEPTABILITY/QSTEST> a cosmos_sdtm:SDTMVariable ;
    cosmos_sdtm:assignedTerm <https://w3id.org/cdisc/cosmos/dss/QS/PATCHSURVEYACCEPTABILITY/QSTEST/assignedTerm> ;
    cosmos_sdtm:isNonStandard false ;
    cosmos_sdtm:mandatoryValue true ;
    cosmos_sdtm:mandatoryVariable true ;
    cosmos_sdtm:name "QSTEST" ;
    cosmos_sdtm:originSource NCIT:C70793 ;
    cosmos_sdtm:originType NCIT:C170547 ;
    cosmos_sdtm:relationship <https://w3id.org/cdisc/cosmos/dss/QS/PATCHSURVEYACCEPTABILITY/QSTEST/relationship> ;
    cosmos_sdtm:role <https://www.cdisc.org/cosmos/sdtm_v1.0/RoleEnum#Qualifier> .

<https://w3id.org/cdisc/cosmos/dss/QS/PATCHSURVEYACCEPTABILITY/QSTESTCD> a cosmos_sdtm:SDTMVariable ;
    cosmos_sdtm:assignedTerm <https://w3id.org/cdisc/cosmos/dss/QS/PATCHSURVEYACCEPTABILITY/QSTESTCD/assignedTerm> ;
    cosmos_sdtm:comparator <https://www.cdisc.org/cosmos/sdtm_v1.0/ComparatorEnum#EQ> ;
    cosmos_sdtm:isNonStandard false ;
    cosmos_sdtm:mandatoryValue true ;
    cosmos_sdtm:mandatoryVariable true ;
    cosmos_sdtm:name "QSTESTCD" ;
    cosmos_sdtm:originSource NCIT:C70793 ;
    cosmos_sdtm:originType NCIT:C170547 ;
    cosmos_sdtm:relationship <https://w3id.org/cdisc/cosmos/dss/QS/PATCHSURVEYACCEPTABILITY/QSTESTCD/relationship> ;
    cosmos_sdtm:role <https://www.cdisc.org/cosmos/sdtm_v1.0/RoleEnum#Topic> .

<https://w3id.org/cdisc/cosmos/dss/QS/PATCHSURVEYAPPEARANCE/QSCAT> a cosmos_sdtm:SDTMVariable ;
    cosmos_sdtm:assignedTerm <https://w3id.org/cdisc/cosmos/dss/QS/PATCHSURVEYAPPEARANCE/QSCAT/assignedTerm> ;
    cosmos_sdtm:codelist NCIT:C100129 ;
    cosmos_sdtm:comparator <https://www.cdisc.org/cosmos/sdtm_v1.0/ComparatorEnum#EQ> ;
    cosmos_sdtm:isNonStandard false ;
    cosmos_sdtm:mandatoryValue true ;
    cosmos_sdtm:mandatoryVariable true ;
    cosmos_sdtm:name "QSCAT" ;
    cosmos_sdtm:originSource NCIT:C70793 ;
    cosmos_sdtm:originType NCIT:C170547 ;
    cosmos_sdtm:relationship <https://w3id.org/cdisc/cosmos/dss/QS/PATCHSURVEYAPPEARANCE/QSCAT/relationship> ;
    cosmos_sdtm:role <https://www.cdisc.org/cosmos/sdtm_v1.0/RoleEnum#Qualifier> .

<https://w3id.org/cdisc/cosmos/dss/QS/PATCHSURVEYAPPEARANCE/QSDTC> a cosmos_sdtm:SDTMVariable ;
    cosmos_sdtm:dataElementConceptId NCIT:C82515 ;
    cosmos_sdtm:isNonStandard false ;
    cosmos_sdtm:mandatoryValue false ;
    cosmos_sdtm:mandatoryVariable true ;
    cosmos_sdtm:name "QSDTC" ;
    cosmos_sdtm:relationship <https://w3id.org/cdisc/cosmos/dss/QS/PATCHSURVEYAPPEARANCE/QSDTC/relationship> ;
    cosmos_sdtm:role <https://www.cdisc.org/cosmos/sdtm_v1.0/RoleEnum#Timing> .

<https://w3id.org/cdisc/cosmos/dss/QS/PATCHSURVEYAPPEARANCE/QSEVAL> a cosmos_sdtm:SDTMVariable ;
    cosmos_sdtm:assignedTerm <https://w3id.org/cdisc/cosmos/dss/QS/PATCHSURVEYAPPEARANCE/QSEVAL/assignedTerm> ;
    cosmos_sdtm:codelist NCIT:C78735 ;
    cosmos_sdtm:comparator <https://www.cdisc.org/cosmos/sdtm_v1.0/ComparatorEnum#EQ> ;
    cosmos_sdtm:dataElementConceptId NCIT:C51824 ;
    cosmos_sdtm:isNonStandard false ;
    cosmos_sdtm:mandatoryValue false ;
    cosmos_sdtm:mandatoryVariable true ;
    cosmos_sdtm:name "QSEVAL" ;
    cosmos_sdtm:originSource NCIT:C70793 ;
    cosmos_sdtm:originType NCIT:C170547 ;
    cosmos_sdtm:relationship <https://w3id.org/cdisc/cosmos/dss/QS/PATCHSURVEYAPPEARANCE/QSEVAL/relationship> ;
    cosmos_sdtm:role <https://www.cdisc.org/cosmos/sdtm_v1.0/RoleEnum#Qualifier> .

<https://w3id.org/cdisc/cosmos/dss/QS/PATCHSURVEYAPPEARANCE/QSORRES> a cosmos_sdtm:SDTMVariable ;
    cosmos_sdtm:dataElementConceptId NCIT:C46126 ;
    cosmos_sdtm:dataType <https://www.cdisc.org/cosmos/sdtm_v1.0/SDTMVariableDataTypeEnum#text> ;
    cosmos_sdtm:isNonStandard false ;
    cosmos_sdtm:length 200 ;
    cosmos_sdtm:mandatoryValue false ;
    cosmos_sdtm:mandatoryVariable true ;
    cosmos_sdtm:name "QSORRES" ;
    cosmos_sdtm:originSource NCIT:C25936 ;
    cosmos_sdtm:originType NCIT:C170548 ;
    cosmos_sdtm:relationship <https://w3id.org/cdisc/cosmos/dss/QS/PATCHSURVEYAPPEARANCE/QSORRES/relationship> ;
    cosmos_sdtm:role <https://www.cdisc.org/cosmos/sdtm_v1.0/RoleEnum#Qualifier> ;
    cosmos_sdtm:valueList "1 Strongly Disagree",
        "2",
        "3",
        "4 Neutral",
        "5",
        "6",
        "7 Strongly Agree" ;
    cosmos_sdtm:vlmTarget true .

<https://w3id.org/cdisc/cosmos/dss/QS/PATCHSURVEYAPPEARANCE/QSSTRESC> a cosmos_sdtm:SDTMVariable ;
    cosmos_sdtm:dataElementConceptId NCIT:C91106 ;
    cosmos_sdtm:dataType <https://www.cdisc.org/cosmos/sdtm_v1.0/SDTMVariableDataTypeEnum#integer> ;
    cosmos_sdtm:isNonStandard false ;
    cosmos_sdtm:length 1 ;
    cosmos_sdtm:mandatoryValue false ;
    cosmos_sdtm:mandatoryVariable true ;
    cosmos_sdtm:name "QSSTRESC" ;
    cosmos_sdtm:originSource NCIT:C70793 ;
    cosmos_sdtm:originType NCIT:C170549 ;
    cosmos_sdtm:relationship <https://w3id.org/cdisc/cosmos/dss/QS/PATCHSURVEYAPPEARANCE/QSSTRESC/relationship> ;
    cosmos_sdtm:role <https://www.cdisc.org/cosmos/sdtm_v1.0/RoleEnum#Qualifier> ;
    cosmos_sdtm:valueList "1",
        "2",
        "3",
        "4",
        "5",
        "6",
        "7" ;
    cosmos_sdtm:vlmTarget true .

<https://w3id.org/cdisc/cosmos/dss/QS/PATCHSURVEYAPPEARANCE/QSSTRESN> a cosmos_sdtm:SDTMVariable ;
    cosmos_sdtm:dataElementConceptId NCIT:C91106 ;
    cosmos_sdtm:dataType <https://www.cdisc.org/cosmos/sdtm_v1.0/SDTMVariableDataTypeEnum#integer> ;
    cosmos_sdtm:isNonStandard false ;
    cosmos_sdtm:length 1 ;
    cosmos_sdtm:mandatoryValue false ;
    cosmos_sdtm:mandatoryVariable true ;
    cosmos_sdtm:name "QSSTRESN" ;
    cosmos_sdtm:originSource NCIT:C70793 ;
    cosmos_sdtm:originType NCIT:C170549 ;
    cosmos_sdtm:relationship <https://w3id.org/cdisc/cosmos/dss/QS/PATCHSURVEYAPPEARANCE/QSSTRESN/relationship> ;
    cosmos_sdtm:role <https://www.cdisc.org/cosmos/sdtm_v1.0/RoleEnum#Qualifier> ;
    cosmos_sdtm:valueList "1",
        "2",
        "3",
        "4",
        "5",
        "6",
        "7" ;
    cosmos_sdtm:vlmTarget true .

<https://w3id.org/cdisc/cosmos/dss/QS/PATCHSURVEYAPPEARANCE/QSTEST> a cosmos_sdtm:SDTMVariable ;
    cosmos_sdtm:assignedTerm <https://w3id.org/cdisc/cosmos/dss/QS/PATCHSURVEYAPPEARANCE/QSTEST/assignedTerm> ;
    cosmos_sdtm:isNonStandard false ;
    cosmos_sdtm:mandatoryValue true ;
    cosmos_sdtm:mandatoryVariable true ;
    cosmos_sdtm:name "QSTEST" ;
    cosmos_sdtm:originSource NCIT:C70793 ;
    cosmos_sdtm:originType NCIT:C170547 ;
    cosmos_sdtm:relationship <https://w3id.org/cdisc/cosmos/dss/QS/PATCHSURVEYAPPEARANCE/QSTEST/relationship> ;
    cosmos_sdtm:role <https://www.cdisc.org/cosmos/sdtm_v1.0/RoleEnum#Qualifier> .

<https://w3id.org/cdisc/cosmos/dss/QS/PATCHSURVEYAPPEARANCE/QSTESTCD> a cosmos_sdtm:SDTMVariable ;
    cosmos_sdtm:assignedTerm <https://w3id.org/cdisc/cosmos/dss/QS/PATCHSURVEYAPPEARANCE/QSTESTCD/assignedTerm> ;
    cosmos_sdtm:comparator <https://www.cdisc.org/cosmos/sdtm_v1.0/ComparatorEnum#EQ> ;
    cosmos_sdtm:isNonStandard false ;
    cosmos_sdtm:mandatoryValue true ;
    cosmos_sdtm:mandatoryVariable true ;
    cosmos_sdtm:name "QSTESTCD" ;
    cosmos_sdtm:originSource NCIT:C70793 ;
    cosmos_sdtm:originType NCIT:C170547 ;
    cosmos_sdtm:relationship <https://w3id.org/cdisc/cosmos/dss/QS/PATCHSURVEYAPPEARANCE/QSTESTCD/relationship> ;
    cosmos_sdtm:role <https://www.cdisc.org/cosmos/sdtm_v1.0/RoleEnum#Topic> .

<https://w3id.org/cdisc/cosmos/dss/QS/PATCHSURVEYDURABILITY/QSCAT> a cosmos_sdtm:SDTMVariable ;
    cosmos_sdtm:assignedTerm <https://w3id.org/cdisc/cosmos/dss/QS/PATCHSURVEYDURABILITY/QSCAT/assignedTerm> ;
    cosmos_sdtm:codelist NCIT:C100129 ;
    cosmos_sdtm:comparator <https://www.cdisc.org/cosmos/sdtm_v1.0/ComparatorEnum#EQ> ;
    cosmos_sdtm:isNonStandard false ;
    cosmos_sdtm:mandatoryValue true ;
    cosmos_sdtm:mandatoryVariable true ;
    cosmos_sdtm:name "QSCAT" ;
    cosmos_sdtm:originSource NCIT:C70793 ;
    cosmos_sdtm:originType NCIT:C170547 ;
    cosmos_sdtm:relationship <https://w3id.org/cdisc/cosmos/dss/QS/PATCHSURVEYDURABILITY/QSCAT/relationship> ;
    cosmos_sdtm:role <https://www.cdisc.org/cosmos/sdtm_v1.0/RoleEnum#Qualifier> .

<https://w3id.org/cdisc/cosmos/dss/QS/PATCHSURVEYDURABILITY/QSDTC> a cosmos_sdtm:SDTMVariable ;
    cosmos_sdtm:dataElementConceptId NCIT:C82515 ;
    cosmos_sdtm:isNonStandard false ;
    cosmos_sdtm:mandatoryValue false ;
    cosmos_sdtm:mandatoryVariable true ;
    cosmos_sdtm:name "QSDTC" ;
    cosmos_sdtm:relationship <https://w3id.org/cdisc/cosmos/dss/QS/PATCHSURVEYDURABILITY/QSDTC/relationship> ;
    cosmos_sdtm:role <https://www.cdisc.org/cosmos/sdtm_v1.0/RoleEnum#Timing> .

<https://w3id.org/cdisc/cosmos/dss/QS/PATCHSURVEYDURABILITY/QSEVAL> a cosmos_sdtm:SDTMVariable ;
    cosmos_sdtm:assignedTerm <https://w3id.org/cdisc/cosmos/dss/QS/PATCHSURVEYDURABILITY/QSEVAL/assignedTerm> ;
    cosmos_sdtm:codelist NCIT:C78735 ;
    cosmos_sdtm:comparator <https://www.cdisc.org/cosmos/sdtm_v1.0/ComparatorEnum#EQ> ;
    cosmos_sdtm:dataElementConceptId NCIT:C51824 ;
    cosmos_sdtm:isNonStandard false ;
    cosmos_sdtm:mandatoryValue false ;
    cosmos_sdtm:mandatoryVariable true ;
    cosmos_sdtm:name "QSEVAL" ;
    cosmos_sdtm:originSource NCIT:C70793 ;
    cosmos_sdtm:originType NCIT:C170547 ;
    cosmos_sdtm:relationship <https://w3id.org/cdisc/cosmos/dss/QS/PATCHSURVEYDURABILITY/QSEVAL/relationship> ;
    cosmos_sdtm:role <https://www.cdisc.org/cosmos/sdtm_v1.0/RoleEnum#Qualifier> .

<https://w3id.org/cdisc/cosmos/dss/QS/PATCHSURVEYDURABILITY/QSORRES> a cosmos_sdtm:SDTMVariable ;
    cosmos_sdtm:dataElementConceptId NCIT:C46126 ;
    cosmos_sdtm:dataType <https://www.cdisc.org/cosmos/sdtm_v1.0/SDTMVariableDataTypeEnum#text> ;
    cosmos_sdtm:isNonStandard false ;
    cosmos_sdtm:length 200 ;
    cosmos_sdtm:mandatoryValue false ;
    cosmos_sdtm:mandatoryVariable true ;
    cosmos_sdtm:name "QSORRES" ;
    cosmos_sdtm:originSource NCIT:C25936 ;
    cosmos_sdtm:originType NCIT:C170548 ;
    cosmos_sdtm:relationship <https://w3id.org/cdisc/cosmos/dss/QS/PATCHSURVEYDURABILITY/QSORRES/relationship> ;
    cosmos_sdtm:role <https://www.cdisc.org/cosmos/sdtm_v1.0/RoleEnum#Qualifier> ;
    cosmos_sdtm:valueList "1 Strongly Disagree",
        "2",
        "3",
        "4 Neutral",
        "5",
        "6",
        "7 Strongly Agree" ;
    cosmos_sdtm:vlmTarget true .

<https://w3id.org/cdisc/cosmos/dss/QS/PATCHSURVEYDURABILITY/QSSTRESC> a cosmos_sdtm:SDTMVariable ;
    cosmos_sdtm:dataElementConceptId NCIT:C91106 ;
    cosmos_sdtm:dataType <https://www.cdisc.org/cosmos/sdtm_v1.0/SDTMVariableDataTypeEnum#integer> ;
    cosmos_sdtm:isNonStandard false ;
    cosmos_sdtm:length 1 ;
    cosmos_sdtm:mandatoryValue false ;
    cosmos_sdtm:mandatoryVariable true ;
    cosmos_sdtm:name "QSSTRESC" ;
    cosmos_sdtm:originSource NCIT:C70793 ;
    cosmos_sdtm:originType NCIT:C170549 ;
    cosmos_sdtm:relationship <https://w3id.org/cdisc/cosmos/dss/QS/PATCHSURVEYDURABILITY/QSSTRESC/relationship> ;
    cosmos_sdtm:role <https://www.cdisc.org/cosmos/sdtm_v1.0/RoleEnum#Qualifier> ;
    cosmos_sdtm:valueList "1",
        "2",
        "3",
        "4",
        "5",
        "6",
        "7" ;
    cosmos_sdtm:vlmTarget true .

<https://w3id.org/cdisc/cosmos/dss/QS/PATCHSURVEYDURABILITY/QSSTRESN> a cosmos_sdtm:SDTMVariable ;
    cosmos_sdtm:dataElementConceptId NCIT:C91106 ;
    cosmos_sdtm:dataType <https://www.cdisc.org/cosmos/sdtm_v1.0/SDTMVariableDataTypeEnum#integer> ;
    cosmos_sdtm:isNonStandard false ;
    cosmos_sdtm:length 1 ;
    cosmos_sdtm:mandatoryValue false ;
    cosmos_sdtm:mandatoryVariable true ;
    cosmos_sdtm:name "QSSTRESN" ;
    cosmos_sdtm:originSource NCIT:C70793 ;
    cosmos_sdtm:originType NCIT:C170549 ;
    cosmos_sdtm:relationship <https://w3id.org/cdisc/cosmos/dss/QS/PATCHSURVEYDURABILITY/QSSTRESN/relationship> ;
    cosmos_sdtm:role <https://www.cdisc.org/cosmos/sdtm_v1.0/RoleEnum#Qualifier> ;
    cosmos_sdtm:valueList "1",
        "2",
        "3",
        "4",
        "5",
        "6",
        "7" ;
    cosmos_sdtm:vlmTarget true .

<https://w3id.org/cdisc/cosmos/dss/QS/PATCHSURVEYDURABILITY/QSTEST> a cosmos_sdtm:SDTMVariable ;
    cosmos_sdtm:assignedTerm <https://w3id.org/cdisc/cosmos/dss/QS/PATCHSURVEYDURABILITY/QSTEST/assignedTerm> ;
    cosmos_sdtm:isNonStandard false ;
    cosmos_sdtm:mandatoryValue true ;
    cosmos_sdtm:mandatoryVariable true ;
    cosmos_sdtm:name "QSTEST" ;
    cosmos_sdtm:originSource NCIT:C70793 ;
    cosmos_sdtm:originType NCIT:C170547 ;
    cosmos_sdtm:relationship <https://w3id.org/cdisc/cosmos/dss/QS/PATCHSURVEYDURABILITY/QSTEST/relationship> ;
    cosmos_sdtm:role <https://www.cdisc.org/cosmos/sdtm_v1.0/RoleEnum#Qualifier> .

<https://w3id.org/cdisc/cosmos/dss/QS/PATCHSURVEYDURABILITY/QSTESTCD> a cosmos_sdtm:SDTMVariable ;
    cosmos_sdtm:assignedTerm <https://w3id.org/cdisc/cosmos/dss/QS/PATCHSURVEYDURABILITY/QSTESTCD/assignedTerm> ;
    cosmos_sdtm:comparator <https://www.cdisc.org/cosmos/sdtm_v1.0/ComparatorEnum#EQ> ;
    cosmos_sdtm:isNonStandard false ;
    cosmos_sdtm:mandatoryValue true ;
    cosmos_sdtm:mandatoryVariable true ;
    cosmos_sdtm:name "QSTESTCD" ;
    cosmos_sdtm:originSource NCIT:C70793 ;
    cosmos_sdtm:originType NCIT:C170547 ;
    cosmos_sdtm:relationship <https://w3id.org/cdisc/cosmos/dss/QS/PATCHSURVEYDURABILITY/QSTESTCD/relationship> ;
    cosmos_sdtm:role <https://www.cdisc.org/cosmos/sdtm_v1.0/RoleEnum#Topic> .

<https://w3id.org/cdisc/cosmos/dss/QS/PATCHSURVEYSIZE/QSCAT> a cosmos_sdtm:SDTMVariable ;
    cosmos_sdtm:assignedTerm <https://w3id.org/cdisc/cosmos/dss/QS/PATCHSURVEYSIZE/QSCAT/assignedTerm> ;
    cosmos_sdtm:codelist NCIT:C100129 ;
    cosmos_sdtm:comparator <https://www.cdisc.org/cosmos/sdtm_v1.0/ComparatorEnum#EQ> ;
    cosmos_sdtm:isNonStandard false ;
    cosmos_sdtm:mandatoryValue true ;
    cosmos_sdtm:mandatoryVariable true ;
    cosmos_sdtm:name "QSCAT" ;
    cosmos_sdtm:originSource NCIT:C70793 ;
    cosmos_sdtm:originType NCIT:C170547 ;
    cosmos_sdtm:relationship <https://w3id.org/cdisc/cosmos/dss/QS/PATCHSURVEYSIZE/QSCAT/relationship> ;
    cosmos_sdtm:role <https://www.cdisc.org/cosmos/sdtm_v1.0/RoleEnum#Qualifier> .

<https://w3id.org/cdisc/cosmos/dss/QS/PATCHSURVEYSIZE/QSDTC> a cosmos_sdtm:SDTMVariable ;
    cosmos_sdtm:dataElementConceptId NCIT:C82515 ;
    cosmos_sdtm:isNonStandard false ;
    cosmos_sdtm:mandatoryValue false ;
    cosmos_sdtm:mandatoryVariable true ;
    cosmos_sdtm:name "QSDTC" ;
    cosmos_sdtm:relationship <https://w3id.org/cdisc/cosmos/dss/QS/PATCHSURVEYSIZE/QSDTC/relationship> ;
    cosmos_sdtm:role <https://www.cdisc.org/cosmos/sdtm_v1.0/RoleEnum#Timing> .

<https://w3id.org/cdisc/cosmos/dss/QS/PATCHSURVEYSIZE/QSEVAL> a cosmos_sdtm:SDTMVariable ;
    cosmos_sdtm:assignedTerm <https://w3id.org/cdisc/cosmos/dss/QS/PATCHSURVEYSIZE/QSEVAL/assignedTerm> ;
    cosmos_sdtm:codelist NCIT:C78735 ;
    cosmos_sdtm:comparator <https://www.cdisc.org/cosmos/sdtm_v1.0/ComparatorEnum#EQ> ;
    cosmos_sdtm:dataElementConceptId NCIT:C51824 ;
    cosmos_sdtm:isNonStandard false ;
    cosmos_sdtm:mandatoryValue false ;
    cosmos_sdtm:mandatoryVariable true ;
    cosmos_sdtm:name "QSEVAL" ;
    cosmos_sdtm:originSource NCIT:C70793 ;
    cosmos_sdtm:originType NCIT:C170547 ;
    cosmos_sdtm:relationship <https://w3id.org/cdisc/cosmos/dss/QS/PATCHSURVEYSIZE/QSEVAL/relationship> ;
    cosmos_sdtm:role <https://www.cdisc.org/cosmos/sdtm_v1.0/RoleEnum#Qualifier> .

<https://w3id.org/cdisc/cosmos/dss/QS/PATCHSURVEYSIZE/QSORRES> a cosmos_sdtm:SDTMVariable ;
    cosmos_sdtm:dataElementConceptId NCIT:C46126 ;
    cosmos_sdtm:dataType <https://www.cdisc.org/cosmos/sdtm_v1.0/SDTMVariableDataTypeEnum#text> ;
    cosmos_sdtm:isNonStandard false ;
    cosmos_sdtm:length 200 ;
    cosmos_sdtm:mandatoryValue false ;
    cosmos_sdtm:mandatoryVariable true ;
    cosmos_sdtm:name "QSORRES" ;
    cosmos_sdtm:originSource NCIT:C25936 ;
    cosmos_sdtm:originType NCIT:C170548 ;
    cosmos_sdtm:relationship <https://w3id.org/cdisc/cosmos/dss/QS/PATCHSURVEYSIZE/QSORRES/relationship> ;
    cosmos_sdtm:role <https://www.cdisc.org/cosmos/sdtm_v1.0/RoleEnum#Qualifier> ;
    cosmos_sdtm:valueList "1 Strongly Disagree",
        "2",
        "3",
        "4 Neutral",
        "5",
        "6",
        "7 Strongly Agree" ;
    cosmos_sdtm:vlmTarget true .

<https://w3id.org/cdisc/cosmos/dss/QS/PATCHSURVEYSIZE/QSSTRESC> a cosmos_sdtm:SDTMVariable ;
    cosmos_sdtm:dataElementConceptId NCIT:C91106 ;
    cosmos_sdtm:dataType <https://www.cdisc.org/cosmos/sdtm_v1.0/SDTMVariableDataTypeEnum#integer> ;
    cosmos_sdtm:isNonStandard false ;
    cosmos_sdtm:length 1 ;
    cosmos_sdtm:mandatoryValue false ;
    cosmos_sdtm:mandatoryVariable true ;
    cosmos_sdtm:name "QSSTRESC" ;
    cosmos_sdtm:originSource NCIT:C70793 ;
    cosmos_sdtm:originType NCIT:C170549 ;
    cosmos_sdtm:relationship <https://w3id.org/cdisc/cosmos/dss/QS/PATCHSURVEYSIZE/QSSTRESC/relationship> ;
    cosmos_sdtm:role <https://www.cdisc.org/cosmos/sdtm_v1.0/RoleEnum#Qualifier> ;
    cosmos_sdtm:valueList "1",
        "2",
        "3",
        "4",
        "5",
        "6",
        "7" ;
    cosmos_sdtm:vlmTarget true .

<https://w3id.org/cdisc/cosmos/dss/QS/PATCHSURVEYSIZE/QSSTRESN> a cosmos_sdtm:SDTMVariable ;
    cosmos_sdtm:dataElementConceptId NCIT:C91106 ;
    cosmos_sdtm:dataType <https://www.cdisc.org/cosmos/sdtm_v1.0/SDTMVariableDataTypeEnum#integer> ;
    cosmos_sdtm:isNonStandard false ;
    cosmos_sdtm:length 1 ;
    cosmos_sdtm:mandatoryValue false ;
    cosmos_sdtm:mandatoryVariable true ;
    cosmos_sdtm:name "QSSTRESN" ;
    cosmos_sdtm:originSource NCIT:C70793 ;
    cosmos_sdtm:originType NCIT:C170549 ;
    cosmos_sdtm:relationship <https://w3id.org/cdisc/cosmos/dss/QS/PATCHSURVEYSIZE/QSSTRESN/relationship> ;
    cosmos_sdtm:role <https://www.cdisc.org/cosmos/sdtm_v1.0/RoleEnum#Qualifier> ;
    cosmos_sdtm:valueList "1",
        "2",
        "3",
        "4",
        "5",
        "6",
        "7" ;
    cosmos_sdtm:vlmTarget true .

<https://w3id.org/cdisc/cosmos/dss/QS/PATCHSURVEYSIZE/QSTEST> a cosmos_sdtm:SDTMVariable ;
    cosmos_sdtm:assignedTerm <https://w3id.org/cdisc/cosmos/dss/QS/PATCHSURVEYSIZE/QSTEST/assignedTerm> ;
    cosmos_sdtm:isNonStandard false ;
    cosmos_sdtm:mandatoryValue true ;
    cosmos_sdtm:mandatoryVariable true ;
    cosmos_sdtm:name "QSTEST" ;
    cosmos_sdtm:originSource NCIT:C70793 ;
    cosmos_sdtm:originType NCIT:C170547 ;
    cosmos_sdtm:relationship <https://w3id.org/cdisc/cosmos/dss/QS/PATCHSURVEYSIZE/QSTEST/relationship> ;
    cosmos_sdtm:role <https://www.cdisc.org/cosmos/sdtm_v1.0/RoleEnum#Qualifier> .

<https://w3id.org/cdisc/cosmos/dss/QS/PATCHSURVEYSIZE/QSTESTCD> a cosmos_sdtm:SDTMVariable ;
    cosmos_sdtm:assignedTerm <https://w3id.org/cdisc/cosmos/dss/QS/PATCHSURVEYSIZE/QSTESTCD/assignedTerm> ;
    cosmos_sdtm:comparator <https://www.cdisc.org/cosmos/sdtm_v1.0/ComparatorEnum#EQ> ;
    cosmos_sdtm:isNonStandard false ;
    cosmos_sdtm:mandatoryValue true ;
    cosmos_sdtm:mandatoryVariable true ;
    cosmos_sdtm:name "QSTESTCD" ;
    cosmos_sdtm:originSource NCIT:C70793 ;
    cosmos_sdtm:originType NCIT:C170547 ;
    cosmos_sdtm:relationship <https://w3id.org/cdisc/cosmos/dss/QS/PATCHSURVEYSIZE/QSTESTCD/relationship> ;
    cosmos_sdtm:role <https://www.cdisc.org/cosmos/sdtm_v1.0/RoleEnum#Topic> .

NCIT:C179949 a cosmos_sdtm:CodeList ;
    dcterms:identifier "C179949" ;
    skos:exactMatch <http://ncicb.nci.nih.gov/xml/owl/EVS/Thesaurus.owl#C179949> ;
    cosmos_sdtm:submissionValue "CES0105T07OR" .

NCIT:C78735 a cosmos_sdtm:CodeList ;
    dcterms:identifier "C78735" ;
    skos:exactMatch <http://ncicb.nci.nih.gov/xml/owl/EVS/Thesaurus.owl#C78735> ;
    cosmos_sdtm:submissionValue "EVAL" .

NCIT:C101817 a cosmos_sdtm:CodeList ;
    dcterms:identifier "C101817" ;
    skos:exactMatch <http://ncicb.nci.nih.gov/xml/owl/EVS/Thesaurus.owl#C101817> ;
    cosmos_sdtm:submissionValue "EQ5D02TC" .

NCIT:C101818 a cosmos_sdtm:CodeList ;
    dcterms:identifier "C101818" ;
    skos:exactMatch <http://ncicb.nci.nih.gov/xml/owl/EVS/Thesaurus.owl#C101818> ;
    cosmos_sdtm:submissionValue "EQ5D02TN" .

NCIT:C179954 a cosmos_sdtm:CodeList ;
    dcterms:identifier "C179954" ;
    skos:exactMatch <http://ncicb.nci.nih.gov/xml/owl/EVS/Thesaurus.owl#C179954> ;
    cosmos_sdtm:submissionValue "CES0105T07STR" .

NCIT:C132518 a cosmos_sdtm:CodeList ;
    dcterms:identifier "C132518" ;
    skos:exactMatch <http://ncicb.nci.nih.gov/xml/owl/EVS/Thesaurus.owl#C132518> ;
    cosmos_sdtm:submissionValue "CES01TN" .

NCIT:C132519 a cosmos_sdtm:CodeList ;
    dcterms:identifier "C132519" ;
    skos:exactMatch <http://ncicb.nci.nih.gov/xml/owl/EVS/Thesaurus.owl#C132519> ;
    cosmos_sdtm:submissionValue "CES01TC" .

NCIT:C100129 a cosmos_sdtm:CodeList ;
    dcterms:identifier "C100129" ;
    skos:exactMatch <http://ncicb.nci.nih.gov/xml/owl/EVS/Thesaurus.owl#C100129> ;
    cosmos_sdtm:submissionValue "QSCAT" .

