@prefix NCIT: <http://purl.obolibrary.org/obo/NCIT_> .
@prefix cosmos_sdtm: <https://www.cdisc.org/cosmos/sdtm_v1.0/> .
@prefix dcterms: <http://purl.org/dc/terms/> .
@prefix owl: <http://www.w3.org/2002/07/owl#> .
@prefix rdf: <http://www.w3.org/1999/02/22-rdf-syntax-ns#> .
@prefix rdfs: <http://www.w3.org/2000/01/rdf-schema#> .
@prefix skos: <http://www.w3.org/2004/02/skos/core#> .
@prefix xsd: <http://www.w3.org/2001/XMLSchema#> .

<https://w3id.org/cdisc/cosmos/dss/MK> a owl:Ontology ;
    rdfs:label "CDISC COSMoS Dataset Specializations, MK (instances)" ;
    dcterms:identifier "2026-07-14" ;
    dcterms:source <https://raw.githubusercontent.com/cdisc-org/COSMoS/031429b1d14823721991cd23ee88a11616686ce3/export/cdisc_sdtm_dataset_specializations_latest.csv> ;
    rdfs:comment "Dataset Specialization instances for domain MK, rendered from the pinned COSMoS export. Variable order is the export's row order, carried as rdf:_n membership beside the variables edges. length and significantDigits are cast from the export's decimal form to integer; packageType is not in the export and is set to the enum's single value. A biomedicalConceptId or dataElementConceptId that resolves to no node is carried as the published string. The concept nodes those edges reach are declared in the Biomedical Concept instance graph, which is not imported. Draft - not a normative CDISC artifact." ;
    owl:imports <https://w3id.org/cdisc/cosmos/sdtm/> ;
    owl:versionIRI <https://w3id.org/cdisc/cosmos/dss/MK/0.4.0> ;
    owl:versionInfo "v0.4.0" .

<https://w3id.org/cdisc/cosmos/dss/MK/ALPHANGL> a cosmos_sdtm:SDTMGroup ;
    dcterms:identifier "ALPHANGL" ;
    rdf:_1 <https://w3id.org/cdisc/cosmos/dss/MK/ALPHANGL/MKTESTCD> ;
    rdf:_10 <https://w3id.org/cdisc/cosmos/dss/MK/ALPHANGL/MKMETHOD> ;
    rdf:_11 <https://w3id.org/cdisc/cosmos/dss/MK/ALPHANGL/MKDTC> ;
    rdf:_2 <https://w3id.org/cdisc/cosmos/dss/MK/ALPHANGL/MKTEST> ;
    rdf:_3 <https://w3id.org/cdisc/cosmos/dss/MK/ALPHANGL/MKORRES> ;
    rdf:_4 <https://w3id.org/cdisc/cosmos/dss/MK/ALPHANGL/MKORRESU> ;
    rdf:_5 <https://w3id.org/cdisc/cosmos/dss/MK/ALPHANGL/MKSTRESC> ;
    rdf:_6 <https://w3id.org/cdisc/cosmos/dss/MK/ALPHANGL/MKSTRESN> ;
    rdf:_7 <https://w3id.org/cdisc/cosmos/dss/MK/ALPHANGL/MKSTRESU> ;
    rdf:_8 <https://w3id.org/cdisc/cosmos/dss/MK/ALPHANGL/MKLOC> ;
    rdf:_9 <https://w3id.org/cdisc/cosmos/dss/MK/ALPHANGL/MKLAT> ;
    cosmos_sdtm:biomedicalConceptId NCIT:C191306 ;
    cosmos_sdtm:domain "MK" ;
    cosmos_sdtm:packageDate "2026-05-26"^^xsd:date ;
    cosmos_sdtm:packageType <https://www.cdisc.org/cosmos/sdtm_v1.0/PackageTypeEnum#sdtm> ;
    cosmos_sdtm:sdtmigStartVersion "3-3" ;
    cosmos_sdtm:shortName "Alpha Angle" ;
    cosmos_sdtm:source "MK.MKTESTCD" ;
    cosmos_sdtm:variables <https://w3id.org/cdisc/cosmos/dss/MK/ALPHANGL/MKDTC>,
        <https://w3id.org/cdisc/cosmos/dss/MK/ALPHANGL/MKLAT>,
        <https://w3id.org/cdisc/cosmos/dss/MK/ALPHANGL/MKLOC>,
        <https://w3id.org/cdisc/cosmos/dss/MK/ALPHANGL/MKMETHOD>,
        <https://w3id.org/cdisc/cosmos/dss/MK/ALPHANGL/MKORRES>,
        <https://w3id.org/cdisc/cosmos/dss/MK/ALPHANGL/MKORRESU>,
        <https://w3id.org/cdisc/cosmos/dss/MK/ALPHANGL/MKSTRESC>,
        <https://w3id.org/cdisc/cosmos/dss/MK/ALPHANGL/MKSTRESN>,
        <https://w3id.org/cdisc/cosmos/dss/MK/ALPHANGL/MKSTRESU>,
        <https://w3id.org/cdisc/cosmos/dss/MK/ALPHANGL/MKTEST>,
        <https://w3id.org/cdisc/cosmos/dss/MK/ALPHANGL/MKTESTCD> .

<https://w3id.org/cdisc/cosmos/dss/MK/ASMMASS> a cosmos_sdtm:SDTMGroup ;
    dcterms:identifier "ASMMASS" ;
    rdf:_1 <https://w3id.org/cdisc/cosmos/dss/MK/ASMMASS/MKTESTCD> ;
    rdf:_10 <https://w3id.org/cdisc/cosmos/dss/MK/ASMMASS/MKMETHOD> ;
    rdf:_11 <https://w3id.org/cdisc/cosmos/dss/MK/ASMMASS/MKDTC> ;
    rdf:_2 <https://w3id.org/cdisc/cosmos/dss/MK/ASMMASS/MKTEST> ;
    rdf:_3 <https://w3id.org/cdisc/cosmos/dss/MK/ASMMASS/MKORRES> ;
    rdf:_4 <https://w3id.org/cdisc/cosmos/dss/MK/ASMMASS/MKORRESU> ;
    rdf:_5 <https://w3id.org/cdisc/cosmos/dss/MK/ASMMASS/MKSTRESC> ;
    rdf:_6 <https://w3id.org/cdisc/cosmos/dss/MK/ASMMASS/MKSTRESN> ;
    rdf:_7 <https://w3id.org/cdisc/cosmos/dss/MK/ASMMASS/MKSTRESU> ;
    rdf:_8 <https://w3id.org/cdisc/cosmos/dss/MK/ASMMASS/MKLOC> ;
    rdf:_9 <https://w3id.org/cdisc/cosmos/dss/MK/ASMMASS/MKLAT> ;
    cosmos_sdtm:biomedicalConceptId NCIT:C178018 ;
    cosmos_sdtm:domain "MK" ;
    cosmos_sdtm:packageDate "2026-05-26"^^xsd:date ;
    cosmos_sdtm:packageType <https://www.cdisc.org/cosmos/sdtm_v1.0/PackageTypeEnum#sdtm> ;
    cosmos_sdtm:sdtmigStartVersion "3-3" ;
    cosmos_sdtm:shortName "Appendicular Skeletal Muscle Mass" ;
    cosmos_sdtm:source "MK.MKTESTCD" ;
    cosmos_sdtm:variables <https://w3id.org/cdisc/cosmos/dss/MK/ASMMASS/MKDTC>,
        <https://w3id.org/cdisc/cosmos/dss/MK/ASMMASS/MKLAT>,
        <https://w3id.org/cdisc/cosmos/dss/MK/ASMMASS/MKLOC>,
        <https://w3id.org/cdisc/cosmos/dss/MK/ASMMASS/MKMETHOD>,
        <https://w3id.org/cdisc/cosmos/dss/MK/ASMMASS/MKORRES>,
        <https://w3id.org/cdisc/cosmos/dss/MK/ASMMASS/MKORRESU>,
        <https://w3id.org/cdisc/cosmos/dss/MK/ASMMASS/MKSTRESC>,
        <https://w3id.org/cdisc/cosmos/dss/MK/ASMMASS/MKSTRESN>,
        <https://w3id.org/cdisc/cosmos/dss/MK/ASMMASS/MKSTRESU>,
        <https://w3id.org/cdisc/cosmos/dss/MK/ASMMASS/MKTEST>,
        <https://w3id.org/cdisc/cosmos/dss/MK/ASMMASS/MKTESTCD> .

<https://w3id.org/cdisc/cosmos/dss/MK/BETAANGL> a cosmos_sdtm:SDTMGroup ;
    dcterms:identifier "BETAANGL" ;
    rdf:_1 <https://w3id.org/cdisc/cosmos/dss/MK/BETAANGL/MKTESTCD> ;
    rdf:_10 <https://w3id.org/cdisc/cosmos/dss/MK/BETAANGL/MKMETHOD> ;
    rdf:_11 <https://w3id.org/cdisc/cosmos/dss/MK/BETAANGL/MKDTC> ;
    rdf:_2 <https://w3id.org/cdisc/cosmos/dss/MK/BETAANGL/MKTEST> ;
    rdf:_3 <https://w3id.org/cdisc/cosmos/dss/MK/BETAANGL/MKORRES> ;
    rdf:_4 <https://w3id.org/cdisc/cosmos/dss/MK/BETAANGL/MKORRESU> ;
    rdf:_5 <https://w3id.org/cdisc/cosmos/dss/MK/BETAANGL/MKSTRESC> ;
    rdf:_6 <https://w3id.org/cdisc/cosmos/dss/MK/BETAANGL/MKSTRESN> ;
    rdf:_7 <https://w3id.org/cdisc/cosmos/dss/MK/BETAANGL/MKSTRESU> ;
    rdf:_8 <https://w3id.org/cdisc/cosmos/dss/MK/BETAANGL/MKLOC> ;
    rdf:_9 <https://w3id.org/cdisc/cosmos/dss/MK/BETAANGL/MKLAT> ;
    cosmos_sdtm:biomedicalConceptId NCIT:C191307 ;
    cosmos_sdtm:domain "MK" ;
    cosmos_sdtm:packageDate "2026-05-26"^^xsd:date ;
    cosmos_sdtm:packageType <https://www.cdisc.org/cosmos/sdtm_v1.0/PackageTypeEnum#sdtm> ;
    cosmos_sdtm:sdtmigStartVersion "3-3" ;
    cosmos_sdtm:shortName "Beta Angle" ;
    cosmos_sdtm:source "MK.MKTESTCD" ;
    cosmos_sdtm:variables <https://w3id.org/cdisc/cosmos/dss/MK/BETAANGL/MKDTC>,
        <https://w3id.org/cdisc/cosmos/dss/MK/BETAANGL/MKLAT>,
        <https://w3id.org/cdisc/cosmos/dss/MK/BETAANGL/MKLOC>,
        <https://w3id.org/cdisc/cosmos/dss/MK/BETAANGL/MKMETHOD>,
        <https://w3id.org/cdisc/cosmos/dss/MK/BETAANGL/MKORRES>,
        <https://w3id.org/cdisc/cosmos/dss/MK/BETAANGL/MKORRESU>,
        <https://w3id.org/cdisc/cosmos/dss/MK/BETAANGL/MKSTRESC>,
        <https://w3id.org/cdisc/cosmos/dss/MK/BETAANGL/MKSTRESN>,
        <https://w3id.org/cdisc/cosmos/dss/MK/BETAANGL/MKSTRESU>,
        <https://w3id.org/cdisc/cosmos/dss/MK/BETAANGL/MKTEST>,
        <https://w3id.org/cdisc/cosmos/dss/MK/BETAANGL/MKTESTCD> .

<https://w3id.org/cdisc/cosmos/dss/MK/BMC> a cosmos_sdtm:SDTMGroup ;
    dcterms:identifier "BMC" ;
    rdf:_1 <https://w3id.org/cdisc/cosmos/dss/MK/BMC/MKTESTCD> ;
    rdf:_10 <https://w3id.org/cdisc/cosmos/dss/MK/BMC/MKMETHOD> ;
    rdf:_11 <https://w3id.org/cdisc/cosmos/dss/MK/BMC/MKDTC> ;
    rdf:_2 <https://w3id.org/cdisc/cosmos/dss/MK/BMC/MKTEST> ;
    rdf:_3 <https://w3id.org/cdisc/cosmos/dss/MK/BMC/MKORRES> ;
    rdf:_4 <https://w3id.org/cdisc/cosmos/dss/MK/BMC/MKORRESU> ;
    rdf:_5 <https://w3id.org/cdisc/cosmos/dss/MK/BMC/MKSTRESC> ;
    rdf:_6 <https://w3id.org/cdisc/cosmos/dss/MK/BMC/MKSTRESN> ;
    rdf:_7 <https://w3id.org/cdisc/cosmos/dss/MK/BMC/MKSTRESU> ;
    rdf:_8 <https://w3id.org/cdisc/cosmos/dss/MK/BMC/MKLOC> ;
    rdf:_9 <https://w3id.org/cdisc/cosmos/dss/MK/BMC/MKLAT> ;
    cosmos_sdtm:biomedicalConceptId NCIT:C147472 ;
    cosmos_sdtm:domain "MK" ;
    cosmos_sdtm:packageDate "2026-05-26"^^xsd:date ;
    cosmos_sdtm:packageType <https://www.cdisc.org/cosmos/sdtm_v1.0/PackageTypeEnum#sdtm> ;
    cosmos_sdtm:sdtmigStartVersion "3-3" ;
    cosmos_sdtm:shortName "Bone Mineral Content" ;
    cosmos_sdtm:source "MK.MKTESTCD" ;
    cosmos_sdtm:variables <https://w3id.org/cdisc/cosmos/dss/MK/BMC/MKDTC>,
        <https://w3id.org/cdisc/cosmos/dss/MK/BMC/MKLAT>,
        <https://w3id.org/cdisc/cosmos/dss/MK/BMC/MKLOC>,
        <https://w3id.org/cdisc/cosmos/dss/MK/BMC/MKMETHOD>,
        <https://w3id.org/cdisc/cosmos/dss/MK/BMC/MKORRES>,
        <https://w3id.org/cdisc/cosmos/dss/MK/BMC/MKORRESU>,
        <https://w3id.org/cdisc/cosmos/dss/MK/BMC/MKSTRESC>,
        <https://w3id.org/cdisc/cosmos/dss/MK/BMC/MKSTRESN>,
        <https://w3id.org/cdisc/cosmos/dss/MK/BMC/MKSTRESU>,
        <https://w3id.org/cdisc/cosmos/dss/MK/BMC/MKTEST>,
        <https://w3id.org/cdisc/cosmos/dss/MK/BMC/MKTESTCD> .

<https://w3id.org/cdisc/cosmos/dss/MK/BMD> a cosmos_sdtm:SDTMGroup ;
    dcterms:identifier "BMD" ;
    rdf:_1 <https://w3id.org/cdisc/cosmos/dss/MK/BMD/MKTESTCD> ;
    rdf:_10 <https://w3id.org/cdisc/cosmos/dss/MK/BMD/MKMETHOD> ;
    rdf:_11 <https://w3id.org/cdisc/cosmos/dss/MK/BMD/MKDTC> ;
    rdf:_2 <https://w3id.org/cdisc/cosmos/dss/MK/BMD/MKTEST> ;
    rdf:_3 <https://w3id.org/cdisc/cosmos/dss/MK/BMD/MKORRES> ;
    rdf:_4 <https://w3id.org/cdisc/cosmos/dss/MK/BMD/MKORRESU> ;
    rdf:_5 <https://w3id.org/cdisc/cosmos/dss/MK/BMD/MKSTRESC> ;
    rdf:_6 <https://w3id.org/cdisc/cosmos/dss/MK/BMD/MKSTRESN> ;
    rdf:_7 <https://w3id.org/cdisc/cosmos/dss/MK/BMD/MKSTRESU> ;
    rdf:_8 <https://w3id.org/cdisc/cosmos/dss/MK/BMD/MKLOC> ;
    rdf:_9 <https://w3id.org/cdisc/cosmos/dss/MK/BMD/MKLAT> ;
    cosmos_sdtm:biomedicalConceptId NCIT:C61545 ;
    cosmos_sdtm:domain "MK" ;
    cosmos_sdtm:packageDate "2026-05-26"^^xsd:date ;
    cosmos_sdtm:packageType <https://www.cdisc.org/cosmos/sdtm_v1.0/PackageTypeEnum#sdtm> ;
    cosmos_sdtm:sdtmigStartVersion "3-3" ;
    cosmos_sdtm:shortName "Bone Mineral Density" ;
    cosmos_sdtm:source "MK.MKTESTCD" ;
    cosmos_sdtm:variables <https://w3id.org/cdisc/cosmos/dss/MK/BMD/MKDTC>,
        <https://w3id.org/cdisc/cosmos/dss/MK/BMD/MKLAT>,
        <https://w3id.org/cdisc/cosmos/dss/MK/BMD/MKLOC>,
        <https://w3id.org/cdisc/cosmos/dss/MK/BMD/MKMETHOD>,
        <https://w3id.org/cdisc/cosmos/dss/MK/BMD/MKORRES>,
        <https://w3id.org/cdisc/cosmos/dss/MK/BMD/MKORRESU>,
        <https://w3id.org/cdisc/cosmos/dss/MK/BMD/MKSTRESC>,
        <https://w3id.org/cdisc/cosmos/dss/MK/BMD/MKSTRESN>,
        <https://w3id.org/cdisc/cosmos/dss/MK/BMD/MKSTRESU>,
        <https://w3id.org/cdisc/cosmos/dss/MK/BMD/MKTEST>,
        <https://w3id.org/cdisc/cosmos/dss/MK/BMD/MKTESTCD> .

<https://w3id.org/cdisc/cosmos/dss/MK/BMDT> a cosmos_sdtm:SDTMGroup ;
    dcterms:identifier "BMDT" ;
    rdf:_1 <https://w3id.org/cdisc/cosmos/dss/MK/BMDT/MKTESTCD> ;
    rdf:_2 <https://w3id.org/cdisc/cosmos/dss/MK/BMDT/MKTEST> ;
    rdf:_3 <https://w3id.org/cdisc/cosmos/dss/MK/BMDT/MKORRES> ;
    rdf:_4 <https://w3id.org/cdisc/cosmos/dss/MK/BMDT/MKSTRESC> ;
    rdf:_5 <https://w3id.org/cdisc/cosmos/dss/MK/BMDT/MKSTRESN> ;
    rdf:_6 <https://w3id.org/cdisc/cosmos/dss/MK/BMDT/MKLOC> ;
    rdf:_7 <https://w3id.org/cdisc/cosmos/dss/MK/BMDT/MKLAT> ;
    rdf:_8 <https://w3id.org/cdisc/cosmos/dss/MK/BMDT/MKMETHOD> ;
    rdf:_9 <https://w3id.org/cdisc/cosmos/dss/MK/BMDT/MKDTC> ;
    cosmos_sdtm:biomedicalConceptId NCIT:C147473 ;
    cosmos_sdtm:domain "MK" ;
    cosmos_sdtm:packageDate "2026-05-26"^^xsd:date ;
    cosmos_sdtm:packageType <https://www.cdisc.org/cosmos/sdtm_v1.0/PackageTypeEnum#sdtm> ;
    cosmos_sdtm:sdtmigStartVersion "3-3" ;
    cosmos_sdtm:shortName "Bone Mineral Density T-Score" ;
    cosmos_sdtm:source "MK.MKTESTCD" ;
    cosmos_sdtm:variables <https://w3id.org/cdisc/cosmos/dss/MK/BMDT/MKDTC>,
        <https://w3id.org/cdisc/cosmos/dss/MK/BMDT/MKLAT>,
        <https://w3id.org/cdisc/cosmos/dss/MK/BMDT/MKLOC>,
        <https://w3id.org/cdisc/cosmos/dss/MK/BMDT/MKMETHOD>,
        <https://w3id.org/cdisc/cosmos/dss/MK/BMDT/MKORRES>,
        <https://w3id.org/cdisc/cosmos/dss/MK/BMDT/MKSTRESC>,
        <https://w3id.org/cdisc/cosmos/dss/MK/BMDT/MKSTRESN>,
        <https://w3id.org/cdisc/cosmos/dss/MK/BMDT/MKTEST>,
        <https://w3id.org/cdisc/cosmos/dss/MK/BMDT/MKTESTCD> .

<https://w3id.org/cdisc/cosmos/dss/MK/BMDZ> a cosmos_sdtm:SDTMGroup ;
    dcterms:identifier "BMDZ" ;
    rdf:_1 <https://w3id.org/cdisc/cosmos/dss/MK/BMDZ/MKTESTCD> ;
    rdf:_2 <https://w3id.org/cdisc/cosmos/dss/MK/BMDZ/MKTEST> ;
    rdf:_3 <https://w3id.org/cdisc/cosmos/dss/MK/BMDZ/MKORRES> ;
    rdf:_4 <https://w3id.org/cdisc/cosmos/dss/MK/BMDZ/MKSTRESC> ;
    rdf:_5 <https://w3id.org/cdisc/cosmos/dss/MK/BMDZ/MKSTRESN> ;
    rdf:_6 <https://w3id.org/cdisc/cosmos/dss/MK/BMDZ/MKLOC> ;
    rdf:_7 <https://w3id.org/cdisc/cosmos/dss/MK/BMDZ/MKLAT> ;
    rdf:_8 <https://w3id.org/cdisc/cosmos/dss/MK/BMDZ/MKMETHOD> ;
    rdf:_9 <https://w3id.org/cdisc/cosmos/dss/MK/BMDZ/MKDTC> ;
    cosmos_sdtm:biomedicalConceptId NCIT:C139217 ;
    cosmos_sdtm:domain "MK" ;
    cosmos_sdtm:packageDate "2026-05-26"^^xsd:date ;
    cosmos_sdtm:packageType <https://www.cdisc.org/cosmos/sdtm_v1.0/PackageTypeEnum#sdtm> ;
    cosmos_sdtm:sdtmigStartVersion "3-3" ;
    cosmos_sdtm:shortName "Bone Mineral Density Z-Score" ;
    cosmos_sdtm:source "MK.MKTESTCD" ;
    cosmos_sdtm:variables <https://w3id.org/cdisc/cosmos/dss/MK/BMDZ/MKDTC>,
        <https://w3id.org/cdisc/cosmos/dss/MK/BMDZ/MKLAT>,
        <https://w3id.org/cdisc/cosmos/dss/MK/BMDZ/MKLOC>,
        <https://w3id.org/cdisc/cosmos/dss/MK/BMDZ/MKMETHOD>,
        <https://w3id.org/cdisc/cosmos/dss/MK/BMDZ/MKORRES>,
        <https://w3id.org/cdisc/cosmos/dss/MK/BMDZ/MKSTRESC>,
        <https://w3id.org/cdisc/cosmos/dss/MK/BMDZ/MKSTRESN>,
        <https://w3id.org/cdisc/cosmos/dss/MK/BMDZ/MKTEST>,
        <https://w3id.org/cdisc/cosmos/dss/MK/BMDZ/MKTESTCD> .

<https://w3id.org/cdisc/cosmos/dss/MK/BMMTABDT> a cosmos_sdtm:SDTMGroup ;
    dcterms:identifier "BMMTABDT" ;
    rdf:_1 <https://w3id.org/cdisc/cosmos/dss/MK/BMMTABDT/MKTESTCD> ;
    rdf:_2 <https://w3id.org/cdisc/cosmos/dss/MK/BMMTABDT/MKTEST> ;
    rdf:_3 <https://w3id.org/cdisc/cosmos/dss/MK/BMMTABDT/MKORRES> ;
    rdf:_4 <https://w3id.org/cdisc/cosmos/dss/MK/BMMTABDT/MKSTRESC> ;
    rdf:_5 <https://w3id.org/cdisc/cosmos/dss/MK/BMMTABDT/MKSTRESN> ;
    rdf:_6 <https://w3id.org/cdisc/cosmos/dss/MK/BMMTABDT/MKLOC> ;
    rdf:_7 <https://w3id.org/cdisc/cosmos/dss/MK/BMMTABDT/MKLAT> ;
    rdf:_8 <https://w3id.org/cdisc/cosmos/dss/MK/BMMTABDT/MKDTC> ;
    cosmos_sdtm:biomedicalConceptId NCIT:C139223 ;
    cosmos_sdtm:domain "MK" ;
    cosmos_sdtm:packageDate "2026-05-26"^^xsd:date ;
    cosmos_sdtm:packageType <https://www.cdisc.org/cosmos/sdtm_v1.0/PackageTypeEnum#sdtm> ;
    cosmos_sdtm:sdtmigStartVersion "3-3" ;
    cosmos_sdtm:shortName "Brooke mMRC MMT Score, Abduction" ;
    cosmos_sdtm:source "MK.MKTESTCD" ;
    cosmos_sdtm:variables <https://w3id.org/cdisc/cosmos/dss/MK/BMMTABDT/MKDTC>,
        <https://w3id.org/cdisc/cosmos/dss/MK/BMMTABDT/MKLAT>,
        <https://w3id.org/cdisc/cosmos/dss/MK/BMMTABDT/MKLOC>,
        <https://w3id.org/cdisc/cosmos/dss/MK/BMMTABDT/MKORRES>,
        <https://w3id.org/cdisc/cosmos/dss/MK/BMMTABDT/MKSTRESC>,
        <https://w3id.org/cdisc/cosmos/dss/MK/BMMTABDT/MKSTRESN>,
        <https://w3id.org/cdisc/cosmos/dss/MK/BMMTABDT/MKTEST>,
        <https://w3id.org/cdisc/cosmos/dss/MK/BMMTABDT/MKTESTCD> .

<https://w3id.org/cdisc/cosmos/dss/MK/BMMTDORS> a cosmos_sdtm:SDTMGroup ;
    dcterms:identifier "BMMTDORS" ;
    rdf:_1 <https://w3id.org/cdisc/cosmos/dss/MK/BMMTDORS/MKTESTCD> ;
    rdf:_2 <https://w3id.org/cdisc/cosmos/dss/MK/BMMTDORS/MKTEST> ;
    rdf:_3 <https://w3id.org/cdisc/cosmos/dss/MK/BMMTDORS/MKORRES> ;
    rdf:_4 <https://w3id.org/cdisc/cosmos/dss/MK/BMMTDORS/MKSTRESC> ;
    rdf:_5 <https://w3id.org/cdisc/cosmos/dss/MK/BMMTDORS/MKSTRESN> ;
    rdf:_6 <https://w3id.org/cdisc/cosmos/dss/MK/BMMTDORS/MKLOC> ;
    rdf:_7 <https://w3id.org/cdisc/cosmos/dss/MK/BMMTDORS/MKLAT> ;
    rdf:_8 <https://w3id.org/cdisc/cosmos/dss/MK/BMMTDORS/MKDTC> ;
    cosmos_sdtm:biomedicalConceptId NCIT:C139225 ;
    cosmos_sdtm:domain "MK" ;
    cosmos_sdtm:packageDate "2026-05-26"^^xsd:date ;
    cosmos_sdtm:packageType <https://www.cdisc.org/cosmos/sdtm_v1.0/PackageTypeEnum#sdtm> ;
    cosmos_sdtm:sdtmigStartVersion "3-3" ;
    cosmos_sdtm:shortName "Brooke mMRC MMT Score, Dorsiflexion" ;
    cosmos_sdtm:source "MK.MKTESTCD" ;
    cosmos_sdtm:variables <https://w3id.org/cdisc/cosmos/dss/MK/BMMTDORS/MKDTC>,
        <https://w3id.org/cdisc/cosmos/dss/MK/BMMTDORS/MKLAT>,
        <https://w3id.org/cdisc/cosmos/dss/MK/BMMTDORS/MKLOC>,
        <https://w3id.org/cdisc/cosmos/dss/MK/BMMTDORS/MKORRES>,
        <https://w3id.org/cdisc/cosmos/dss/MK/BMMTDORS/MKSTRESC>,
        <https://w3id.org/cdisc/cosmos/dss/MK/BMMTDORS/MKSTRESN>,
        <https://w3id.org/cdisc/cosmos/dss/MK/BMMTDORS/MKTEST>,
        <https://w3id.org/cdisc/cosmos/dss/MK/BMMTDORS/MKTESTCD> .

<https://w3id.org/cdisc/cosmos/dss/MK/BMMTEVE> a cosmos_sdtm:SDTMGroup ;
    dcterms:identifier "BMMTEVE" ;
    rdf:_1 <https://w3id.org/cdisc/cosmos/dss/MK/BMMTEVE/MKTESTCD> ;
    rdf:_2 <https://w3id.org/cdisc/cosmos/dss/MK/BMMTEVE/MKTEST> ;
    rdf:_3 <https://w3id.org/cdisc/cosmos/dss/MK/BMMTEVE/MKORRES> ;
    rdf:_4 <https://w3id.org/cdisc/cosmos/dss/MK/BMMTEVE/MKSTRESC> ;
    rdf:_5 <https://w3id.org/cdisc/cosmos/dss/MK/BMMTEVE/MKSTRESN> ;
    rdf:_6 <https://w3id.org/cdisc/cosmos/dss/MK/BMMTEVE/MKLOC> ;
    rdf:_7 <https://w3id.org/cdisc/cosmos/dss/MK/BMMTEVE/MKLAT> ;
    rdf:_8 <https://w3id.org/cdisc/cosmos/dss/MK/BMMTEVE/MKDTC> ;
    cosmos_sdtm:biomedicalConceptId NCIT:C139227 ;
    cosmos_sdtm:domain "MK" ;
    cosmos_sdtm:packageDate "2026-05-26"^^xsd:date ;
    cosmos_sdtm:packageType <https://www.cdisc.org/cosmos/sdtm_v1.0/PackageTypeEnum#sdtm> ;
    cosmos_sdtm:sdtmigStartVersion "3-3" ;
    cosmos_sdtm:shortName "Brooke mMRC MMT Score, Eversion" ;
    cosmos_sdtm:source "MK.MKTESTCD" ;
    cosmos_sdtm:variables <https://w3id.org/cdisc/cosmos/dss/MK/BMMTEVE/MKDTC>,
        <https://w3id.org/cdisc/cosmos/dss/MK/BMMTEVE/MKLAT>,
        <https://w3id.org/cdisc/cosmos/dss/MK/BMMTEVE/MKLOC>,
        <https://w3id.org/cdisc/cosmos/dss/MK/BMMTEVE/MKORRES>,
        <https://w3id.org/cdisc/cosmos/dss/MK/BMMTEVE/MKSTRESC>,
        <https://w3id.org/cdisc/cosmos/dss/MK/BMMTEVE/MKSTRESN>,
        <https://w3id.org/cdisc/cosmos/dss/MK/BMMTEVE/MKTEST>,
        <https://w3id.org/cdisc/cosmos/dss/MK/BMMTEVE/MKTESTCD> .

<https://w3id.org/cdisc/cosmos/dss/MK/BMMTEXT> a cosmos_sdtm:SDTMGroup ;
    dcterms:identifier "BMMTEXT" ;
    rdf:_1 <https://w3id.org/cdisc/cosmos/dss/MK/BMMTEXT/MKTESTCD> ;
    rdf:_2 <https://w3id.org/cdisc/cosmos/dss/MK/BMMTEXT/MKTEST> ;
    rdf:_3 <https://w3id.org/cdisc/cosmos/dss/MK/BMMTEXT/MKORRES> ;
    rdf:_4 <https://w3id.org/cdisc/cosmos/dss/MK/BMMTEXT/MKSTRESC> ;
    rdf:_5 <https://w3id.org/cdisc/cosmos/dss/MK/BMMTEXT/MKSTRESN> ;
    rdf:_6 <https://w3id.org/cdisc/cosmos/dss/MK/BMMTEXT/MKLOC> ;
    rdf:_7 <https://w3id.org/cdisc/cosmos/dss/MK/BMMTEXT/MKLAT> ;
    rdf:_8 <https://w3id.org/cdisc/cosmos/dss/MK/BMMTEXT/MKDTC> ;
    cosmos_sdtm:biomedicalConceptId NCIT:C139220 ;
    cosmos_sdtm:domain "MK" ;
    cosmos_sdtm:packageDate "2026-05-26"^^xsd:date ;
    cosmos_sdtm:packageType <https://www.cdisc.org/cosmos/sdtm_v1.0/PackageTypeEnum#sdtm> ;
    cosmos_sdtm:sdtmigStartVersion "3-3" ;
    cosmos_sdtm:shortName "Brooke mMRC MMT Score, Extension" ;
    cosmos_sdtm:source "MK.MKTESTCD" ;
    cosmos_sdtm:variables <https://w3id.org/cdisc/cosmos/dss/MK/BMMTEXT/MKDTC>,
        <https://w3id.org/cdisc/cosmos/dss/MK/BMMTEXT/MKLAT>,
        <https://w3id.org/cdisc/cosmos/dss/MK/BMMTEXT/MKLOC>,
        <https://w3id.org/cdisc/cosmos/dss/MK/BMMTEXT/MKORRES>,
        <https://w3id.org/cdisc/cosmos/dss/MK/BMMTEXT/MKSTRESC>,
        <https://w3id.org/cdisc/cosmos/dss/MK/BMMTEXT/MKSTRESN>,
        <https://w3id.org/cdisc/cosmos/dss/MK/BMMTEXT/MKTEST>,
        <https://w3id.org/cdisc/cosmos/dss/MK/BMMTEXT/MKTESTCD> .

<https://w3id.org/cdisc/cosmos/dss/MK/BMMTFLX> a cosmos_sdtm:SDTMGroup ;
    dcterms:identifier "BMMTFLX" ;
    rdf:_1 <https://w3id.org/cdisc/cosmos/dss/MK/BMMTFLX/MKTESTCD> ;
    rdf:_2 <https://w3id.org/cdisc/cosmos/dss/MK/BMMTFLX/MKTEST> ;
    rdf:_3 <https://w3id.org/cdisc/cosmos/dss/MK/BMMTFLX/MKORRES> ;
    rdf:_4 <https://w3id.org/cdisc/cosmos/dss/MK/BMMTFLX/MKSTRESC> ;
    rdf:_5 <https://w3id.org/cdisc/cosmos/dss/MK/BMMTFLX/MKSTRESN> ;
    rdf:_6 <https://w3id.org/cdisc/cosmos/dss/MK/BMMTFLX/MKLOC> ;
    rdf:_7 <https://w3id.org/cdisc/cosmos/dss/MK/BMMTFLX/MKLAT> ;
    rdf:_8 <https://w3id.org/cdisc/cosmos/dss/MK/BMMTFLX/MKDTC> ;
    cosmos_sdtm:biomedicalConceptId NCIT:C139222 ;
    cosmos_sdtm:domain "MK" ;
    cosmos_sdtm:packageDate "2026-05-26"^^xsd:date ;
    cosmos_sdtm:packageType <https://www.cdisc.org/cosmos/sdtm_v1.0/PackageTypeEnum#sdtm> ;
    cosmos_sdtm:sdtmigStartVersion "3-3" ;
    cosmos_sdtm:shortName "Brooke mMRC MMT Score, Flexion" ;
    cosmos_sdtm:source "MK.MKTESTCD" ;
    cosmos_sdtm:variables <https://w3id.org/cdisc/cosmos/dss/MK/BMMTFLX/MKDTC>,
        <https://w3id.org/cdisc/cosmos/dss/MK/BMMTFLX/MKLAT>,
        <https://w3id.org/cdisc/cosmos/dss/MK/BMMTFLX/MKLOC>,
        <https://w3id.org/cdisc/cosmos/dss/MK/BMMTFLX/MKORRES>,
        <https://w3id.org/cdisc/cosmos/dss/MK/BMMTFLX/MKSTRESC>,
        <https://w3id.org/cdisc/cosmos/dss/MK/BMMTFLX/MKSTRESN>,
        <https://w3id.org/cdisc/cosmos/dss/MK/BMMTFLX/MKTEST>,
        <https://w3id.org/cdisc/cosmos/dss/MK/BMMTFLX/MKTESTCD> .

<https://w3id.org/cdisc/cosmos/dss/MK/BMMTINV> a cosmos_sdtm:SDTMGroup ;
    dcterms:identifier "BMMTINV" ;
    rdf:_1 <https://w3id.org/cdisc/cosmos/dss/MK/BMMTINV/MKTESTCD> ;
    rdf:_2 <https://w3id.org/cdisc/cosmos/dss/MK/BMMTINV/MKTEST> ;
    rdf:_3 <https://w3id.org/cdisc/cosmos/dss/MK/BMMTINV/MKORRES> ;
    rdf:_4 <https://w3id.org/cdisc/cosmos/dss/MK/BMMTINV/MKSTRESC> ;
    rdf:_5 <https://w3id.org/cdisc/cosmos/dss/MK/BMMTINV/MKSTRESN> ;
    rdf:_6 <https://w3id.org/cdisc/cosmos/dss/MK/BMMTINV/MKLOC> ;
    rdf:_7 <https://w3id.org/cdisc/cosmos/dss/MK/BMMTINV/MKLAT> ;
    rdf:_8 <https://w3id.org/cdisc/cosmos/dss/MK/BMMTINV/MKDTC> ;
    cosmos_sdtm:biomedicalConceptId NCIT:C139226 ;
    cosmos_sdtm:domain "MK" ;
    cosmos_sdtm:packageDate "2026-05-26"^^xsd:date ;
    cosmos_sdtm:packageType <https://www.cdisc.org/cosmos/sdtm_v1.0/PackageTypeEnum#sdtm> ;
    cosmos_sdtm:sdtmigStartVersion "3-3" ;
    cosmos_sdtm:shortName "Brooke mMRC MMT Score, Inversion" ;
    cosmos_sdtm:source "MK.MKTESTCD" ;
    cosmos_sdtm:variables <https://w3id.org/cdisc/cosmos/dss/MK/BMMTINV/MKDTC>,
        <https://w3id.org/cdisc/cosmos/dss/MK/BMMTINV/MKLAT>,
        <https://w3id.org/cdisc/cosmos/dss/MK/BMMTINV/MKLOC>,
        <https://w3id.org/cdisc/cosmos/dss/MK/BMMTINV/MKORRES>,
        <https://w3id.org/cdisc/cosmos/dss/MK/BMMTINV/MKSTRESC>,
        <https://w3id.org/cdisc/cosmos/dss/MK/BMMTINV/MKSTRESN>,
        <https://w3id.org/cdisc/cosmos/dss/MK/BMMTINV/MKTEST>,
        <https://w3id.org/cdisc/cosmos/dss/MK/BMMTINV/MKTESTCD> .

<https://w3id.org/cdisc/cosmos/dss/MK/BMMTLR> a cosmos_sdtm:SDTMGroup ;
    dcterms:identifier "BMMTLR" ;
    rdf:_1 <https://w3id.org/cdisc/cosmos/dss/MK/BMMTLR/MKTESTCD> ;
    rdf:_2 <https://w3id.org/cdisc/cosmos/dss/MK/BMMTLR/MKTEST> ;
    rdf:_3 <https://w3id.org/cdisc/cosmos/dss/MK/BMMTLR/MKORRES> ;
    rdf:_4 <https://w3id.org/cdisc/cosmos/dss/MK/BMMTLR/MKSTRESC> ;
    rdf:_5 <https://w3id.org/cdisc/cosmos/dss/MK/BMMTLR/MKSTRESN> ;
    rdf:_6 <https://w3id.org/cdisc/cosmos/dss/MK/BMMTLR/MKLOC> ;
    rdf:_7 <https://w3id.org/cdisc/cosmos/dss/MK/BMMTLR/MKLAT> ;
    rdf:_8 <https://w3id.org/cdisc/cosmos/dss/MK/BMMTLR/MKDTC> ;
    cosmos_sdtm:biomedicalConceptId NCIT:C139224 ;
    cosmos_sdtm:domain "MK" ;
    cosmos_sdtm:packageDate "2026-05-26"^^xsd:date ;
    cosmos_sdtm:packageType <https://www.cdisc.org/cosmos/sdtm_v1.0/PackageTypeEnum#sdtm> ;
    cosmos_sdtm:sdtmigStartVersion "3-3" ;
    cosmos_sdtm:shortName "Brooke mMRC MMT Score, Lat. Rotat." ;
    cosmos_sdtm:source "MK.MKTESTCD" ;
    cosmos_sdtm:variables <https://w3id.org/cdisc/cosmos/dss/MK/BMMTLR/MKDTC>,
        <https://w3id.org/cdisc/cosmos/dss/MK/BMMTLR/MKLAT>,
        <https://w3id.org/cdisc/cosmos/dss/MK/BMMTLR/MKLOC>,
        <https://w3id.org/cdisc/cosmos/dss/MK/BMMTLR/MKORRES>,
        <https://w3id.org/cdisc/cosmos/dss/MK/BMMTLR/MKSTRESC>,
        <https://w3id.org/cdisc/cosmos/dss/MK/BMMTLR/MKSTRESN>,
        <https://w3id.org/cdisc/cosmos/dss/MK/BMMTLR/MKTEST>,
        <https://w3id.org/cdisc/cosmos/dss/MK/BMMTLR/MKTESTCD> .

<https://w3id.org/cdisc/cosmos/dss/MK/BMMTPF> a cosmos_sdtm:SDTMGroup ;
    dcterms:identifier "BMMTPF" ;
    rdf:_1 <https://w3id.org/cdisc/cosmos/dss/MK/BMMTPF/MKTESTCD> ;
    rdf:_2 <https://w3id.org/cdisc/cosmos/dss/MK/BMMTPF/MKTEST> ;
    rdf:_3 <https://w3id.org/cdisc/cosmos/dss/MK/BMMTPF/MKORRES> ;
    rdf:_4 <https://w3id.org/cdisc/cosmos/dss/MK/BMMTPF/MKSTRESC> ;
    rdf:_5 <https://w3id.org/cdisc/cosmos/dss/MK/BMMTPF/MKSTRESN> ;
    rdf:_6 <https://w3id.org/cdisc/cosmos/dss/MK/BMMTPF/MKLOC> ;
    rdf:_7 <https://w3id.org/cdisc/cosmos/dss/MK/BMMTPF/MKLAT> ;
    rdf:_8 <https://w3id.org/cdisc/cosmos/dss/MK/BMMTPF/MKDTC> ;
    cosmos_sdtm:biomedicalConceptId NCIT:C139221 ;
    cosmos_sdtm:domain "MK" ;
    cosmos_sdtm:packageDate "2026-05-26"^^xsd:date ;
    cosmos_sdtm:packageType <https://www.cdisc.org/cosmos/sdtm_v1.0/PackageTypeEnum#sdtm> ;
    cosmos_sdtm:sdtmigStartVersion "3-3" ;
    cosmos_sdtm:shortName "Brooke mMRC MMT Score, Plantar Flex" ;
    cosmos_sdtm:source "MK.MKTESTCD" ;
    cosmos_sdtm:variables <https://w3id.org/cdisc/cosmos/dss/MK/BMMTPF/MKDTC>,
        <https://w3id.org/cdisc/cosmos/dss/MK/BMMTPF/MKLAT>,
        <https://w3id.org/cdisc/cosmos/dss/MK/BMMTPF/MKLOC>,
        <https://w3id.org/cdisc/cosmos/dss/MK/BMMTPF/MKORRES>,
        <https://w3id.org/cdisc/cosmos/dss/MK/BMMTPF/MKSTRESC>,
        <https://w3id.org/cdisc/cosmos/dss/MK/BMMTPF/MKSTRESN>,
        <https://w3id.org/cdisc/cosmos/dss/MK/BMMTPF/MKTEST>,
        <https://w3id.org/cdisc/cosmos/dss/MK/BMMTPF/MKTESTCD> .

<https://w3id.org/cdisc/cosmos/dss/MK/BODYFATP> a cosmos_sdtm:SDTMGroup ;
    dcterms:identifier "BODYFATP" ;
    rdf:_1 <https://w3id.org/cdisc/cosmos/dss/MK/BODYFATP/MKTESTCD> ;
    rdf:_2 <https://w3id.org/cdisc/cosmos/dss/MK/BODYFATP/MKTEST> ;
    rdf:_3 <https://w3id.org/cdisc/cosmos/dss/MK/BODYFATP/MKORRES> ;
    rdf:_4 <https://w3id.org/cdisc/cosmos/dss/MK/BODYFATP/MKORRESU> ;
    rdf:_5 <https://w3id.org/cdisc/cosmos/dss/MK/BODYFATP/MKSTRESC> ;
    rdf:_6 <https://w3id.org/cdisc/cosmos/dss/MK/BODYFATP/MKSTRESN> ;
    rdf:_7 <https://w3id.org/cdisc/cosmos/dss/MK/BODYFATP/MKSTRESU> ;
    rdf:_8 <https://w3id.org/cdisc/cosmos/dss/MK/BODYFATP/MKMETHOD> ;
    rdf:_9 <https://w3id.org/cdisc/cosmos/dss/MK/BODYFATP/MKDTC> ;
    cosmos_sdtm:biomedicalConceptId NCIT:C139218 ;
    cosmos_sdtm:domain "MK" ;
    cosmos_sdtm:packageDate "2026-05-26"^^xsd:date ;
    cosmos_sdtm:packageType <https://www.cdisc.org/cosmos/sdtm_v1.0/PackageTypeEnum#sdtm> ;
    cosmos_sdtm:sdtmigStartVersion "3-3" ;
    cosmos_sdtm:shortName "Total Body Fat/Total Body Mass" ;
    cosmos_sdtm:source "MK.MKTESTCD" ;
    cosmos_sdtm:variables <https://w3id.org/cdisc/cosmos/dss/MK/BODYFATP/MKDTC>,
        <https://w3id.org/cdisc/cosmos/dss/MK/BODYFATP/MKMETHOD>,
        <https://w3id.org/cdisc/cosmos/dss/MK/BODYFATP/MKORRES>,
        <https://w3id.org/cdisc/cosmos/dss/MK/BODYFATP/MKORRESU>,
        <https://w3id.org/cdisc/cosmos/dss/MK/BODYFATP/MKSTRESC>,
        <https://w3id.org/cdisc/cosmos/dss/MK/BODYFATP/MKSTRESN>,
        <https://w3id.org/cdisc/cosmos/dss/MK/BODYFATP/MKSTRESU>,
        <https://w3id.org/cdisc/cosmos/dss/MK/BODYFATP/MKTEST>,
        <https://w3id.org/cdisc/cosmos/dss/MK/BODYFATP/MKTESTCD> .

<https://w3id.org/cdisc/cosmos/dss/MK/ENDURM> a cosmos_sdtm:SDTMGroup ;
    dcterms:identifier "ENDURM" ;
    rdf:_1 <https://w3id.org/cdisc/cosmos/dss/MK/ENDURM/MKTESTCD> ;
    rdf:_10 <https://w3id.org/cdisc/cosmos/dss/MK/ENDURM/MKMETHOD> ;
    rdf:_11 <https://w3id.org/cdisc/cosmos/dss/MK/ENDURM/MKDTC> ;
    rdf:_2 <https://w3id.org/cdisc/cosmos/dss/MK/ENDURM/MKTEST> ;
    rdf:_3 <https://w3id.org/cdisc/cosmos/dss/MK/ENDURM/MKORRES> ;
    rdf:_4 <https://w3id.org/cdisc/cosmos/dss/MK/ENDURM/MKORRESU> ;
    rdf:_5 <https://w3id.org/cdisc/cosmos/dss/MK/ENDURM/MKSTRESC> ;
    rdf:_6 <https://w3id.org/cdisc/cosmos/dss/MK/ENDURM/MKSTRESN> ;
    rdf:_7 <https://w3id.org/cdisc/cosmos/dss/MK/ENDURM/MKSTRESU> ;
    rdf:_8 <https://w3id.org/cdisc/cosmos/dss/MK/ENDURM/MKLOC> ;
    rdf:_9 <https://w3id.org/cdisc/cosmos/dss/MK/ENDURM/MKLAT> ;
    cosmos_sdtm:biomedicalConceptId NCIT:C181501 ;
    cosmos_sdtm:domain "MK" ;
    cosmos_sdtm:packageDate "2026-05-26"^^xsd:date ;
    cosmos_sdtm:packageType <https://www.cdisc.org/cosmos/sdtm_v1.0/PackageTypeEnum#sdtm> ;
    cosmos_sdtm:sdtmigStartVersion "3-3" ;
    cosmos_sdtm:shortName "Muscle Endurance" ;
    cosmos_sdtm:source "MK.MKTESTCD" ;
    cosmos_sdtm:variables <https://w3id.org/cdisc/cosmos/dss/MK/ENDURM/MKDTC>,
        <https://w3id.org/cdisc/cosmos/dss/MK/ENDURM/MKLAT>,
        <https://w3id.org/cdisc/cosmos/dss/MK/ENDURM/MKLOC>,
        <https://w3id.org/cdisc/cosmos/dss/MK/ENDURM/MKMETHOD>,
        <https://w3id.org/cdisc/cosmos/dss/MK/ENDURM/MKORRES>,
        <https://w3id.org/cdisc/cosmos/dss/MK/ENDURM/MKORRESU>,
        <https://w3id.org/cdisc/cosmos/dss/MK/ENDURM/MKSTRESC>,
        <https://w3id.org/cdisc/cosmos/dss/MK/ENDURM/MKSTRESN>,
        <https://w3id.org/cdisc/cosmos/dss/MK/ENDURM/MKSTRESU>,
        <https://w3id.org/cdisc/cosmos/dss/MK/ENDURM/MKTEST>,
        <https://w3id.org/cdisc/cosmos/dss/MK/ENDURM/MKTESTCD> .

<https://w3id.org/cdisc/cosmos/dss/MK/FATMASS> a cosmos_sdtm:SDTMGroup ;
    dcterms:identifier "FATMASS" ;
    rdf:_1 <https://w3id.org/cdisc/cosmos/dss/MK/FATMASS/MKTESTCD> ;
    rdf:_10 <https://w3id.org/cdisc/cosmos/dss/MK/FATMASS/MKMETHOD> ;
    rdf:_11 <https://w3id.org/cdisc/cosmos/dss/MK/FATMASS/MKDTC> ;
    rdf:_2 <https://w3id.org/cdisc/cosmos/dss/MK/FATMASS/MKTEST> ;
    rdf:_3 <https://w3id.org/cdisc/cosmos/dss/MK/FATMASS/MKORRES> ;
    rdf:_4 <https://w3id.org/cdisc/cosmos/dss/MK/FATMASS/MKORRESU> ;
    rdf:_5 <https://w3id.org/cdisc/cosmos/dss/MK/FATMASS/MKSTRESC> ;
    rdf:_6 <https://w3id.org/cdisc/cosmos/dss/MK/FATMASS/MKSTRESN> ;
    rdf:_7 <https://w3id.org/cdisc/cosmos/dss/MK/FATMASS/MKSTRESU> ;
    rdf:_8 <https://w3id.org/cdisc/cosmos/dss/MK/FATMASS/MKLOC> ;
    rdf:_9 <https://w3id.org/cdisc/cosmos/dss/MK/FATMASS/MKLAT> ;
    cosmos_sdtm:biomedicalConceptId NCIT:C158256 ;
    cosmos_sdtm:domain "MK" ;
    cosmos_sdtm:packageDate "2026-05-26"^^xsd:date ;
    cosmos_sdtm:packageType <https://www.cdisc.org/cosmos/sdtm_v1.0/PackageTypeEnum#sdtm> ;
    cosmos_sdtm:sdtmigStartVersion "3-3" ;
    cosmos_sdtm:shortName "Fat Mass" ;
    cosmos_sdtm:source "MK.MKTESTCD" ;
    cosmos_sdtm:variables <https://w3id.org/cdisc/cosmos/dss/MK/FATMASS/MKDTC>,
        <https://w3id.org/cdisc/cosmos/dss/MK/FATMASS/MKLAT>,
        <https://w3id.org/cdisc/cosmos/dss/MK/FATMASS/MKLOC>,
        <https://w3id.org/cdisc/cosmos/dss/MK/FATMASS/MKMETHOD>,
        <https://w3id.org/cdisc/cosmos/dss/MK/FATMASS/MKORRES>,
        <https://w3id.org/cdisc/cosmos/dss/MK/FATMASS/MKORRESU>,
        <https://w3id.org/cdisc/cosmos/dss/MK/FATMASS/MKSTRESC>,
        <https://w3id.org/cdisc/cosmos/dss/MK/FATMASS/MKSTRESN>,
        <https://w3id.org/cdisc/cosmos/dss/MK/FATMASS/MKSTRESU>,
        <https://w3id.org/cdisc/cosmos/dss/MK/FATMASS/MKTEST>,
        <https://w3id.org/cdisc/cosmos/dss/MK/FATMASS/MKTESTCD> .

<https://w3id.org/cdisc/cosmos/dss/MK/FOCLOIND> a cosmos_sdtm:SDTMGroup ;
    dcterms:identifier "FOCLOIND" ;
    rdf:_1 <https://w3id.org/cdisc/cosmos/dss/MK/FOCLOIND/MKTESTCD> ;
    rdf:_2 <https://w3id.org/cdisc/cosmos/dss/MK/FOCLOIND/MKTEST> ;
    rdf:_3 <https://w3id.org/cdisc/cosmos/dss/MK/FOCLOIND/MKORRES> ;
    rdf:_4 <https://w3id.org/cdisc/cosmos/dss/MK/FOCLOIND/MKSTRESC> ;
    rdf:_5 <https://w3id.org/cdisc/cosmos/dss/MK/FOCLOIND/MKLOC> ;
    rdf:_6 <https://w3id.org/cdisc/cosmos/dss/MK/FOCLOIND/MKDTC> ;
    cosmos_sdtm:biomedicalConceptId NCIT:C154909 ;
    cosmos_sdtm:domain "MK" ;
    cosmos_sdtm:packageDate "2026-05-26"^^xsd:date ;
    cosmos_sdtm:packageType <https://www.cdisc.org/cosmos/sdtm_v1.0/PackageTypeEnum#sdtm> ;
    cosmos_sdtm:sdtmigStartVersion "3-3" ;
    cosmos_sdtm:shortName "Fontanelle Closure Indicator" ;
    cosmos_sdtm:source "MK.MKTESTCD" ;
    cosmos_sdtm:variables <https://w3id.org/cdisc/cosmos/dss/MK/FOCLOIND/MKDTC>,
        <https://w3id.org/cdisc/cosmos/dss/MK/FOCLOIND/MKLOC>,
        <https://w3id.org/cdisc/cosmos/dss/MK/FOCLOIND/MKORRES>,
        <https://w3id.org/cdisc/cosmos/dss/MK/FOCLOIND/MKSTRESC>,
        <https://w3id.org/cdisc/cosmos/dss/MK/FOCLOIND/MKTEST>,
        <https://w3id.org/cdisc/cosmos/dss/MK/FOCLOIND/MKTESTCD> .

<https://w3id.org/cdisc/cosmos/dss/MK/GPBAEST> a cosmos_sdtm:SDTMGroup ;
    dcterms:identifier "GPBAEST" ;
    rdf:_1 <https://w3id.org/cdisc/cosmos/dss/MK/GPBAEST/MKTESTCD> ;
    rdf:_10 <https://w3id.org/cdisc/cosmos/dss/MK/GPBAEST/MKMETHOD> ;
    rdf:_11 <https://w3id.org/cdisc/cosmos/dss/MK/GPBAEST/MKDTC> ;
    rdf:_2 <https://w3id.org/cdisc/cosmos/dss/MK/GPBAEST/MKTEST> ;
    rdf:_3 <https://w3id.org/cdisc/cosmos/dss/MK/GPBAEST/MKORRES> ;
    rdf:_4 <https://w3id.org/cdisc/cosmos/dss/MK/GPBAEST/MKORRESU> ;
    rdf:_5 <https://w3id.org/cdisc/cosmos/dss/MK/GPBAEST/MKSTRESC> ;
    rdf:_6 <https://w3id.org/cdisc/cosmos/dss/MK/GPBAEST/MKSTRESN> ;
    rdf:_7 <https://w3id.org/cdisc/cosmos/dss/MK/GPBAEST/MKSTRESU> ;
    rdf:_8 <https://w3id.org/cdisc/cosmos/dss/MK/GPBAEST/MKLOC> ;
    rdf:_9 <https://w3id.org/cdisc/cosmos/dss/MK/GPBAEST/MKLAT> ;
    cosmos_sdtm:biomedicalConceptId NCIT:C181502 ;
    cosmos_sdtm:domain "MK" ;
    cosmos_sdtm:packageDate "2026-05-26"^^xsd:date ;
    cosmos_sdtm:packageType <https://www.cdisc.org/cosmos/sdtm_v1.0/PackageTypeEnum#sdtm> ;
    cosmos_sdtm:sdtmigStartVersion "3-3" ;
    cosmos_sdtm:shortName "Greulich and Pyle Bone Age Estimation" ;
    cosmos_sdtm:source "MK.MKTESTCD" ;
    cosmos_sdtm:variables <https://w3id.org/cdisc/cosmos/dss/MK/GPBAEST/MKDTC>,
        <https://w3id.org/cdisc/cosmos/dss/MK/GPBAEST/MKLAT>,
        <https://w3id.org/cdisc/cosmos/dss/MK/GPBAEST/MKLOC>,
        <https://w3id.org/cdisc/cosmos/dss/MK/GPBAEST/MKMETHOD>,
        <https://w3id.org/cdisc/cosmos/dss/MK/GPBAEST/MKORRES>,
        <https://w3id.org/cdisc/cosmos/dss/MK/GPBAEST/MKORRESU>,
        <https://w3id.org/cdisc/cosmos/dss/MK/GPBAEST/MKSTRESC>,
        <https://w3id.org/cdisc/cosmos/dss/MK/GPBAEST/MKSTRESN>,
        <https://w3id.org/cdisc/cosmos/dss/MK/GPBAEST/MKSTRESU>,
        <https://w3id.org/cdisc/cosmos/dss/MK/GPBAEST/MKTEST>,
        <https://w3id.org/cdisc/cosmos/dss/MK/GPBAEST/MKTESTCD> .

<https://w3id.org/cdisc/cosmos/dss/MK/GRIPSTR> a cosmos_sdtm:SDTMGroup ;
    dcterms:identifier "GRIPSTR" ;
    rdf:_1 <https://w3id.org/cdisc/cosmos/dss/MK/GRIPSTR/MKTESTCD> ;
    rdf:_10 <https://w3id.org/cdisc/cosmos/dss/MK/GRIPSTR/MKMETHOD> ;
    rdf:_11 <https://w3id.org/cdisc/cosmos/dss/MK/GRIPSTR/MKDTC> ;
    rdf:_2 <https://w3id.org/cdisc/cosmos/dss/MK/GRIPSTR/MKTEST> ;
    rdf:_3 <https://w3id.org/cdisc/cosmos/dss/MK/GRIPSTR/MKORRES> ;
    rdf:_4 <https://w3id.org/cdisc/cosmos/dss/MK/GRIPSTR/MKORRESU> ;
    rdf:_5 <https://w3id.org/cdisc/cosmos/dss/MK/GRIPSTR/MKSTRESC> ;
    rdf:_6 <https://w3id.org/cdisc/cosmos/dss/MK/GRIPSTR/MKSTRESN> ;
    rdf:_7 <https://w3id.org/cdisc/cosmos/dss/MK/GRIPSTR/MKSTRESU> ;
    rdf:_8 <https://w3id.org/cdisc/cosmos/dss/MK/GRIPSTR/MKLOC> ;
    rdf:_9 <https://w3id.org/cdisc/cosmos/dss/MK/GRIPSTR/MKLAT> ;
    cosmos_sdtm:biomedicalConceptId NCIT:C139210 ;
    cosmos_sdtm:domain "MK" ;
    cosmos_sdtm:packageDate "2026-05-26"^^xsd:date ;
    cosmos_sdtm:packageType <https://www.cdisc.org/cosmos/sdtm_v1.0/PackageTypeEnum#sdtm> ;
    cosmos_sdtm:sdtmigStartVersion "3-3" ;
    cosmos_sdtm:shortName "Grip Strength" ;
    cosmos_sdtm:source "MK.MKTESTCD" ;
    cosmos_sdtm:variables <https://w3id.org/cdisc/cosmos/dss/MK/GRIPSTR/MKDTC>,
        <https://w3id.org/cdisc/cosmos/dss/MK/GRIPSTR/MKLAT>,
        <https://w3id.org/cdisc/cosmos/dss/MK/GRIPSTR/MKLOC>,
        <https://w3id.org/cdisc/cosmos/dss/MK/GRIPSTR/MKMETHOD>,
        <https://w3id.org/cdisc/cosmos/dss/MK/GRIPSTR/MKORRES>,
        <https://w3id.org/cdisc/cosmos/dss/MK/GRIPSTR/MKORRESU>,
        <https://w3id.org/cdisc/cosmos/dss/MK/GRIPSTR/MKSTRESC>,
        <https://w3id.org/cdisc/cosmos/dss/MK/GRIPSTR/MKSTRESN>,
        <https://w3id.org/cdisc/cosmos/dss/MK/GRIPSTR/MKSTRESU>,
        <https://w3id.org/cdisc/cosmos/dss/MK/GRIPSTR/MKTEST>,
        <https://w3id.org/cdisc/cosmos/dss/MK/GRIPSTR/MKTESTCD> .

<https://w3id.org/cdisc/cosmos/dss/MK/ISOMSABD> a cosmos_sdtm:SDTMGroup ;
    dcterms:identifier "ISOMSABD" ;
    rdf:_1 <https://w3id.org/cdisc/cosmos/dss/MK/ISOMSABD/MKTESTCD> ;
    rdf:_10 <https://w3id.org/cdisc/cosmos/dss/MK/ISOMSABD/MKMETHOD> ;
    rdf:_11 <https://w3id.org/cdisc/cosmos/dss/MK/ISOMSABD/MKDTC> ;
    rdf:_2 <https://w3id.org/cdisc/cosmos/dss/MK/ISOMSABD/MKTEST> ;
    rdf:_3 <https://w3id.org/cdisc/cosmos/dss/MK/ISOMSABD/MKORRES> ;
    rdf:_4 <https://w3id.org/cdisc/cosmos/dss/MK/ISOMSABD/MKORRESU> ;
    rdf:_5 <https://w3id.org/cdisc/cosmos/dss/MK/ISOMSABD/MKSTRESC> ;
    rdf:_6 <https://w3id.org/cdisc/cosmos/dss/MK/ISOMSABD/MKSTRESN> ;
    rdf:_7 <https://w3id.org/cdisc/cosmos/dss/MK/ISOMSABD/MKSTRESU> ;
    rdf:_8 <https://w3id.org/cdisc/cosmos/dss/MK/ISOMSABD/MKLOC> ;
    rdf:_9 <https://w3id.org/cdisc/cosmos/dss/MK/ISOMSABD/MKLAT> ;
    cosmos_sdtm:biomedicalConceptId NCIT:C181496 ;
    cosmos_sdtm:domain "MK" ;
    cosmos_sdtm:packageDate "2026-05-26"^^xsd:date ;
    cosmos_sdtm:packageType <https://www.cdisc.org/cosmos/sdtm_v1.0/PackageTypeEnum#sdtm> ;
    cosmos_sdtm:sdtmigStartVersion "3-3" ;
    cosmos_sdtm:shortName "Isometric Muscle Strength, Abduction" ;
    cosmos_sdtm:source "MK.MKTESTCD" ;
    cosmos_sdtm:variables <https://w3id.org/cdisc/cosmos/dss/MK/ISOMSABD/MKDTC>,
        <https://w3id.org/cdisc/cosmos/dss/MK/ISOMSABD/MKLAT>,
        <https://w3id.org/cdisc/cosmos/dss/MK/ISOMSABD/MKLOC>,
        <https://w3id.org/cdisc/cosmos/dss/MK/ISOMSABD/MKMETHOD>,
        <https://w3id.org/cdisc/cosmos/dss/MK/ISOMSABD/MKORRES>,
        <https://w3id.org/cdisc/cosmos/dss/MK/ISOMSABD/MKORRESU>,
        <https://w3id.org/cdisc/cosmos/dss/MK/ISOMSABD/MKSTRESC>,
        <https://w3id.org/cdisc/cosmos/dss/MK/ISOMSABD/MKSTRESN>,
        <https://w3id.org/cdisc/cosmos/dss/MK/ISOMSABD/MKSTRESU>,
        <https://w3id.org/cdisc/cosmos/dss/MK/ISOMSABD/MKTEST>,
        <https://w3id.org/cdisc/cosmos/dss/MK/ISOMSABD/MKTESTCD> .

<https://w3id.org/cdisc/cosmos/dss/MK/ISOMSADD> a cosmos_sdtm:SDTMGroup ;
    dcterms:identifier "ISOMSADD" ;
    rdf:_1 <https://w3id.org/cdisc/cosmos/dss/MK/ISOMSADD/MKTESTCD> ;
    rdf:_10 <https://w3id.org/cdisc/cosmos/dss/MK/ISOMSADD/MKMETHOD> ;
    rdf:_11 <https://w3id.org/cdisc/cosmos/dss/MK/ISOMSADD/MKDTC> ;
    rdf:_2 <https://w3id.org/cdisc/cosmos/dss/MK/ISOMSADD/MKTEST> ;
    rdf:_3 <https://w3id.org/cdisc/cosmos/dss/MK/ISOMSADD/MKORRES> ;
    rdf:_4 <https://w3id.org/cdisc/cosmos/dss/MK/ISOMSADD/MKORRESU> ;
    rdf:_5 <https://w3id.org/cdisc/cosmos/dss/MK/ISOMSADD/MKSTRESC> ;
    rdf:_6 <https://w3id.org/cdisc/cosmos/dss/MK/ISOMSADD/MKSTRESN> ;
    rdf:_7 <https://w3id.org/cdisc/cosmos/dss/MK/ISOMSADD/MKSTRESU> ;
    rdf:_8 <https://w3id.org/cdisc/cosmos/dss/MK/ISOMSADD/MKLOC> ;
    rdf:_9 <https://w3id.org/cdisc/cosmos/dss/MK/ISOMSADD/MKLAT> ;
    cosmos_sdtm:biomedicalConceptId NCIT:C181500 ;
    cosmos_sdtm:domain "MK" ;
    cosmos_sdtm:packageDate "2026-05-26"^^xsd:date ;
    cosmos_sdtm:packageType <https://www.cdisc.org/cosmos/sdtm_v1.0/PackageTypeEnum#sdtm> ;
    cosmos_sdtm:sdtmigStartVersion "3-3" ;
    cosmos_sdtm:shortName "Isometric Muscle Strength, Adduction" ;
    cosmos_sdtm:source "MK.MKTESTCD" ;
    cosmos_sdtm:variables <https://w3id.org/cdisc/cosmos/dss/MK/ISOMSADD/MKDTC>,
        <https://w3id.org/cdisc/cosmos/dss/MK/ISOMSADD/MKLAT>,
        <https://w3id.org/cdisc/cosmos/dss/MK/ISOMSADD/MKLOC>,
        <https://w3id.org/cdisc/cosmos/dss/MK/ISOMSADD/MKMETHOD>,
        <https://w3id.org/cdisc/cosmos/dss/MK/ISOMSADD/MKORRES>,
        <https://w3id.org/cdisc/cosmos/dss/MK/ISOMSADD/MKORRESU>,
        <https://w3id.org/cdisc/cosmos/dss/MK/ISOMSADD/MKSTRESC>,
        <https://w3id.org/cdisc/cosmos/dss/MK/ISOMSADD/MKSTRESN>,
        <https://w3id.org/cdisc/cosmos/dss/MK/ISOMSADD/MKSTRESU>,
        <https://w3id.org/cdisc/cosmos/dss/MK/ISOMSADD/MKTEST>,
        <https://w3id.org/cdisc/cosmos/dss/MK/ISOMSADD/MKTESTCD> .

<https://w3id.org/cdisc/cosmos/dss/MK/ISOMSDOR> a cosmos_sdtm:SDTMGroup ;
    dcterms:identifier "ISOMSDOR" ;
    rdf:_1 <https://w3id.org/cdisc/cosmos/dss/MK/ISOMSDOR/MKTESTCD> ;
    rdf:_10 <https://w3id.org/cdisc/cosmos/dss/MK/ISOMSDOR/MKMETHOD> ;
    rdf:_11 <https://w3id.org/cdisc/cosmos/dss/MK/ISOMSDOR/MKDTC> ;
    rdf:_2 <https://w3id.org/cdisc/cosmos/dss/MK/ISOMSDOR/MKTEST> ;
    rdf:_3 <https://w3id.org/cdisc/cosmos/dss/MK/ISOMSDOR/MKORRES> ;
    rdf:_4 <https://w3id.org/cdisc/cosmos/dss/MK/ISOMSDOR/MKORRESU> ;
    rdf:_5 <https://w3id.org/cdisc/cosmos/dss/MK/ISOMSDOR/MKSTRESC> ;
    rdf:_6 <https://w3id.org/cdisc/cosmos/dss/MK/ISOMSDOR/MKSTRESN> ;
    rdf:_7 <https://w3id.org/cdisc/cosmos/dss/MK/ISOMSDOR/MKSTRESU> ;
    rdf:_8 <https://w3id.org/cdisc/cosmos/dss/MK/ISOMSDOR/MKLOC> ;
    rdf:_9 <https://w3id.org/cdisc/cosmos/dss/MK/ISOMSDOR/MKLAT> ;
    cosmos_sdtm:biomedicalConceptId NCIT:C181497 ;
    cosmos_sdtm:domain "MK" ;
    cosmos_sdtm:packageDate "2026-05-26"^^xsd:date ;
    cosmos_sdtm:packageType <https://www.cdisc.org/cosmos/sdtm_v1.0/PackageTypeEnum#sdtm> ;
    cosmos_sdtm:sdtmigStartVersion "3-3" ;
    cosmos_sdtm:shortName "Isometric Muscle Strength, Dorsiflexion" ;
    cosmos_sdtm:source "MK.MKTESTCD" ;
    cosmos_sdtm:variables <https://w3id.org/cdisc/cosmos/dss/MK/ISOMSDOR/MKDTC>,
        <https://w3id.org/cdisc/cosmos/dss/MK/ISOMSDOR/MKLAT>,
        <https://w3id.org/cdisc/cosmos/dss/MK/ISOMSDOR/MKLOC>,
        <https://w3id.org/cdisc/cosmos/dss/MK/ISOMSDOR/MKMETHOD>,
        <https://w3id.org/cdisc/cosmos/dss/MK/ISOMSDOR/MKORRES>,
        <https://w3id.org/cdisc/cosmos/dss/MK/ISOMSDOR/MKORRESU>,
        <https://w3id.org/cdisc/cosmos/dss/MK/ISOMSDOR/MKSTRESC>,
        <https://w3id.org/cdisc/cosmos/dss/MK/ISOMSDOR/MKSTRESN>,
        <https://w3id.org/cdisc/cosmos/dss/MK/ISOMSDOR/MKSTRESU>,
        <https://w3id.org/cdisc/cosmos/dss/MK/ISOMSDOR/MKTEST>,
        <https://w3id.org/cdisc/cosmos/dss/MK/ISOMSDOR/MKTESTCD> .

<https://w3id.org/cdisc/cosmos/dss/MK/ISOMSER> a cosmos_sdtm:SDTMGroup ;
    dcterms:identifier "ISOMSER" ;
    rdf:_1 <https://w3id.org/cdisc/cosmos/dss/MK/ISOMSER/MKTESTCD> ;
    rdf:_2 <https://w3id.org/cdisc/cosmos/dss/MK/ISOMSER/MKTEST> ;
    rdf:_3 <https://w3id.org/cdisc/cosmos/dss/MK/ISOMSER/MKORRES> ;
    rdf:_4 <https://w3id.org/cdisc/cosmos/dss/MK/ISOMSER/MKSTRESC> ;
    rdf:_5 <https://w3id.org/cdisc/cosmos/dss/MK/ISOMSER/MKSTRESN> ;
    rdf:_6 <https://w3id.org/cdisc/cosmos/dss/MK/ISOMSER/MKLOC> ;
    rdf:_7 <https://w3id.org/cdisc/cosmos/dss/MK/ISOMSER/MKLAT> ;
    rdf:_8 <https://w3id.org/cdisc/cosmos/dss/MK/ISOMSER/MKMETHOD> ;
    rdf:_9 <https://w3id.org/cdisc/cosmos/dss/MK/ISOMSER/MKDTC> ;
    cosmos_sdtm:biomedicalConceptId NCIT:C181499 ;
    cosmos_sdtm:domain "MK" ;
    cosmos_sdtm:packageDate "2026-05-26"^^xsd:date ;
    cosmos_sdtm:packageType <https://www.cdisc.org/cosmos/sdtm_v1.0/PackageTypeEnum#sdtm> ;
    cosmos_sdtm:sdtmigStartVersion "3-3" ;
    cosmos_sdtm:shortName "Isometric Muscle Strength, Extern Rotat" ;
    cosmos_sdtm:source "MK.MKTESTCD" ;
    cosmos_sdtm:variables <https://w3id.org/cdisc/cosmos/dss/MK/ISOMSER/MKDTC>,
        <https://w3id.org/cdisc/cosmos/dss/MK/ISOMSER/MKLAT>,
        <https://w3id.org/cdisc/cosmos/dss/MK/ISOMSER/MKLOC>,
        <https://w3id.org/cdisc/cosmos/dss/MK/ISOMSER/MKMETHOD>,
        <https://w3id.org/cdisc/cosmos/dss/MK/ISOMSER/MKORRES>,
        <https://w3id.org/cdisc/cosmos/dss/MK/ISOMSER/MKSTRESC>,
        <https://w3id.org/cdisc/cosmos/dss/MK/ISOMSER/MKSTRESN>,
        <https://w3id.org/cdisc/cosmos/dss/MK/ISOMSER/MKTEST>,
        <https://w3id.org/cdisc/cosmos/dss/MK/ISOMSER/MKTESTCD> .

<https://w3id.org/cdisc/cosmos/dss/MK/ISOMSEXT> a cosmos_sdtm:SDTMGroup ;
    dcterms:identifier "ISOMSEXT" ;
    rdf:_1 <https://w3id.org/cdisc/cosmos/dss/MK/ISOMSEXT/MKTESTCD> ;
    rdf:_10 <https://w3id.org/cdisc/cosmos/dss/MK/ISOMSEXT/MKMETHOD> ;
    rdf:_11 <https://w3id.org/cdisc/cosmos/dss/MK/ISOMSEXT/MKDTC> ;
    rdf:_2 <https://w3id.org/cdisc/cosmos/dss/MK/ISOMSEXT/MKTEST> ;
    rdf:_3 <https://w3id.org/cdisc/cosmos/dss/MK/ISOMSEXT/MKORRES> ;
    rdf:_4 <https://w3id.org/cdisc/cosmos/dss/MK/ISOMSEXT/MKORRESU> ;
    rdf:_5 <https://w3id.org/cdisc/cosmos/dss/MK/ISOMSEXT/MKSTRESC> ;
    rdf:_6 <https://w3id.org/cdisc/cosmos/dss/MK/ISOMSEXT/MKSTRESN> ;
    rdf:_7 <https://w3id.org/cdisc/cosmos/dss/MK/ISOMSEXT/MKSTRESU> ;
    rdf:_8 <https://w3id.org/cdisc/cosmos/dss/MK/ISOMSEXT/MKLOC> ;
    rdf:_9 <https://w3id.org/cdisc/cosmos/dss/MK/ISOMSEXT/MKLAT> ;
    cosmos_sdtm:biomedicalConceptId NCIT:C139215 ;
    cosmos_sdtm:domain "MK" ;
    cosmos_sdtm:packageDate "2026-05-26"^^xsd:date ;
    cosmos_sdtm:packageType <https://www.cdisc.org/cosmos/sdtm_v1.0/PackageTypeEnum#sdtm> ;
    cosmos_sdtm:sdtmigStartVersion "3-3" ;
    cosmos_sdtm:shortName "Isometric Muscle Strength, Extension" ;
    cosmos_sdtm:source "MK.MKTESTCD" ;
    cosmos_sdtm:variables <https://w3id.org/cdisc/cosmos/dss/MK/ISOMSEXT/MKDTC>,
        <https://w3id.org/cdisc/cosmos/dss/MK/ISOMSEXT/MKLAT>,
        <https://w3id.org/cdisc/cosmos/dss/MK/ISOMSEXT/MKLOC>,
        <https://w3id.org/cdisc/cosmos/dss/MK/ISOMSEXT/MKMETHOD>,
        <https://w3id.org/cdisc/cosmos/dss/MK/ISOMSEXT/MKORRES>,
        <https://w3id.org/cdisc/cosmos/dss/MK/ISOMSEXT/MKORRESU>,
        <https://w3id.org/cdisc/cosmos/dss/MK/ISOMSEXT/MKSTRESC>,
        <https://w3id.org/cdisc/cosmos/dss/MK/ISOMSEXT/MKSTRESN>,
        <https://w3id.org/cdisc/cosmos/dss/MK/ISOMSEXT/MKSTRESU>,
        <https://w3id.org/cdisc/cosmos/dss/MK/ISOMSEXT/MKTEST>,
        <https://w3id.org/cdisc/cosmos/dss/MK/ISOMSEXT/MKTESTCD> .

<https://w3id.org/cdisc/cosmos/dss/MK/ISOMSFL> a cosmos_sdtm:SDTMGroup ;
    dcterms:identifier "ISOMSFL" ;
    rdf:_1 <https://w3id.org/cdisc/cosmos/dss/MK/ISOMSFL/MKTESTCD> ;
    rdf:_10 <https://w3id.org/cdisc/cosmos/dss/MK/ISOMSFL/MKMETHOD> ;
    rdf:_11 <https://w3id.org/cdisc/cosmos/dss/MK/ISOMSFL/MKDTC> ;
    rdf:_2 <https://w3id.org/cdisc/cosmos/dss/MK/ISOMSFL/MKTEST> ;
    rdf:_3 <https://w3id.org/cdisc/cosmos/dss/MK/ISOMSFL/MKORRES> ;
    rdf:_4 <https://w3id.org/cdisc/cosmos/dss/MK/ISOMSFL/MKORRESU> ;
    rdf:_5 <https://w3id.org/cdisc/cosmos/dss/MK/ISOMSFL/MKSTRESC> ;
    rdf:_6 <https://w3id.org/cdisc/cosmos/dss/MK/ISOMSFL/MKSTRESN> ;
    rdf:_7 <https://w3id.org/cdisc/cosmos/dss/MK/ISOMSFL/MKSTRESU> ;
    rdf:_8 <https://w3id.org/cdisc/cosmos/dss/MK/ISOMSFL/MKLOC> ;
    rdf:_9 <https://w3id.org/cdisc/cosmos/dss/MK/ISOMSFL/MKLAT> ;
    cosmos_sdtm:biomedicalConceptId NCIT:C139216 ;
    cosmos_sdtm:domain "MK" ;
    cosmos_sdtm:packageDate "2026-05-26"^^xsd:date ;
    cosmos_sdtm:packageType <https://www.cdisc.org/cosmos/sdtm_v1.0/PackageTypeEnum#sdtm> ;
    cosmos_sdtm:sdtmigStartVersion "3-3" ;
    cosmos_sdtm:shortName "Isometric Muscle Strength, Flexion" ;
    cosmos_sdtm:source "MK.MKTESTCD" ;
    cosmos_sdtm:variables <https://w3id.org/cdisc/cosmos/dss/MK/ISOMSFL/MKDTC>,
        <https://w3id.org/cdisc/cosmos/dss/MK/ISOMSFL/MKLAT>,
        <https://w3id.org/cdisc/cosmos/dss/MK/ISOMSFL/MKLOC>,
        <https://w3id.org/cdisc/cosmos/dss/MK/ISOMSFL/MKMETHOD>,
        <https://w3id.org/cdisc/cosmos/dss/MK/ISOMSFL/MKORRES>,
        <https://w3id.org/cdisc/cosmos/dss/MK/ISOMSFL/MKORRESU>,
        <https://w3id.org/cdisc/cosmos/dss/MK/ISOMSFL/MKSTRESC>,
        <https://w3id.org/cdisc/cosmos/dss/MK/ISOMSFL/MKSTRESN>,
        <https://w3id.org/cdisc/cosmos/dss/MK/ISOMSFL/MKSTRESU>,
        <https://w3id.org/cdisc/cosmos/dss/MK/ISOMSFL/MKTEST>,
        <https://w3id.org/cdisc/cosmos/dss/MK/ISOMSFL/MKTESTCD> .

<https://w3id.org/cdisc/cosmos/dss/MK/ISOMSIR> a cosmos_sdtm:SDTMGroup ;
    dcterms:identifier "ISOMSIR" ;
    rdf:_1 <https://w3id.org/cdisc/cosmos/dss/MK/ISOMSIR/MKTESTCD> ;
    rdf:_2 <https://w3id.org/cdisc/cosmos/dss/MK/ISOMSIR/MKTEST> ;
    rdf:_3 <https://w3id.org/cdisc/cosmos/dss/MK/ISOMSIR/MKORRES> ;
    rdf:_4 <https://w3id.org/cdisc/cosmos/dss/MK/ISOMSIR/MKSTRESC> ;
    rdf:_5 <https://w3id.org/cdisc/cosmos/dss/MK/ISOMSIR/MKSTRESN> ;
    rdf:_6 <https://w3id.org/cdisc/cosmos/dss/MK/ISOMSIR/MKLOC> ;
    rdf:_7 <https://w3id.org/cdisc/cosmos/dss/MK/ISOMSIR/MKLAT> ;
    rdf:_8 <https://w3id.org/cdisc/cosmos/dss/MK/ISOMSIR/MKMETHOD> ;
    rdf:_9 <https://w3id.org/cdisc/cosmos/dss/MK/ISOMSIR/MKDTC> ;
    cosmos_sdtm:biomedicalConceptId NCIT:C181498 ;
    cosmos_sdtm:domain "MK" ;
    cosmos_sdtm:packageDate "2026-05-26"^^xsd:date ;
    cosmos_sdtm:packageType <https://www.cdisc.org/cosmos/sdtm_v1.0/PackageTypeEnum#sdtm> ;
    cosmos_sdtm:sdtmigStartVersion "3-3" ;
    cosmos_sdtm:shortName "Isometric Muscle Strength, Intern Rotat" ;
    cosmos_sdtm:source "MK.MKTESTCD" ;
    cosmos_sdtm:variables <https://w3id.org/cdisc/cosmos/dss/MK/ISOMSIR/MKDTC>,
        <https://w3id.org/cdisc/cosmos/dss/MK/ISOMSIR/MKLAT>,
        <https://w3id.org/cdisc/cosmos/dss/MK/ISOMSIR/MKLOC>,
        <https://w3id.org/cdisc/cosmos/dss/MK/ISOMSIR/MKMETHOD>,
        <https://w3id.org/cdisc/cosmos/dss/MK/ISOMSIR/MKORRES>,
        <https://w3id.org/cdisc/cosmos/dss/MK/ISOMSIR/MKSTRESC>,
        <https://w3id.org/cdisc/cosmos/dss/MK/ISOMSIR/MKSTRESN>,
        <https://w3id.org/cdisc/cosmos/dss/MK/ISOMSIR/MKTEST>,
        <https://w3id.org/cdisc/cosmos/dss/MK/ISOMSIR/MKTESTCD> .

<https://w3id.org/cdisc/cosmos/dss/MK/LEANMASS> a cosmos_sdtm:SDTMGroup ;
    dcterms:identifier "LEANMASS" ;
    rdf:_1 <https://w3id.org/cdisc/cosmos/dss/MK/LEANMASS/MKTESTCD> ;
    rdf:_10 <https://w3id.org/cdisc/cosmos/dss/MK/LEANMASS/MKMETHOD> ;
    rdf:_11 <https://w3id.org/cdisc/cosmos/dss/MK/LEANMASS/MKDTC> ;
    rdf:_2 <https://w3id.org/cdisc/cosmos/dss/MK/LEANMASS/MKTEST> ;
    rdf:_3 <https://w3id.org/cdisc/cosmos/dss/MK/LEANMASS/MKORRES> ;
    rdf:_4 <https://w3id.org/cdisc/cosmos/dss/MK/LEANMASS/MKORRESU> ;
    rdf:_5 <https://w3id.org/cdisc/cosmos/dss/MK/LEANMASS/MKSTRESC> ;
    rdf:_6 <https://w3id.org/cdisc/cosmos/dss/MK/LEANMASS/MKSTRESN> ;
    rdf:_7 <https://w3id.org/cdisc/cosmos/dss/MK/LEANMASS/MKSTRESU> ;
    rdf:_8 <https://w3id.org/cdisc/cosmos/dss/MK/LEANMASS/MKLOC> ;
    rdf:_9 <https://w3id.org/cdisc/cosmos/dss/MK/LEANMASS/MKLAT> ;
    cosmos_sdtm:biomedicalConceptId NCIT:C158257 ;
    cosmos_sdtm:domain "MK" ;
    cosmos_sdtm:packageDate "2026-05-26"^^xsd:date ;
    cosmos_sdtm:packageType <https://www.cdisc.org/cosmos/sdtm_v1.0/PackageTypeEnum#sdtm> ;
    cosmos_sdtm:sdtmigStartVersion "3-3" ;
    cosmos_sdtm:shortName "Lean Mass" ;
    cosmos_sdtm:source "MK.MKTESTCD" ;
    cosmos_sdtm:variables <https://w3id.org/cdisc/cosmos/dss/MK/LEANMASS/MKDTC>,
        <https://w3id.org/cdisc/cosmos/dss/MK/LEANMASS/MKLAT>,
        <https://w3id.org/cdisc/cosmos/dss/MK/LEANMASS/MKLOC>,
        <https://w3id.org/cdisc/cosmos/dss/MK/LEANMASS/MKMETHOD>,
        <https://w3id.org/cdisc/cosmos/dss/MK/LEANMASS/MKORRES>,
        <https://w3id.org/cdisc/cosmos/dss/MK/LEANMASS/MKORRESU>,
        <https://w3id.org/cdisc/cosmos/dss/MK/LEANMASS/MKSTRESC>,
        <https://w3id.org/cdisc/cosmos/dss/MK/LEANMASS/MKSTRESN>,
        <https://w3id.org/cdisc/cosmos/dss/MK/LEANMASS/MKSTRESU>,
        <https://w3id.org/cdisc/cosmos/dss/MK/LEANMASS/MKTEST>,
        <https://w3id.org/cdisc/cosmos/dss/MK/LEANMASS/MKTESTCD> .

<https://w3id.org/cdisc/cosmos/dss/MK/MKEXAM> a cosmos_sdtm:SDTMGroup ;
    dcterms:identifier "MKEXAM" ;
    rdf:_1 <https://w3id.org/cdisc/cosmos/dss/MK/MKEXAM/MKTESTCD> ;
    rdf:_10 <https://w3id.org/cdisc/cosmos/dss/MK/MKEXAM/MKDTC> ;
    rdf:_2 <https://w3id.org/cdisc/cosmos/dss/MK/MKEXAM/MKTEST> ;
    rdf:_3 <https://w3id.org/cdisc/cosmos/dss/MK/MKEXAM/MKORRES> ;
    rdf:_4 <https://w3id.org/cdisc/cosmos/dss/MK/MKEXAM/MKSTRESC> ;
    rdf:_5 <https://w3id.org/cdisc/cosmos/dss/MK/MKEXAM/MKSTRESN> ;
    rdf:_6 <https://w3id.org/cdisc/cosmos/dss/MK/MKEXAM/MKLOC> ;
    rdf:_7 <https://w3id.org/cdisc/cosmos/dss/MK/MKEXAM/MKLAT> ;
    rdf:_8 <https://w3id.org/cdisc/cosmos/dss/MK/MKEXAM/MKMETHOD> ;
    rdf:_9 <https://w3id.org/cdisc/cosmos/dss/MK/MKEXAM/MKEVAL> ;
    cosmos_sdtm:biomedicalConceptId NCIT:C167264 ;
    cosmos_sdtm:domain "MK" ;
    cosmos_sdtm:packageDate "2026-05-26"^^xsd:date ;
    cosmos_sdtm:packageType <https://www.cdisc.org/cosmos/sdtm_v1.0/PackageTypeEnum#sdtm> ;
    cosmos_sdtm:sdtmigStartVersion "3-3" ;
    cosmos_sdtm:shortName "Musculoskeletal System Examination" ;
    cosmos_sdtm:source "MK.MKTESTCD" ;
    cosmos_sdtm:variables <https://w3id.org/cdisc/cosmos/dss/MK/MKEXAM/MKDTC>,
        <https://w3id.org/cdisc/cosmos/dss/MK/MKEXAM/MKEVAL>,
        <https://w3id.org/cdisc/cosmos/dss/MK/MKEXAM/MKLAT>,
        <https://w3id.org/cdisc/cosmos/dss/MK/MKEXAM/MKLOC>,
        <https://w3id.org/cdisc/cosmos/dss/MK/MKEXAM/MKMETHOD>,
        <https://w3id.org/cdisc/cosmos/dss/MK/MKEXAM/MKORRES>,
        <https://w3id.org/cdisc/cosmos/dss/MK/MKEXAM/MKSTRESC>,
        <https://w3id.org/cdisc/cosmos/dss/MK/MKEXAM/MKSTRESN>,
        <https://w3id.org/cdisc/cosmos/dss/MK/MKEXAM/MKTEST>,
        <https://w3id.org/cdisc/cosmos/dss/MK/MKEXAM/MKTESTCD> .

<https://w3id.org/cdisc/cosmos/dss/MK/MMTABDT> a cosmos_sdtm:SDTMGroup ;
    dcterms:identifier "MMTABDT" ;
    rdf:_1 <https://w3id.org/cdisc/cosmos/dss/MK/MMTABDT/MKTESTCD> ;
    rdf:_2 <https://w3id.org/cdisc/cosmos/dss/MK/MMTABDT/MKTEST> ;
    rdf:_3 <https://w3id.org/cdisc/cosmos/dss/MK/MMTABDT/MKORRES> ;
    rdf:_4 <https://w3id.org/cdisc/cosmos/dss/MK/MMTABDT/MKSTRESC> ;
    rdf:_5 <https://w3id.org/cdisc/cosmos/dss/MK/MMTABDT/MKSTRESN> ;
    rdf:_6 <https://w3id.org/cdisc/cosmos/dss/MK/MMTABDT/MKLOC> ;
    rdf:_7 <https://w3id.org/cdisc/cosmos/dss/MK/MMTABDT/MKLAT> ;
    rdf:_8 <https://w3id.org/cdisc/cosmos/dss/MK/MMTABDT/MKDTC> ;
    cosmos_sdtm:biomedicalConceptId NCIT:C139231 ;
    cosmos_sdtm:domain "MK" ;
    cosmos_sdtm:packageDate "2026-05-26"^^xsd:date ;
    cosmos_sdtm:packageType <https://www.cdisc.org/cosmos/sdtm_v1.0/PackageTypeEnum#sdtm> ;
    cosmos_sdtm:sdtmigStartVersion "3-3" ;
    cosmos_sdtm:shortName "MRC MMT Score, Abduction" ;
    cosmos_sdtm:source "MK.MKTESTCD" ;
    cosmos_sdtm:variables <https://w3id.org/cdisc/cosmos/dss/MK/MMTABDT/MKDTC>,
        <https://w3id.org/cdisc/cosmos/dss/MK/MMTABDT/MKLAT>,
        <https://w3id.org/cdisc/cosmos/dss/MK/MMTABDT/MKLOC>,
        <https://w3id.org/cdisc/cosmos/dss/MK/MMTABDT/MKORRES>,
        <https://w3id.org/cdisc/cosmos/dss/MK/MMTABDT/MKSTRESC>,
        <https://w3id.org/cdisc/cosmos/dss/MK/MMTABDT/MKSTRESN>,
        <https://w3id.org/cdisc/cosmos/dss/MK/MMTABDT/MKTEST>,
        <https://w3id.org/cdisc/cosmos/dss/MK/MMTABDT/MKTESTCD> .

<https://w3id.org/cdisc/cosmos/dss/MK/MMTDORS> a cosmos_sdtm:SDTMGroup ;
    dcterms:identifier "MMTDORS" ;
    rdf:_1 <https://w3id.org/cdisc/cosmos/dss/MK/MMTDORS/MKTESTCD> ;
    rdf:_2 <https://w3id.org/cdisc/cosmos/dss/MK/MMTDORS/MKTEST> ;
    rdf:_3 <https://w3id.org/cdisc/cosmos/dss/MK/MMTDORS/MKORRES> ;
    rdf:_4 <https://w3id.org/cdisc/cosmos/dss/MK/MMTDORS/MKSTRESC> ;
    rdf:_5 <https://w3id.org/cdisc/cosmos/dss/MK/MMTDORS/MKSTRESN> ;
    rdf:_6 <https://w3id.org/cdisc/cosmos/dss/MK/MMTDORS/MKLOC> ;
    rdf:_7 <https://w3id.org/cdisc/cosmos/dss/MK/MMTDORS/MKLAT> ;
    rdf:_8 <https://w3id.org/cdisc/cosmos/dss/MK/MMTDORS/MKDTC> ;
    cosmos_sdtm:biomedicalConceptId NCIT:C139233 ;
    cosmos_sdtm:domain "MK" ;
    cosmos_sdtm:packageDate "2026-05-26"^^xsd:date ;
    cosmos_sdtm:packageType <https://www.cdisc.org/cosmos/sdtm_v1.0/PackageTypeEnum#sdtm> ;
    cosmos_sdtm:sdtmigStartVersion "3-3" ;
    cosmos_sdtm:shortName "MRC MMT Score, Dorsiflexion" ;
    cosmos_sdtm:source "MK.MKTESTCD" ;
    cosmos_sdtm:variables <https://w3id.org/cdisc/cosmos/dss/MK/MMTDORS/MKDTC>,
        <https://w3id.org/cdisc/cosmos/dss/MK/MMTDORS/MKLAT>,
        <https://w3id.org/cdisc/cosmos/dss/MK/MMTDORS/MKLOC>,
        <https://w3id.org/cdisc/cosmos/dss/MK/MMTDORS/MKORRES>,
        <https://w3id.org/cdisc/cosmos/dss/MK/MMTDORS/MKSTRESC>,
        <https://w3id.org/cdisc/cosmos/dss/MK/MMTDORS/MKSTRESN>,
        <https://w3id.org/cdisc/cosmos/dss/MK/MMTDORS/MKTEST>,
        <https://w3id.org/cdisc/cosmos/dss/MK/MMTDORS/MKTESTCD> .

<https://w3id.org/cdisc/cosmos/dss/MK/MMTEVE> a cosmos_sdtm:SDTMGroup ;
    dcterms:identifier "MMTEVE" ;
    rdf:_1 <https://w3id.org/cdisc/cosmos/dss/MK/MMTEVE/MKTESTCD> ;
    rdf:_2 <https://w3id.org/cdisc/cosmos/dss/MK/MMTEVE/MKTEST> ;
    rdf:_3 <https://w3id.org/cdisc/cosmos/dss/MK/MMTEVE/MKORRES> ;
    rdf:_4 <https://w3id.org/cdisc/cosmos/dss/MK/MMTEVE/MKSTRESC> ;
    rdf:_5 <https://w3id.org/cdisc/cosmos/dss/MK/MMTEVE/MKSTRESN> ;
    rdf:_6 <https://w3id.org/cdisc/cosmos/dss/MK/MMTEVE/MKLOC> ;
    rdf:_7 <https://w3id.org/cdisc/cosmos/dss/MK/MMTEVE/MKLAT> ;
    rdf:_8 <https://w3id.org/cdisc/cosmos/dss/MK/MMTEVE/MKDTC> ;
    cosmos_sdtm:biomedicalConceptId NCIT:C139235 ;
    cosmos_sdtm:domain "MK" ;
    cosmos_sdtm:packageDate "2026-05-26"^^xsd:date ;
    cosmos_sdtm:packageType <https://www.cdisc.org/cosmos/sdtm_v1.0/PackageTypeEnum#sdtm> ;
    cosmos_sdtm:sdtmigStartVersion "3-3" ;
    cosmos_sdtm:shortName "MRC MMT Score, Eversion" ;
    cosmos_sdtm:source "MK.MKTESTCD" ;
    cosmos_sdtm:variables <https://w3id.org/cdisc/cosmos/dss/MK/MMTEVE/MKDTC>,
        <https://w3id.org/cdisc/cosmos/dss/MK/MMTEVE/MKLAT>,
        <https://w3id.org/cdisc/cosmos/dss/MK/MMTEVE/MKLOC>,
        <https://w3id.org/cdisc/cosmos/dss/MK/MMTEVE/MKORRES>,
        <https://w3id.org/cdisc/cosmos/dss/MK/MMTEVE/MKSTRESC>,
        <https://w3id.org/cdisc/cosmos/dss/MK/MMTEVE/MKSTRESN>,
        <https://w3id.org/cdisc/cosmos/dss/MK/MMTEVE/MKTEST>,
        <https://w3id.org/cdisc/cosmos/dss/MK/MMTEVE/MKTESTCD> .

<https://w3id.org/cdisc/cosmos/dss/MK/MMTEXT> a cosmos_sdtm:SDTMGroup ;
    dcterms:identifier "MMTEXT" ;
    rdf:_1 <https://w3id.org/cdisc/cosmos/dss/MK/MMTEXT/MKTESTCD> ;
    rdf:_2 <https://w3id.org/cdisc/cosmos/dss/MK/MMTEXT/MKTEST> ;
    rdf:_3 <https://w3id.org/cdisc/cosmos/dss/MK/MMTEXT/MKORRES> ;
    rdf:_4 <https://w3id.org/cdisc/cosmos/dss/MK/MMTEXT/MKSTRESC> ;
    rdf:_5 <https://w3id.org/cdisc/cosmos/dss/MK/MMTEXT/MKSTRESN> ;
    rdf:_6 <https://w3id.org/cdisc/cosmos/dss/MK/MMTEXT/MKLOC> ;
    rdf:_7 <https://w3id.org/cdisc/cosmos/dss/MK/MMTEXT/MKLAT> ;
    rdf:_8 <https://w3id.org/cdisc/cosmos/dss/MK/MMTEXT/MKDTC> ;
    cosmos_sdtm:biomedicalConceptId NCIT:C139228 ;
    cosmos_sdtm:domain "MK" ;
    cosmos_sdtm:packageDate "2026-05-26"^^xsd:date ;
    cosmos_sdtm:packageType <https://www.cdisc.org/cosmos/sdtm_v1.0/PackageTypeEnum#sdtm> ;
    cosmos_sdtm:sdtmigStartVersion "3-3" ;
    cosmos_sdtm:shortName "MRC MMT Score, Extension" ;
    cosmos_sdtm:source "MK.MKTESTCD" ;
    cosmos_sdtm:variables <https://w3id.org/cdisc/cosmos/dss/MK/MMTEXT/MKDTC>,
        <https://w3id.org/cdisc/cosmos/dss/MK/MMTEXT/MKLAT>,
        <https://w3id.org/cdisc/cosmos/dss/MK/MMTEXT/MKLOC>,
        <https://w3id.org/cdisc/cosmos/dss/MK/MMTEXT/MKORRES>,
        <https://w3id.org/cdisc/cosmos/dss/MK/MMTEXT/MKSTRESC>,
        <https://w3id.org/cdisc/cosmos/dss/MK/MMTEXT/MKSTRESN>,
        <https://w3id.org/cdisc/cosmos/dss/MK/MMTEXT/MKTEST>,
        <https://w3id.org/cdisc/cosmos/dss/MK/MMTEXT/MKTESTCD> .

<https://w3id.org/cdisc/cosmos/dss/MK/MMTFLX> a cosmos_sdtm:SDTMGroup ;
    dcterms:identifier "MMTFLX" ;
    rdf:_1 <https://w3id.org/cdisc/cosmos/dss/MK/MMTFLX/MKTESTCD> ;
    rdf:_2 <https://w3id.org/cdisc/cosmos/dss/MK/MMTFLX/MKTEST> ;
    rdf:_3 <https://w3id.org/cdisc/cosmos/dss/MK/MMTFLX/MKORRES> ;
    rdf:_4 <https://w3id.org/cdisc/cosmos/dss/MK/MMTFLX/MKSTRESC> ;
    rdf:_5 <https://w3id.org/cdisc/cosmos/dss/MK/MMTFLX/MKSTRESN> ;
    rdf:_6 <https://w3id.org/cdisc/cosmos/dss/MK/MMTFLX/MKLOC> ;
    rdf:_7 <https://w3id.org/cdisc/cosmos/dss/MK/MMTFLX/MKLAT> ;
    rdf:_8 <https://w3id.org/cdisc/cosmos/dss/MK/MMTFLX/MKDTC> ;
    cosmos_sdtm:biomedicalConceptId NCIT:C139230 ;
    cosmos_sdtm:domain "MK" ;
    cosmos_sdtm:packageDate "2026-05-26"^^xsd:date ;
    cosmos_sdtm:packageType <https://www.cdisc.org/cosmos/sdtm_v1.0/PackageTypeEnum#sdtm> ;
    cosmos_sdtm:sdtmigStartVersion "3-3" ;
    cosmos_sdtm:shortName "MRC MMT Score, Flexion" ;
    cosmos_sdtm:source "MK.MKTESTCD" ;
    cosmos_sdtm:variables <https://w3id.org/cdisc/cosmos/dss/MK/MMTFLX/MKDTC>,
        <https://w3id.org/cdisc/cosmos/dss/MK/MMTFLX/MKLAT>,
        <https://w3id.org/cdisc/cosmos/dss/MK/MMTFLX/MKLOC>,
        <https://w3id.org/cdisc/cosmos/dss/MK/MMTFLX/MKORRES>,
        <https://w3id.org/cdisc/cosmos/dss/MK/MMTFLX/MKSTRESC>,
        <https://w3id.org/cdisc/cosmos/dss/MK/MMTFLX/MKSTRESN>,
        <https://w3id.org/cdisc/cosmos/dss/MK/MMTFLX/MKTEST>,
        <https://w3id.org/cdisc/cosmos/dss/MK/MMTFLX/MKTESTCD> .

<https://w3id.org/cdisc/cosmos/dss/MK/MMTINV> a cosmos_sdtm:SDTMGroup ;
    dcterms:identifier "MMTINV" ;
    rdf:_1 <https://w3id.org/cdisc/cosmos/dss/MK/MMTINV/MKTESTCD> ;
    rdf:_2 <https://w3id.org/cdisc/cosmos/dss/MK/MMTINV/MKTEST> ;
    rdf:_3 <https://w3id.org/cdisc/cosmos/dss/MK/MMTINV/MKORRES> ;
    rdf:_4 <https://w3id.org/cdisc/cosmos/dss/MK/MMTINV/MKSTRESC> ;
    rdf:_5 <https://w3id.org/cdisc/cosmos/dss/MK/MMTINV/MKSTRESN> ;
    rdf:_6 <https://w3id.org/cdisc/cosmos/dss/MK/MMTINV/MKLOC> ;
    rdf:_7 <https://w3id.org/cdisc/cosmos/dss/MK/MMTINV/MKLAT> ;
    rdf:_8 <https://w3id.org/cdisc/cosmos/dss/MK/MMTINV/MKDTC> ;
    cosmos_sdtm:biomedicalConceptId NCIT:C139234 ;
    cosmos_sdtm:domain "MK" ;
    cosmos_sdtm:packageDate "2026-05-26"^^xsd:date ;
    cosmos_sdtm:packageType <https://www.cdisc.org/cosmos/sdtm_v1.0/PackageTypeEnum#sdtm> ;
    cosmos_sdtm:sdtmigStartVersion "3-3" ;
    cosmos_sdtm:shortName "MRC MMT Score, Inversion" ;
    cosmos_sdtm:source "MK.MKTESTCD" ;
    cosmos_sdtm:variables <https://w3id.org/cdisc/cosmos/dss/MK/MMTINV/MKDTC>,
        <https://w3id.org/cdisc/cosmos/dss/MK/MMTINV/MKLAT>,
        <https://w3id.org/cdisc/cosmos/dss/MK/MMTINV/MKLOC>,
        <https://w3id.org/cdisc/cosmos/dss/MK/MMTINV/MKORRES>,
        <https://w3id.org/cdisc/cosmos/dss/MK/MMTINV/MKSTRESC>,
        <https://w3id.org/cdisc/cosmos/dss/MK/MMTINV/MKSTRESN>,
        <https://w3id.org/cdisc/cosmos/dss/MK/MMTINV/MKTEST>,
        <https://w3id.org/cdisc/cosmos/dss/MK/MMTINV/MKTESTCD> .

<https://w3id.org/cdisc/cosmos/dss/MK/MMTLR> a cosmos_sdtm:SDTMGroup ;
    dcterms:identifier "MMTLR" ;
    rdf:_1 <https://w3id.org/cdisc/cosmos/dss/MK/MMTLR/MKTESTCD> ;
    rdf:_2 <https://w3id.org/cdisc/cosmos/dss/MK/MMTLR/MKTEST> ;
    rdf:_3 <https://w3id.org/cdisc/cosmos/dss/MK/MMTLR/MKORRES> ;
    rdf:_4 <https://w3id.org/cdisc/cosmos/dss/MK/MMTLR/MKSTRESC> ;
    rdf:_5 <https://w3id.org/cdisc/cosmos/dss/MK/MMTLR/MKSTRESN> ;
    rdf:_6 <https://w3id.org/cdisc/cosmos/dss/MK/MMTLR/MKLOC> ;
    rdf:_7 <https://w3id.org/cdisc/cosmos/dss/MK/MMTLR/MKLAT> ;
    rdf:_8 <https://w3id.org/cdisc/cosmos/dss/MK/MMTLR/MKDTC> ;
    cosmos_sdtm:biomedicalConceptId NCIT:C139232 ;
    cosmos_sdtm:domain "MK" ;
    cosmos_sdtm:packageDate "2026-05-26"^^xsd:date ;
    cosmos_sdtm:packageType <https://www.cdisc.org/cosmos/sdtm_v1.0/PackageTypeEnum#sdtm> ;
    cosmos_sdtm:sdtmigStartVersion "3-3" ;
    cosmos_sdtm:shortName "MRC MMT Score, Lat. Rotat." ;
    cosmos_sdtm:source "MK.MKTESTCD" ;
    cosmos_sdtm:variables <https://w3id.org/cdisc/cosmos/dss/MK/MMTLR/MKDTC>,
        <https://w3id.org/cdisc/cosmos/dss/MK/MMTLR/MKLAT>,
        <https://w3id.org/cdisc/cosmos/dss/MK/MMTLR/MKLOC>,
        <https://w3id.org/cdisc/cosmos/dss/MK/MMTLR/MKORRES>,
        <https://w3id.org/cdisc/cosmos/dss/MK/MMTLR/MKSTRESC>,
        <https://w3id.org/cdisc/cosmos/dss/MK/MMTLR/MKSTRESN>,
        <https://w3id.org/cdisc/cosmos/dss/MK/MMTLR/MKTEST>,
        <https://w3id.org/cdisc/cosmos/dss/MK/MMTLR/MKTESTCD> .

<https://w3id.org/cdisc/cosmos/dss/MK/MMTPF> a cosmos_sdtm:SDTMGroup ;
    dcterms:identifier "MMTPF" ;
    rdf:_1 <https://w3id.org/cdisc/cosmos/dss/MK/MMTPF/MKTESTCD> ;
    rdf:_2 <https://w3id.org/cdisc/cosmos/dss/MK/MMTPF/MKTEST> ;
    rdf:_3 <https://w3id.org/cdisc/cosmos/dss/MK/MMTPF/MKORRES> ;
    rdf:_4 <https://w3id.org/cdisc/cosmos/dss/MK/MMTPF/MKSTRESC> ;
    rdf:_5 <https://w3id.org/cdisc/cosmos/dss/MK/MMTPF/MKSTRESN> ;
    rdf:_6 <https://w3id.org/cdisc/cosmos/dss/MK/MMTPF/MKLOC> ;
    rdf:_7 <https://w3id.org/cdisc/cosmos/dss/MK/MMTPF/MKLAT> ;
    rdf:_8 <https://w3id.org/cdisc/cosmos/dss/MK/MMTPF/MKDTC> ;
    cosmos_sdtm:biomedicalConceptId NCIT:C139229 ;
    cosmos_sdtm:domain "MK" ;
    cosmos_sdtm:packageDate "2026-05-26"^^xsd:date ;
    cosmos_sdtm:packageType <https://www.cdisc.org/cosmos/sdtm_v1.0/PackageTypeEnum#sdtm> ;
    cosmos_sdtm:sdtmigStartVersion "3-3" ;
    cosmos_sdtm:shortName "MRC MMT Score, Plantar Flex" ;
    cosmos_sdtm:source "MK.MKTESTCD" ;
    cosmos_sdtm:variables <https://w3id.org/cdisc/cosmos/dss/MK/MMTPF/MKDTC>,
        <https://w3id.org/cdisc/cosmos/dss/MK/MMTPF/MKLAT>,
        <https://w3id.org/cdisc/cosmos/dss/MK/MMTPF/MKLOC>,
        <https://w3id.org/cdisc/cosmos/dss/MK/MMTPF/MKORRES>,
        <https://w3id.org/cdisc/cosmos/dss/MK/MMTPF/MKSTRESC>,
        <https://w3id.org/cdisc/cosmos/dss/MK/MMTPF/MKSTRESN>,
        <https://w3id.org/cdisc/cosmos/dss/MK/MMTPF/MKTEST>,
        <https://w3id.org/cdisc/cosmos/dss/MK/MMTPF/MKTESTCD> .

<https://w3id.org/cdisc/cosmos/dss/MK/PINCHSTR> a cosmos_sdtm:SDTMGroup ;
    dcterms:identifier "PINCHSTR" ;
    rdf:_1 <https://w3id.org/cdisc/cosmos/dss/MK/PINCHSTR/MKTESTCD> ;
    rdf:_10 <https://w3id.org/cdisc/cosmos/dss/MK/PINCHSTR/MKMETHOD> ;
    rdf:_11 <https://w3id.org/cdisc/cosmos/dss/MK/PINCHSTR/MKDTC> ;
    rdf:_2 <https://w3id.org/cdisc/cosmos/dss/MK/PINCHSTR/MKTEST> ;
    rdf:_3 <https://w3id.org/cdisc/cosmos/dss/MK/PINCHSTR/MKORRES> ;
    rdf:_4 <https://w3id.org/cdisc/cosmos/dss/MK/PINCHSTR/MKORRESU> ;
    rdf:_5 <https://w3id.org/cdisc/cosmos/dss/MK/PINCHSTR/MKSTRESC> ;
    rdf:_6 <https://w3id.org/cdisc/cosmos/dss/MK/PINCHSTR/MKSTRESN> ;
    rdf:_7 <https://w3id.org/cdisc/cosmos/dss/MK/PINCHSTR/MKSTRESU> ;
    rdf:_8 <https://w3id.org/cdisc/cosmos/dss/MK/PINCHSTR/MKLOC> ;
    rdf:_9 <https://w3id.org/cdisc/cosmos/dss/MK/PINCHSTR/MKLAT> ;
    cosmos_sdtm:biomedicalConceptId NCIT:C139211 ;
    cosmos_sdtm:domain "MK" ;
    cosmos_sdtm:packageDate "2026-05-26"^^xsd:date ;
    cosmos_sdtm:packageType <https://www.cdisc.org/cosmos/sdtm_v1.0/PackageTypeEnum#sdtm> ;
    cosmos_sdtm:sdtmigStartVersion "3-3" ;
    cosmos_sdtm:shortName "Pinch Strength" ;
    cosmos_sdtm:source "MK.MKTESTCD" ;
    cosmos_sdtm:variables <https://w3id.org/cdisc/cosmos/dss/MK/PINCHSTR/MKDTC>,
        <https://w3id.org/cdisc/cosmos/dss/MK/PINCHSTR/MKLAT>,
        <https://w3id.org/cdisc/cosmos/dss/MK/PINCHSTR/MKLOC>,
        <https://w3id.org/cdisc/cosmos/dss/MK/PINCHSTR/MKMETHOD>,
        <https://w3id.org/cdisc/cosmos/dss/MK/PINCHSTR/MKORRES>,
        <https://w3id.org/cdisc/cosmos/dss/MK/PINCHSTR/MKORRESU>,
        <https://w3id.org/cdisc/cosmos/dss/MK/PINCHSTR/MKSTRESC>,
        <https://w3id.org/cdisc/cosmos/dss/MK/PINCHSTR/MKSTRESN>,
        <https://w3id.org/cdisc/cosmos/dss/MK/PINCHSTR/MKSTRESU>,
        <https://w3id.org/cdisc/cosmos/dss/MK/PINCHSTR/MKTEST>,
        <https://w3id.org/cdisc/cosmos/dss/MK/PINCHSTR/MKTESTCD> .

<https://w3id.org/cdisc/cosmos/dss/MK/ROMABDT> a cosmos_sdtm:SDTMGroup ;
    dcterms:identifier "ROMABDT" ;
    rdf:_1 <https://w3id.org/cdisc/cosmos/dss/MK/ROMABDT/MKTESTCD> ;
    rdf:_10 <https://w3id.org/cdisc/cosmos/dss/MK/ROMABDT/MKMETHOD> ;
    rdf:_11 <https://w3id.org/cdisc/cosmos/dss/MK/ROMABDT/MKDTC> ;
    rdf:_2 <https://w3id.org/cdisc/cosmos/dss/MK/ROMABDT/MKTEST> ;
    rdf:_3 <https://w3id.org/cdisc/cosmos/dss/MK/ROMABDT/MKORRES> ;
    rdf:_4 <https://w3id.org/cdisc/cosmos/dss/MK/ROMABDT/MKORRESU> ;
    rdf:_5 <https://w3id.org/cdisc/cosmos/dss/MK/ROMABDT/MKSTRESC> ;
    rdf:_6 <https://w3id.org/cdisc/cosmos/dss/MK/ROMABDT/MKSTRESN> ;
    rdf:_7 <https://w3id.org/cdisc/cosmos/dss/MK/ROMABDT/MKSTRESU> ;
    rdf:_8 <https://w3id.org/cdisc/cosmos/dss/MK/ROMABDT/MKLOC> ;
    rdf:_9 <https://w3id.org/cdisc/cosmos/dss/MK/ROMABDT/MKLAT> ;
    cosmos_sdtm:biomedicalConceptId NCIT:C139212 ;
    cosmos_sdtm:domain "MK" ;
    cosmos_sdtm:packageDate "2026-05-26"^^xsd:date ;
    cosmos_sdtm:packageType <https://www.cdisc.org/cosmos/sdtm_v1.0/PackageTypeEnum#sdtm> ;
    cosmos_sdtm:sdtmigStartVersion "3-3" ;
    cosmos_sdtm:shortName "Range of Motion, Abduction" ;
    cosmos_sdtm:source "MK.MKTESTCD" ;
    cosmos_sdtm:variables <https://w3id.org/cdisc/cosmos/dss/MK/ROMABDT/MKDTC>,
        <https://w3id.org/cdisc/cosmos/dss/MK/ROMABDT/MKLAT>,
        <https://w3id.org/cdisc/cosmos/dss/MK/ROMABDT/MKLOC>,
        <https://w3id.org/cdisc/cosmos/dss/MK/ROMABDT/MKMETHOD>,
        <https://w3id.org/cdisc/cosmos/dss/MK/ROMABDT/MKORRES>,
        <https://w3id.org/cdisc/cosmos/dss/MK/ROMABDT/MKORRESU>,
        <https://w3id.org/cdisc/cosmos/dss/MK/ROMABDT/MKSTRESC>,
        <https://w3id.org/cdisc/cosmos/dss/MK/ROMABDT/MKSTRESN>,
        <https://w3id.org/cdisc/cosmos/dss/MK/ROMABDT/MKSTRESU>,
        <https://w3id.org/cdisc/cosmos/dss/MK/ROMABDT/MKTEST>,
        <https://w3id.org/cdisc/cosmos/dss/MK/ROMABDT/MKTESTCD> .

<https://w3id.org/cdisc/cosmos/dss/MK/ROMDORFL> a cosmos_sdtm:SDTMGroup ;
    dcterms:identifier "ROMDORFL" ;
    rdf:_1 <https://w3id.org/cdisc/cosmos/dss/MK/ROMDORFL/MKTESTCD> ;
    rdf:_10 <https://w3id.org/cdisc/cosmos/dss/MK/ROMDORFL/MKMETHOD> ;
    rdf:_11 <https://w3id.org/cdisc/cosmos/dss/MK/ROMDORFL/MKDTC> ;
    rdf:_2 <https://w3id.org/cdisc/cosmos/dss/MK/ROMDORFL/MKTEST> ;
    rdf:_3 <https://w3id.org/cdisc/cosmos/dss/MK/ROMDORFL/MKORRES> ;
    rdf:_4 <https://w3id.org/cdisc/cosmos/dss/MK/ROMDORFL/MKORRESU> ;
    rdf:_5 <https://w3id.org/cdisc/cosmos/dss/MK/ROMDORFL/MKSTRESC> ;
    rdf:_6 <https://w3id.org/cdisc/cosmos/dss/MK/ROMDORFL/MKSTRESN> ;
    rdf:_7 <https://w3id.org/cdisc/cosmos/dss/MK/ROMDORFL/MKSTRESU> ;
    rdf:_8 <https://w3id.org/cdisc/cosmos/dss/MK/ROMDORFL/MKLOC> ;
    rdf:_9 <https://w3id.org/cdisc/cosmos/dss/MK/ROMDORFL/MKLAT> ;
    cosmos_sdtm:biomedicalConceptId NCIT:C139214 ;
    cosmos_sdtm:domain "MK" ;
    cosmos_sdtm:packageDate "2026-05-26"^^xsd:date ;
    cosmos_sdtm:packageType <https://www.cdisc.org/cosmos/sdtm_v1.0/PackageTypeEnum#sdtm> ;
    cosmos_sdtm:sdtmigStartVersion "3-3" ;
    cosmos_sdtm:shortName "Range of Motion, Dorsiflexion" ;
    cosmos_sdtm:source "MK.MKTESTCD" ;
    cosmos_sdtm:variables <https://w3id.org/cdisc/cosmos/dss/MK/ROMDORFL/MKDTC>,
        <https://w3id.org/cdisc/cosmos/dss/MK/ROMDORFL/MKLAT>,
        <https://w3id.org/cdisc/cosmos/dss/MK/ROMDORFL/MKLOC>,
        <https://w3id.org/cdisc/cosmos/dss/MK/ROMDORFL/MKMETHOD>,
        <https://w3id.org/cdisc/cosmos/dss/MK/ROMDORFL/MKORRES>,
        <https://w3id.org/cdisc/cosmos/dss/MK/ROMDORFL/MKORRESU>,
        <https://w3id.org/cdisc/cosmos/dss/MK/ROMDORFL/MKSTRESC>,
        <https://w3id.org/cdisc/cosmos/dss/MK/ROMDORFL/MKSTRESN>,
        <https://w3id.org/cdisc/cosmos/dss/MK/ROMDORFL/MKSTRESU>,
        <https://w3id.org/cdisc/cosmos/dss/MK/ROMDORFL/MKTEST>,
        <https://w3id.org/cdisc/cosmos/dss/MK/ROMDORFL/MKTESTCD> .

<https://w3id.org/cdisc/cosmos/dss/MK/ROMEXT> a cosmos_sdtm:SDTMGroup ;
    dcterms:identifier "ROMEXT" ;
    rdf:_1 <https://w3id.org/cdisc/cosmos/dss/MK/ROMEXT/MKTESTCD> ;
    rdf:_10 <https://w3id.org/cdisc/cosmos/dss/MK/ROMEXT/MKMETHOD> ;
    rdf:_11 <https://w3id.org/cdisc/cosmos/dss/MK/ROMEXT/MKDTC> ;
    rdf:_2 <https://w3id.org/cdisc/cosmos/dss/MK/ROMEXT/MKTEST> ;
    rdf:_3 <https://w3id.org/cdisc/cosmos/dss/MK/ROMEXT/MKORRES> ;
    rdf:_4 <https://w3id.org/cdisc/cosmos/dss/MK/ROMEXT/MKORRESU> ;
    rdf:_5 <https://w3id.org/cdisc/cosmos/dss/MK/ROMEXT/MKSTRESC> ;
    rdf:_6 <https://w3id.org/cdisc/cosmos/dss/MK/ROMEXT/MKSTRESN> ;
    rdf:_7 <https://w3id.org/cdisc/cosmos/dss/MK/ROMEXT/MKSTRESU> ;
    rdf:_8 <https://w3id.org/cdisc/cosmos/dss/MK/ROMEXT/MKLOC> ;
    rdf:_9 <https://w3id.org/cdisc/cosmos/dss/MK/ROMEXT/MKLAT> ;
    cosmos_sdtm:biomedicalConceptId NCIT:C139213 ;
    cosmos_sdtm:domain "MK" ;
    cosmos_sdtm:packageDate "2026-05-26"^^xsd:date ;
    cosmos_sdtm:packageType <https://www.cdisc.org/cosmos/sdtm_v1.0/PackageTypeEnum#sdtm> ;
    cosmos_sdtm:sdtmigStartVersion "3-3" ;
    cosmos_sdtm:shortName "Range of Motion, Extension" ;
    cosmos_sdtm:source "MK.MKTESTCD" ;
    cosmos_sdtm:variables <https://w3id.org/cdisc/cosmos/dss/MK/ROMEXT/MKDTC>,
        <https://w3id.org/cdisc/cosmos/dss/MK/ROMEXT/MKLAT>,
        <https://w3id.org/cdisc/cosmos/dss/MK/ROMEXT/MKLOC>,
        <https://w3id.org/cdisc/cosmos/dss/MK/ROMEXT/MKMETHOD>,
        <https://w3id.org/cdisc/cosmos/dss/MK/ROMEXT/MKORRES>,
        <https://w3id.org/cdisc/cosmos/dss/MK/ROMEXT/MKORRESU>,
        <https://w3id.org/cdisc/cosmos/dss/MK/ROMEXT/MKSTRESC>,
        <https://w3id.org/cdisc/cosmos/dss/MK/ROMEXT/MKSTRESN>,
        <https://w3id.org/cdisc/cosmos/dss/MK/ROMEXT/MKSTRESU>,
        <https://w3id.org/cdisc/cosmos/dss/MK/ROMEXT/MKTEST>,
        <https://w3id.org/cdisc/cosmos/dss/MK/ROMEXT/MKTESTCD> .

<https://w3id.org/cdisc/cosmos/dss/MK/SGBESCR> a cosmos_sdtm:SDTMGroup ;
    dcterms:identifier "SGBESCR" ;
    rdf:_1 <https://w3id.org/cdisc/cosmos/dss/MK/SGBESCR/MKTESTCD> ;
    rdf:_2 <https://w3id.org/cdisc/cosmos/dss/MK/SGBESCR/MKTEST> ;
    rdf:_3 <https://w3id.org/cdisc/cosmos/dss/MK/SGBESCR/MKORRES> ;
    rdf:_4 <https://w3id.org/cdisc/cosmos/dss/MK/SGBESCR/MKSTRESC> ;
    rdf:_5 <https://w3id.org/cdisc/cosmos/dss/MK/SGBESCR/MKSTRESN> ;
    rdf:_6 <https://w3id.org/cdisc/cosmos/dss/MK/SGBESCR/MKLOC> ;
    rdf:_7 <https://w3id.org/cdisc/cosmos/dss/MK/SGBESCR/MKLAT> ;
    rdf:_8 <https://w3id.org/cdisc/cosmos/dss/MK/SGBESCR/MKMETHOD> ;
    rdf:_9 <https://w3id.org/cdisc/cosmos/dss/MK/SGBESCR/MKDTC> ;
    cosmos_sdtm:biomedicalConceptId NCIT:C128986 ;
    cosmos_sdtm:domain "MK" ;
    cosmos_sdtm:packageDate "2026-05-26"^^xsd:date ;
    cosmos_sdtm:packageType <https://www.cdisc.org/cosmos/sdtm_v1.0/PackageTypeEnum#sdtm> ;
    cosmos_sdtm:sdtmigStartVersion "3-3" ;
    cosmos_sdtm:shortName "Sharp/Genant Bone Erosion Score" ;
    cosmos_sdtm:source "MK.MKTESTCD" ;
    cosmos_sdtm:variables <https://w3id.org/cdisc/cosmos/dss/MK/SGBESCR/MKDTC>,
        <https://w3id.org/cdisc/cosmos/dss/MK/SGBESCR/MKLAT>,
        <https://w3id.org/cdisc/cosmos/dss/MK/SGBESCR/MKLOC>,
        <https://w3id.org/cdisc/cosmos/dss/MK/SGBESCR/MKMETHOD>,
        <https://w3id.org/cdisc/cosmos/dss/MK/SGBESCR/MKORRES>,
        <https://w3id.org/cdisc/cosmos/dss/MK/SGBESCR/MKSTRESC>,
        <https://w3id.org/cdisc/cosmos/dss/MK/SGBESCR/MKSTRESN>,
        <https://w3id.org/cdisc/cosmos/dss/MK/SGBESCR/MKTEST>,
        <https://w3id.org/cdisc/cosmos/dss/MK/SGBESCR/MKTESTCD> .

<https://w3id.org/cdisc/cosmos/dss/MK/SGJSNSCRFJ> a cosmos_sdtm:SDTMGroup ;
    dcterms:identifier "SGJSNSCRFJ" ;
    rdf:_1 <https://w3id.org/cdisc/cosmos/dss/MK/SGJSNSCRFJ/MKTESTCD> ;
    rdf:_10 <https://w3id.org/cdisc/cosmos/dss/MK/SGJSNSCRFJ/MKEVALID> ;
    rdf:_11 <https://w3id.org/cdisc/cosmos/dss/MK/SGJSNSCRFJ/MKDTC> ;
    rdf:_2 <https://w3id.org/cdisc/cosmos/dss/MK/SGJSNSCRFJ/MKTEST> ;
    rdf:_3 <https://w3id.org/cdisc/cosmos/dss/MK/SGJSNSCRFJ/MKORRES> ;
    rdf:_4 <https://w3id.org/cdisc/cosmos/dss/MK/SGJSNSCRFJ/MKSTRESC> ;
    rdf:_5 <https://w3id.org/cdisc/cosmos/dss/MK/SGJSNSCRFJ/MKSTRESN> ;
    rdf:_6 <https://w3id.org/cdisc/cosmos/dss/MK/SGJSNSCRFJ/MKLOC> ;
    rdf:_7 <https://w3id.org/cdisc/cosmos/dss/MK/SGJSNSCRFJ/MKLAT> ;
    rdf:_8 <https://w3id.org/cdisc/cosmos/dss/MK/SGJSNSCRFJ/MKMETHOD> ;
    rdf:_9 <https://w3id.org/cdisc/cosmos/dss/MK/SGJSNSCRFJ/MKEVAL> ;
    cosmos_sdtm:biomedicalConceptId NCIT:C128987 ;
    cosmos_sdtm:domain "MK" ;
    cosmos_sdtm:packageDate "2026-05-26"^^xsd:date ;
    cosmos_sdtm:packageType <https://www.cdisc.org/cosmos/sdtm_v1.0/PackageTypeEnum#sdtm> ;
    cosmos_sdtm:sdtmigStartVersion "3-3" ;
    cosmos_sdtm:shortName "Sharp/Genant JSN Score Foot Joints" ;
    cosmos_sdtm:source "MK.MKTESTCD" ;
    cosmos_sdtm:variables <https://w3id.org/cdisc/cosmos/dss/MK/SGJSNSCRFJ/MKDTC>,
        <https://w3id.org/cdisc/cosmos/dss/MK/SGJSNSCRFJ/MKEVAL>,
        <https://w3id.org/cdisc/cosmos/dss/MK/SGJSNSCRFJ/MKEVALID>,
        <https://w3id.org/cdisc/cosmos/dss/MK/SGJSNSCRFJ/MKLAT>,
        <https://w3id.org/cdisc/cosmos/dss/MK/SGJSNSCRFJ/MKLOC>,
        <https://w3id.org/cdisc/cosmos/dss/MK/SGJSNSCRFJ/MKMETHOD>,
        <https://w3id.org/cdisc/cosmos/dss/MK/SGJSNSCRFJ/MKORRES>,
        <https://w3id.org/cdisc/cosmos/dss/MK/SGJSNSCRFJ/MKSTRESC>,
        <https://w3id.org/cdisc/cosmos/dss/MK/SGJSNSCRFJ/MKSTRESN>,
        <https://w3id.org/cdisc/cosmos/dss/MK/SGJSNSCRFJ/MKTEST>,
        <https://w3id.org/cdisc/cosmos/dss/MK/SGJSNSCRFJ/MKTESTCD> .

<https://w3id.org/cdisc/cosmos/dss/MK/SGJSNSCRHW> a cosmos_sdtm:SDTMGroup ;
    dcterms:identifier "SGJSNSCRHW" ;
    rdf:_1 <https://w3id.org/cdisc/cosmos/dss/MK/SGJSNSCRHW/MKTESTCD> ;
    rdf:_10 <https://w3id.org/cdisc/cosmos/dss/MK/SGJSNSCRHW/MKLOC> ;
    rdf:_2 <https://w3id.org/cdisc/cosmos/dss/MK/SGJSNSCRHW/MKTEST> ;
    rdf:_3 <https://w3id.org/cdisc/cosmos/dss/MK/SGJSNSCRHW/MKORRES> ;
    rdf:_4 <https://w3id.org/cdisc/cosmos/dss/MK/SGJSNSCRHW/MKSTRESC> ;
    rdf:_5 <https://w3id.org/cdisc/cosmos/dss/MK/SGJSNSCRHW/MKSTRESN> ;
    rdf:_6 <https://w3id.org/cdisc/cosmos/dss/MK/SGJSNSCRHW/MKLAT> ;
    rdf:_7 <https://w3id.org/cdisc/cosmos/dss/MK/SGJSNSCRHW/MKMETHOD> ;
    rdf:_8 <https://w3id.org/cdisc/cosmos/dss/MK/SGJSNSCRHW/MKEVAL> ;
    rdf:_9 <https://w3id.org/cdisc/cosmos/dss/MK/SGJSNSCRHW/MKEVALID> ;
    cosmos_sdtm:biomedicalConceptId NCIT:C128987 ;
    cosmos_sdtm:domain "MK" ;
    cosmos_sdtm:packageDate "2026-05-26"^^xsd:date ;
    cosmos_sdtm:packageType <https://www.cdisc.org/cosmos/sdtm_v1.0/PackageTypeEnum#sdtm> ;
    cosmos_sdtm:sdtmigStartVersion "3-3" ;
    cosmos_sdtm:shortName "Sharp/Genant JSN Score Hand/ Wrist" ;
    cosmos_sdtm:source "MK.MKTESTCD" ;
    cosmos_sdtm:variables <https://w3id.org/cdisc/cosmos/dss/MK/SGJSNSCRHW/MKEVAL>,
        <https://w3id.org/cdisc/cosmos/dss/MK/SGJSNSCRHW/MKEVALID>,
        <https://w3id.org/cdisc/cosmos/dss/MK/SGJSNSCRHW/MKLAT>,
        <https://w3id.org/cdisc/cosmos/dss/MK/SGJSNSCRHW/MKLOC>,
        <https://w3id.org/cdisc/cosmos/dss/MK/SGJSNSCRHW/MKMETHOD>,
        <https://w3id.org/cdisc/cosmos/dss/MK/SGJSNSCRHW/MKORRES>,
        <https://w3id.org/cdisc/cosmos/dss/MK/SGJSNSCRHW/MKSTRESC>,
        <https://w3id.org/cdisc/cosmos/dss/MK/SGJSNSCRHW/MKSTRESN>,
        <https://w3id.org/cdisc/cosmos/dss/MK/SGJSNSCRHW/MKTEST>,
        <https://w3id.org/cdisc/cosmos/dss/MK/SGJSNSCRHW/MKTESTCD> .

<https://w3id.org/cdisc/cosmos/dss/MK/SMMASS> a cosmos_sdtm:SDTMGroup ;
    dcterms:identifier "SMMASS" ;
    rdf:_1 <https://w3id.org/cdisc/cosmos/dss/MK/SMMASS/MKTESTCD> ;
    rdf:_10 <https://w3id.org/cdisc/cosmos/dss/MK/SMMASS/MKMETHOD> ;
    rdf:_11 <https://w3id.org/cdisc/cosmos/dss/MK/SMMASS/MKDTC> ;
    rdf:_2 <https://w3id.org/cdisc/cosmos/dss/MK/SMMASS/MKTEST> ;
    rdf:_3 <https://w3id.org/cdisc/cosmos/dss/MK/SMMASS/MKORRES> ;
    rdf:_4 <https://w3id.org/cdisc/cosmos/dss/MK/SMMASS/MKORRESU> ;
    rdf:_5 <https://w3id.org/cdisc/cosmos/dss/MK/SMMASS/MKSTRESC> ;
    rdf:_6 <https://w3id.org/cdisc/cosmos/dss/MK/SMMASS/MKSTRESN> ;
    rdf:_7 <https://w3id.org/cdisc/cosmos/dss/MK/SMMASS/MKSTRESU> ;
    rdf:_8 <https://w3id.org/cdisc/cosmos/dss/MK/SMMASS/MKLOC> ;
    rdf:_9 <https://w3id.org/cdisc/cosmos/dss/MK/SMMASS/MKLAT> ;
    cosmos_sdtm:biomedicalConceptId NCIT:C178017 ;
    cosmos_sdtm:domain "MK" ;
    cosmos_sdtm:packageDate "2026-05-26"^^xsd:date ;
    cosmos_sdtm:packageType <https://www.cdisc.org/cosmos/sdtm_v1.0/PackageTypeEnum#sdtm> ;
    cosmos_sdtm:sdtmigStartVersion "3-3" ;
    cosmos_sdtm:shortName "Skeletal Muscle Mass" ;
    cosmos_sdtm:source "MK.MKTESTCD" ;
    cosmos_sdtm:variables <https://w3id.org/cdisc/cosmos/dss/MK/SMMASS/MKDTC>,
        <https://w3id.org/cdisc/cosmos/dss/MK/SMMASS/MKLAT>,
        <https://w3id.org/cdisc/cosmos/dss/MK/SMMASS/MKLOC>,
        <https://w3id.org/cdisc/cosmos/dss/MK/SMMASS/MKMETHOD>,
        <https://w3id.org/cdisc/cosmos/dss/MK/SMMASS/MKORRES>,
        <https://w3id.org/cdisc/cosmos/dss/MK/SMMASS/MKORRESU>,
        <https://w3id.org/cdisc/cosmos/dss/MK/SMMASS/MKSTRESC>,
        <https://w3id.org/cdisc/cosmos/dss/MK/SMMASS/MKSTRESN>,
        <https://w3id.org/cdisc/cosmos/dss/MK/SMMASS/MKSTRESU>,
        <https://w3id.org/cdisc/cosmos/dss/MK/SMMASS/MKTEST>,
        <https://w3id.org/cdisc/cosmos/dss/MK/SMMASS/MKTESTCD> .

<https://w3id.org/cdisc/cosmos/dss/MK/SVBESCR> a cosmos_sdtm:SDTMGroup ;
    dcterms:identifier "SVBESCR" ;
    rdf:_1 <https://w3id.org/cdisc/cosmos/dss/MK/SVBESCR/MKTESTCD> ;
    rdf:_2 <https://w3id.org/cdisc/cosmos/dss/MK/SVBESCR/MKTEST> ;
    rdf:_3 <https://w3id.org/cdisc/cosmos/dss/MK/SVBESCR/MKORRES> ;
    rdf:_4 <https://w3id.org/cdisc/cosmos/dss/MK/SVBESCR/MKSTRESC> ;
    rdf:_5 <https://w3id.org/cdisc/cosmos/dss/MK/SVBESCR/MKSTRESN> ;
    rdf:_6 <https://w3id.org/cdisc/cosmos/dss/MK/SVBESCR/MKLOC> ;
    rdf:_7 <https://w3id.org/cdisc/cosmos/dss/MK/SVBESCR/MKLAT> ;
    rdf:_8 <https://w3id.org/cdisc/cosmos/dss/MK/SVBESCR/MKMETHOD> ;
    rdf:_9 <https://w3id.org/cdisc/cosmos/dss/MK/SVBESCR/MKDTC> ;
    cosmos_sdtm:biomedicalConceptId NCIT:C128988 ;
    cosmos_sdtm:domain "MK" ;
    cosmos_sdtm:packageDate "2026-05-26"^^xsd:date ;
    cosmos_sdtm:packageType <https://www.cdisc.org/cosmos/sdtm_v1.0/PackageTypeEnum#sdtm> ;
    cosmos_sdtm:sdtmigStartVersion "3-3" ;
    cosmos_sdtm:shortName "Sharp/Van der Heijde Bone Erosion Score" ;
    cosmos_sdtm:source "MK.MKTESTCD" ;
    cosmos_sdtm:variables <https://w3id.org/cdisc/cosmos/dss/MK/SVBESCR/MKDTC>,
        <https://w3id.org/cdisc/cosmos/dss/MK/SVBESCR/MKLAT>,
        <https://w3id.org/cdisc/cosmos/dss/MK/SVBESCR/MKLOC>,
        <https://w3id.org/cdisc/cosmos/dss/MK/SVBESCR/MKMETHOD>,
        <https://w3id.org/cdisc/cosmos/dss/MK/SVBESCR/MKORRES>,
        <https://w3id.org/cdisc/cosmos/dss/MK/SVBESCR/MKSTRESC>,
        <https://w3id.org/cdisc/cosmos/dss/MK/SVBESCR/MKSTRESN>,
        <https://w3id.org/cdisc/cosmos/dss/MK/SVBESCR/MKTEST>,
        <https://w3id.org/cdisc/cosmos/dss/MK/SVBESCR/MKTESTCD> .

<https://w3id.org/cdisc/cosmos/dss/MK/SVJSNSCR> a cosmos_sdtm:SDTMGroup ;
    dcterms:identifier "SVJSNSCR" ;
    rdf:_1 <https://w3id.org/cdisc/cosmos/dss/MK/SVJSNSCR/MKTESTCD> ;
    rdf:_2 <https://w3id.org/cdisc/cosmos/dss/MK/SVJSNSCR/MKTEST> ;
    rdf:_3 <https://w3id.org/cdisc/cosmos/dss/MK/SVJSNSCR/MKORRES> ;
    rdf:_4 <https://w3id.org/cdisc/cosmos/dss/MK/SVJSNSCR/MKSTRESC> ;
    rdf:_5 <https://w3id.org/cdisc/cosmos/dss/MK/SVJSNSCR/MKSTRESN> ;
    rdf:_6 <https://w3id.org/cdisc/cosmos/dss/MK/SVJSNSCR/MKLOC> ;
    rdf:_7 <https://w3id.org/cdisc/cosmos/dss/MK/SVJSNSCR/MKLAT> ;
    rdf:_8 <https://w3id.org/cdisc/cosmos/dss/MK/SVJSNSCR/MKMETHOD> ;
    rdf:_9 <https://w3id.org/cdisc/cosmos/dss/MK/SVJSNSCR/MKDTC> ;
    cosmos_sdtm:biomedicalConceptId NCIT:C128989 ;
    cosmos_sdtm:domain "MK" ;
    cosmos_sdtm:packageDate "2026-05-26"^^xsd:date ;
    cosmos_sdtm:packageType <https://www.cdisc.org/cosmos/sdtm_v1.0/PackageTypeEnum#sdtm> ;
    cosmos_sdtm:sdtmigStartVersion "3-3" ;
    cosmos_sdtm:shortName "Sharp/Van der Heijde JSN Score" ;
    cosmos_sdtm:source "MK.MKTESTCD" ;
    cosmos_sdtm:variables <https://w3id.org/cdisc/cosmos/dss/MK/SVJSNSCR/MKDTC>,
        <https://w3id.org/cdisc/cosmos/dss/MK/SVJSNSCR/MKLAT>,
        <https://w3id.org/cdisc/cosmos/dss/MK/SVJSNSCR/MKLOC>,
        <https://w3id.org/cdisc/cosmos/dss/MK/SVJSNSCR/MKMETHOD>,
        <https://w3id.org/cdisc/cosmos/dss/MK/SVJSNSCR/MKORRES>,
        <https://w3id.org/cdisc/cosmos/dss/MK/SVJSNSCR/MKSTRESC>,
        <https://w3id.org/cdisc/cosmos/dss/MK/SVJSNSCR/MKSTRESN>,
        <https://w3id.org/cdisc/cosmos/dss/MK/SVJSNSCR/MKTEST>,
        <https://w3id.org/cdisc/cosmos/dss/MK/SVJSNSCR/MKTESTCD> .

<https://w3id.org/cdisc/cosmos/dss/MK/SWLLIND> a cosmos_sdtm:SDTMGroup ;
    dcterms:identifier "SWLLIND" ;
    rdf:_1 <https://w3id.org/cdisc/cosmos/dss/MK/SWLLIND/MKTESTCD> ;
    rdf:_2 <https://w3id.org/cdisc/cosmos/dss/MK/SWLLIND/MKTEST> ;
    rdf:_3 <https://w3id.org/cdisc/cosmos/dss/MK/SWLLIND/MKORRES> ;
    rdf:_4 <https://w3id.org/cdisc/cosmos/dss/MK/SWLLIND/MKSTRESC> ;
    rdf:_5 <https://w3id.org/cdisc/cosmos/dss/MK/SWLLIND/MKLOC> ;
    rdf:_6 <https://w3id.org/cdisc/cosmos/dss/MK/SWLLIND/MKLAT> ;
    rdf:_7 <https://w3id.org/cdisc/cosmos/dss/MK/SWLLIND/MKDTC> ;
    cosmos_sdtm:biomedicalConceptId NCIT:C127774 ;
    cosmos_sdtm:domain "MK" ;
    cosmos_sdtm:packageDate "2026-05-26"^^xsd:date ;
    cosmos_sdtm:packageType <https://www.cdisc.org/cosmos/sdtm_v1.0/PackageTypeEnum#sdtm> ;
    cosmos_sdtm:sdtmigStartVersion "3-3" ;
    cosmos_sdtm:shortName "Swollen Indicator" ;
    cosmos_sdtm:source "MK.MKTESTCD" ;
    cosmos_sdtm:variables <https://w3id.org/cdisc/cosmos/dss/MK/SWLLIND/MKDTC>,
        <https://w3id.org/cdisc/cosmos/dss/MK/SWLLIND/MKLAT>,
        <https://w3id.org/cdisc/cosmos/dss/MK/SWLLIND/MKLOC>,
        <https://w3id.org/cdisc/cosmos/dss/MK/SWLLIND/MKORRES>,
        <https://w3id.org/cdisc/cosmos/dss/MK/SWLLIND/MKSTRESC>,
        <https://w3id.org/cdisc/cosmos/dss/MK/SWLLIND/MKTEST>,
        <https://w3id.org/cdisc/cosmos/dss/MK/SWLLIND/MKTESTCD> .

<https://w3id.org/cdisc/cosmos/dss/MK/TNDRINDMK> a cosmos_sdtm:SDTMGroup ;
    dcterms:identifier "TNDRINDMK" ;
    rdf:_1 <https://w3id.org/cdisc/cosmos/dss/MK/TNDRINDMK/MKTESTCD> ;
    rdf:_2 <https://w3id.org/cdisc/cosmos/dss/MK/TNDRINDMK/MKTEST> ;
    rdf:_3 <https://w3id.org/cdisc/cosmos/dss/MK/TNDRINDMK/MKORRES> ;
    rdf:_4 <https://w3id.org/cdisc/cosmos/dss/MK/TNDRINDMK/MKSTRESC> ;
    rdf:_5 <https://w3id.org/cdisc/cosmos/dss/MK/TNDRINDMK/MKLOC> ;
    rdf:_6 <https://w3id.org/cdisc/cosmos/dss/MK/TNDRINDMK/MKLAT> ;
    rdf:_7 <https://w3id.org/cdisc/cosmos/dss/MK/TNDRINDMK/MKDTC> ;
    cosmos_sdtm:biomedicalConceptId NCIT:C127775 ;
    cosmos_sdtm:domain "MK" ;
    cosmos_sdtm:packageDate "2026-05-26"^^xsd:date ;
    cosmos_sdtm:packageType <https://www.cdisc.org/cosmos/sdtm_v1.0/PackageTypeEnum#sdtm> ;
    cosmos_sdtm:sdtmigStartVersion "3-3" ;
    cosmos_sdtm:shortName "Tenderness Indicator Musculoskeletal Finding" ;
    cosmos_sdtm:source "MK.MKTESTCD" ;
    cosmos_sdtm:variables <https://w3id.org/cdisc/cosmos/dss/MK/TNDRINDMK/MKDTC>,
        <https://w3id.org/cdisc/cosmos/dss/MK/TNDRINDMK/MKLAT>,
        <https://w3id.org/cdisc/cosmos/dss/MK/TNDRINDMK/MKLOC>,
        <https://w3id.org/cdisc/cosmos/dss/MK/TNDRINDMK/MKORRES>,
        <https://w3id.org/cdisc/cosmos/dss/MK/TNDRINDMK/MKSTRESC>,
        <https://w3id.org/cdisc/cosmos/dss/MK/TNDRINDMK/MKTEST>,
        <https://w3id.org/cdisc/cosmos/dss/MK/TNDRINDMK/MKTESTCD> .

<https://w3id.org/cdisc/cosmos/dss/MK/ALPHANGL/MKDTC/relationship> a cosmos_sdtm:RelationShip ;
    cosmos_sdtm:linkingPhrase <https://www.cdisc.org/cosmos/sdtm_v1.0/LinkingPhraseEnum#is%20the%20date%20of%20occurrence%20for> ;
    cosmos_sdtm:object "MKTESTCD" ;
    cosmos_sdtm:predicateTerm <https://www.cdisc.org/cosmos/sdtm_v1.0/PredicateTermEnum#IS_TIMING_FOR> ;
    cosmos_sdtm:subject "MKDTC" .

<https://w3id.org/cdisc/cosmos/dss/MK/ALPHANGL/MKLAT/relationship> a cosmos_sdtm:RelationShip ;
    cosmos_sdtm:linkingPhrase <https://www.cdisc.org/cosmos/sdtm_v1.0/LinkingPhraseEnum#further%20specifies%20the%20anatomical%20location%20in> ;
    cosmos_sdtm:object "MKLOC" ;
    cosmos_sdtm:predicateTerm <https://www.cdisc.org/cosmos/sdtm_v1.0/PredicateTermEnum#SPECIFIES> ;
    cosmos_sdtm:subject "MKLAT" .

<https://w3id.org/cdisc/cosmos/dss/MK/ALPHANGL/MKLOC/assignedTerm> a cosmos_sdtm:AssignedTerm ;
    cosmos_sdtm:conceptId NCIT:C64193 ;
    cosmos_sdtm:value "HIP" .

<https://w3id.org/cdisc/cosmos/dss/MK/ALPHANGL/MKLOC/relationship> a cosmos_sdtm:RelationShip ;
    cosmos_sdtm:linkingPhrase <https://www.cdisc.org/cosmos/sdtm_v1.0/LinkingPhraseEnum#specifies%20the%20anatomical%20location%20of%20the%20performance%20of%20the%20test%20in> ;
    cosmos_sdtm:object "MKTESTCD" ;
    cosmos_sdtm:predicateTerm <https://www.cdisc.org/cosmos/sdtm_v1.0/PredicateTermEnum#SPECIFIES> ;
    cosmos_sdtm:subject "MKLOC" .

<https://w3id.org/cdisc/cosmos/dss/MK/ALPHANGL/MKMETHOD/relationship> a cosmos_sdtm:RelationShip ;
    cosmos_sdtm:linkingPhrase <https://www.cdisc.org/cosmos/sdtm_v1.0/LinkingPhraseEnum#is%20the%20method%20for%20the%20test%20in> ;
    cosmos_sdtm:object "MKTESTCD" ;
    cosmos_sdtm:predicateTerm <https://www.cdisc.org/cosmos/sdtm_v1.0/PredicateTermEnum#SPECIFIES> ;
    cosmos_sdtm:subject "MKMETHOD" .

<https://w3id.org/cdisc/cosmos/dss/MK/ALPHANGL/MKORRES/relationship> a cosmos_sdtm:RelationShip ;
    cosmos_sdtm:linkingPhrase <https://www.cdisc.org/cosmos/sdtm_v1.0/LinkingPhraseEnum#is%20the%20result%20of%20the%20test%20in> ;
    cosmos_sdtm:object "MKTESTCD" ;
    cosmos_sdtm:predicateTerm <https://www.cdisc.org/cosmos/sdtm_v1.0/PredicateTermEnum#IS_RESULT_OF> ;
    cosmos_sdtm:subject "MKORRES" .

<https://w3id.org/cdisc/cosmos/dss/MK/ALPHANGL/MKORRESU/assignedTerm> a cosmos_sdtm:AssignedTerm ;
    cosmos_sdtm:conceptId NCIT:C68667 ;
    cosmos_sdtm:value "deg" .

<https://w3id.org/cdisc/cosmos/dss/MK/ALPHANGL/MKORRESU/relationship> a cosmos_sdtm:RelationShip ;
    cosmos_sdtm:linkingPhrase <https://www.cdisc.org/cosmos/sdtm_v1.0/LinkingPhraseEnum#is%20the%20unit%20for%20the%20value%20in> ;
    cosmos_sdtm:object "MKORRES" ;
    cosmos_sdtm:predicateTerm <https://www.cdisc.org/cosmos/sdtm_v1.0/PredicateTermEnum#IS_UNIT_FOR> ;
    cosmos_sdtm:subject "MKORRESU" .

<https://w3id.org/cdisc/cosmos/dss/MK/ALPHANGL/MKSTRESC/relationship> a cosmos_sdtm:RelationShip ;
    cosmos_sdtm:linkingPhrase <https://www.cdisc.org/cosmos/sdtm_v1.0/LinkingPhraseEnum#is%20the%20result%20of%20the%20test%20in> ;
    cosmos_sdtm:object "MKTESTCD" ;
    cosmos_sdtm:predicateTerm <https://www.cdisc.org/cosmos/sdtm_v1.0/PredicateTermEnum#IS_RESULT_OF> ;
    cosmos_sdtm:subject "MKSTRESC" .

<https://w3id.org/cdisc/cosmos/dss/MK/ALPHANGL/MKSTRESN/relationship> a cosmos_sdtm:RelationShip ;
    cosmos_sdtm:linkingPhrase <https://www.cdisc.org/cosmos/sdtm_v1.0/LinkingPhraseEnum#is%20the%20result%20of%20the%20test%20in> ;
    cosmos_sdtm:object "MKTESTCD" ;
    cosmos_sdtm:predicateTerm <https://www.cdisc.org/cosmos/sdtm_v1.0/PredicateTermEnum#IS_RESULT_OF> ;
    cosmos_sdtm:subject "MKSTRESN" .

<https://w3id.org/cdisc/cosmos/dss/MK/ALPHANGL/MKSTRESU/assignedTerm> a cosmos_sdtm:AssignedTerm ;
    cosmos_sdtm:conceptId NCIT:C68667 ;
    cosmos_sdtm:value "deg" .

<https://w3id.org/cdisc/cosmos/dss/MK/ALPHANGL/MKSTRESU/relationship> a cosmos_sdtm:RelationShip ;
    cosmos_sdtm:linkingPhrase <https://www.cdisc.org/cosmos/sdtm_v1.0/LinkingPhraseEnum#is%20the%20unit%20for%20the%20value%20in> ;
    cosmos_sdtm:object "MKSTRESN" ;
    cosmos_sdtm:predicateTerm <https://www.cdisc.org/cosmos/sdtm_v1.0/PredicateTermEnum#IS_UNIT_FOR> ;
    cosmos_sdtm:subject "MKSTRESU" .

<https://w3id.org/cdisc/cosmos/dss/MK/ALPHANGL/MKTEST/assignedTerm> a cosmos_sdtm:AssignedTerm ;
    cosmos_sdtm:conceptId NCIT:C191306 ;
    cosmos_sdtm:value "Alpha Angle" .

<https://w3id.org/cdisc/cosmos/dss/MK/ALPHANGL/MKTEST/relationship> a cosmos_sdtm:RelationShip ;
    cosmos_sdtm:linkingPhrase <https://www.cdisc.org/cosmos/sdtm_v1.0/LinkingPhraseEnum#decodes%20the%20value%20in> ;
    cosmos_sdtm:object "MKTESTCD" ;
    cosmos_sdtm:predicateTerm <https://www.cdisc.org/cosmos/sdtm_v1.0/PredicateTermEnum#DECODES> ;
    cosmos_sdtm:subject "MKTEST" .

<https://w3id.org/cdisc/cosmos/dss/MK/ALPHANGL/MKTESTCD/assignedTerm> a cosmos_sdtm:AssignedTerm ;
    cosmos_sdtm:conceptId NCIT:C191306 ;
    cosmos_sdtm:value "ALPHANGL" .

<https://w3id.org/cdisc/cosmos/dss/MK/ALPHANGL/MKTESTCD/relationship> a cosmos_sdtm:RelationShip ;
    cosmos_sdtm:linkingPhrase <https://www.cdisc.org/cosmos/sdtm_v1.0/LinkingPhraseEnum#is%20the%20code%20for%20the%20value%20in> ;
    cosmos_sdtm:object "MKTEST" ;
    cosmos_sdtm:predicateTerm <https://www.cdisc.org/cosmos/sdtm_v1.0/PredicateTermEnum#IS_DECODED_BY> ;
    cosmos_sdtm:subject "MKTESTCD" .

<https://w3id.org/cdisc/cosmos/dss/MK/ASMMASS/MKDTC/relationship> a cosmos_sdtm:RelationShip ;
    cosmos_sdtm:linkingPhrase <https://www.cdisc.org/cosmos/sdtm_v1.0/LinkingPhraseEnum#is%20the%20date%20of%20occurrence%20for> ;
    cosmos_sdtm:object "MKTESTCD" ;
    cosmos_sdtm:predicateTerm <https://www.cdisc.org/cosmos/sdtm_v1.0/PredicateTermEnum#IS_TIMING_FOR> ;
    cosmos_sdtm:subject "MKDTC" .

<https://w3id.org/cdisc/cosmos/dss/MK/ASMMASS/MKLAT/relationship> a cosmos_sdtm:RelationShip ;
    cosmos_sdtm:linkingPhrase <https://www.cdisc.org/cosmos/sdtm_v1.0/LinkingPhraseEnum#further%20specifies%20the%20anatomical%20location%20in> ;
    cosmos_sdtm:object "MKLOC" ;
    cosmos_sdtm:predicateTerm <https://www.cdisc.org/cosmos/sdtm_v1.0/PredicateTermEnum#SPECIFIES> ;
    cosmos_sdtm:subject "MKLAT" .

<https://w3id.org/cdisc/cosmos/dss/MK/ASMMASS/MKLOC/relationship> a cosmos_sdtm:RelationShip ;
    cosmos_sdtm:linkingPhrase <https://www.cdisc.org/cosmos/sdtm_v1.0/LinkingPhraseEnum#specifies%20the%20anatomical%20location%20of%20the%20performance%20of%20the%20test%20in> ;
    cosmos_sdtm:object "MKTESTCD" ;
    cosmos_sdtm:predicateTerm <https://www.cdisc.org/cosmos/sdtm_v1.0/PredicateTermEnum#SPECIFIES> ;
    cosmos_sdtm:subject "MKLOC" .

<https://w3id.org/cdisc/cosmos/dss/MK/ASMMASS/MKMETHOD/relationship> a cosmos_sdtm:RelationShip ;
    cosmos_sdtm:linkingPhrase <https://www.cdisc.org/cosmos/sdtm_v1.0/LinkingPhraseEnum#is%20the%20method%20for%20the%20test%20in> ;
    cosmos_sdtm:object "MKTESTCD" ;
    cosmos_sdtm:predicateTerm <https://www.cdisc.org/cosmos/sdtm_v1.0/PredicateTermEnum#SPECIFIES> ;
    cosmos_sdtm:subject "MKMETHOD" .

<https://w3id.org/cdisc/cosmos/dss/MK/ASMMASS/MKORRES/relationship> a cosmos_sdtm:RelationShip ;
    cosmos_sdtm:linkingPhrase <https://www.cdisc.org/cosmos/sdtm_v1.0/LinkingPhraseEnum#is%20the%20result%20of%20the%20test%20in> ;
    cosmos_sdtm:object "MKTESTCD" ;
    cosmos_sdtm:predicateTerm <https://www.cdisc.org/cosmos/sdtm_v1.0/PredicateTermEnum#IS_RESULT_OF> ;
    cosmos_sdtm:subject "MKORRES" .

<https://w3id.org/cdisc/cosmos/dss/MK/ASMMASS/MKORRESU/relationship> a cosmos_sdtm:RelationShip ;
    cosmos_sdtm:linkingPhrase <https://www.cdisc.org/cosmos/sdtm_v1.0/LinkingPhraseEnum#is%20the%20unit%20for%20the%20value%20in> ;
    cosmos_sdtm:object "MKORRES" ;
    cosmos_sdtm:predicateTerm <https://www.cdisc.org/cosmos/sdtm_v1.0/PredicateTermEnum#IS_UNIT_FOR> ;
    cosmos_sdtm:subject "MKORRESU" .

<https://w3id.org/cdisc/cosmos/dss/MK/ASMMASS/MKSTRESC/relationship> a cosmos_sdtm:RelationShip ;
    cosmos_sdtm:linkingPhrase <https://www.cdisc.org/cosmos/sdtm_v1.0/LinkingPhraseEnum#is%20the%20result%20of%20the%20test%20in> ;
    cosmos_sdtm:object "MKTESTCD" ;
    cosmos_sdtm:predicateTerm <https://www.cdisc.org/cosmos/sdtm_v1.0/PredicateTermEnum#IS_RESULT_OF> ;
    cosmos_sdtm:subject "MKSTRESC" .

<https://w3id.org/cdisc/cosmos/dss/MK/ASMMASS/MKSTRESN/relationship> a cosmos_sdtm:RelationShip ;
    cosmos_sdtm:linkingPhrase <https://www.cdisc.org/cosmos/sdtm_v1.0/LinkingPhraseEnum#is%20the%20result%20of%20the%20test%20in> ;
    cosmos_sdtm:object "MKTESTCD" ;
    cosmos_sdtm:predicateTerm <https://www.cdisc.org/cosmos/sdtm_v1.0/PredicateTermEnum#IS_RESULT_OF> ;
    cosmos_sdtm:subject "MKSTRESN" .

<https://w3id.org/cdisc/cosmos/dss/MK/ASMMASS/MKSTRESU/assignedTerm> a cosmos_sdtm:AssignedTerm ;
    cosmos_sdtm:conceptId NCIT:C28252 ;
    cosmos_sdtm:value "kg" .

<https://w3id.org/cdisc/cosmos/dss/MK/ASMMASS/MKSTRESU/relationship> a cosmos_sdtm:RelationShip ;
    cosmos_sdtm:linkingPhrase <https://www.cdisc.org/cosmos/sdtm_v1.0/LinkingPhraseEnum#is%20the%20unit%20for%20the%20value%20in> ;
    cosmos_sdtm:object "MKSTRESN" ;
    cosmos_sdtm:predicateTerm <https://www.cdisc.org/cosmos/sdtm_v1.0/PredicateTermEnum#IS_UNIT_FOR> ;
    cosmos_sdtm:subject "MKSTRESU" .

<https://w3id.org/cdisc/cosmos/dss/MK/ASMMASS/MKTEST/assignedTerm> a cosmos_sdtm:AssignedTerm ;
    cosmos_sdtm:conceptId NCIT:C178018 ;
    cosmos_sdtm:value "Appendicular Skeletal Muscle Mass" .

<https://w3id.org/cdisc/cosmos/dss/MK/ASMMASS/MKTEST/relationship> a cosmos_sdtm:RelationShip ;
    cosmos_sdtm:linkingPhrase <https://www.cdisc.org/cosmos/sdtm_v1.0/LinkingPhraseEnum#decodes%20the%20value%20in> ;
    cosmos_sdtm:object "MKTESTCD" ;
    cosmos_sdtm:predicateTerm <https://www.cdisc.org/cosmos/sdtm_v1.0/PredicateTermEnum#DECODES> ;
    cosmos_sdtm:subject "MKTEST" .

<https://w3id.org/cdisc/cosmos/dss/MK/ASMMASS/MKTESTCD/assignedTerm> a cosmos_sdtm:AssignedTerm ;
    cosmos_sdtm:conceptId NCIT:C178018 ;
    cosmos_sdtm:value "ASMMASS" .

<https://w3id.org/cdisc/cosmos/dss/MK/ASMMASS/MKTESTCD/relationship> a cosmos_sdtm:RelationShip ;
    cosmos_sdtm:linkingPhrase <https://www.cdisc.org/cosmos/sdtm_v1.0/LinkingPhraseEnum#is%20the%20code%20for%20the%20value%20in> ;
    cosmos_sdtm:object "MKTEST" ;
    cosmos_sdtm:predicateTerm <https://www.cdisc.org/cosmos/sdtm_v1.0/PredicateTermEnum#IS_DECODED_BY> ;
    cosmos_sdtm:subject "MKTESTCD" .

<https://w3id.org/cdisc/cosmos/dss/MK/BETAANGL/MKDTC/relationship> a cosmos_sdtm:RelationShip ;
    cosmos_sdtm:linkingPhrase <https://www.cdisc.org/cosmos/sdtm_v1.0/LinkingPhraseEnum#is%20the%20date%20of%20occurrence%20for> ;
    cosmos_sdtm:object "MKTESTCD" ;
    cosmos_sdtm:predicateTerm <https://www.cdisc.org/cosmos/sdtm_v1.0/PredicateTermEnum#IS_TIMING_FOR> ;
    cosmos_sdtm:subject "MKDTC" .

<https://w3id.org/cdisc/cosmos/dss/MK/BETAANGL/MKLAT/relationship> a cosmos_sdtm:RelationShip ;
    cosmos_sdtm:linkingPhrase <https://www.cdisc.org/cosmos/sdtm_v1.0/LinkingPhraseEnum#further%20specifies%20the%20anatomical%20location%20in> ;
    cosmos_sdtm:object "MKLOC" ;
    cosmos_sdtm:predicateTerm <https://www.cdisc.org/cosmos/sdtm_v1.0/PredicateTermEnum#SPECIFIES> ;
    cosmos_sdtm:subject "MKLAT" .

<https://w3id.org/cdisc/cosmos/dss/MK/BETAANGL/MKLOC/assignedTerm> a cosmos_sdtm:AssignedTerm ;
    cosmos_sdtm:conceptId NCIT:C64193 ;
    cosmos_sdtm:value "HIP" .

<https://w3id.org/cdisc/cosmos/dss/MK/BETAANGL/MKLOC/relationship> a cosmos_sdtm:RelationShip ;
    cosmos_sdtm:linkingPhrase <https://www.cdisc.org/cosmos/sdtm_v1.0/LinkingPhraseEnum#specifies%20the%20anatomical%20location%20of%20the%20performance%20of%20the%20test%20in> ;
    cosmos_sdtm:object "MKTESTCD" ;
    cosmos_sdtm:predicateTerm <https://www.cdisc.org/cosmos/sdtm_v1.0/PredicateTermEnum#SPECIFIES> ;
    cosmos_sdtm:subject "MKLOC" .

<https://w3id.org/cdisc/cosmos/dss/MK/BETAANGL/MKMETHOD/relationship> a cosmos_sdtm:RelationShip ;
    cosmos_sdtm:linkingPhrase <https://www.cdisc.org/cosmos/sdtm_v1.0/LinkingPhraseEnum#is%20the%20method%20for%20the%20test%20in> ;
    cosmos_sdtm:object "MKTESTCD" ;
    cosmos_sdtm:predicateTerm <https://www.cdisc.org/cosmos/sdtm_v1.0/PredicateTermEnum#SPECIFIES> ;
    cosmos_sdtm:subject "MKMETHOD" .

<https://w3id.org/cdisc/cosmos/dss/MK/BETAANGL/MKORRES/relationship> a cosmos_sdtm:RelationShip ;
    cosmos_sdtm:linkingPhrase <https://www.cdisc.org/cosmos/sdtm_v1.0/LinkingPhraseEnum#is%20the%20result%20of%20the%20test%20in> ;
    cosmos_sdtm:object "MKTESTCD" ;
    cosmos_sdtm:predicateTerm <https://www.cdisc.org/cosmos/sdtm_v1.0/PredicateTermEnum#IS_RESULT_OF> ;
    cosmos_sdtm:subject "MKORRES" .

<https://w3id.org/cdisc/cosmos/dss/MK/BETAANGL/MKORRESU/assignedTerm> a cosmos_sdtm:AssignedTerm ;
    cosmos_sdtm:conceptId NCIT:C68667 ;
    cosmos_sdtm:value "deg" .

<https://w3id.org/cdisc/cosmos/dss/MK/BETAANGL/MKORRESU/relationship> a cosmos_sdtm:RelationShip ;
    cosmos_sdtm:linkingPhrase <https://www.cdisc.org/cosmos/sdtm_v1.0/LinkingPhraseEnum#is%20the%20unit%20for%20the%20value%20in> ;
    cosmos_sdtm:object "MKORRES" ;
    cosmos_sdtm:predicateTerm <https://www.cdisc.org/cosmos/sdtm_v1.0/PredicateTermEnum#IS_UNIT_FOR> ;
    cosmos_sdtm:subject "MKORRESU" .

<https://w3id.org/cdisc/cosmos/dss/MK/BETAANGL/MKSTRESC/relationship> a cosmos_sdtm:RelationShip ;
    cosmos_sdtm:linkingPhrase <https://www.cdisc.org/cosmos/sdtm_v1.0/LinkingPhraseEnum#is%20the%20result%20of%20the%20test%20in> ;
    cosmos_sdtm:object "MKTESTCD" ;
    cosmos_sdtm:predicateTerm <https://www.cdisc.org/cosmos/sdtm_v1.0/PredicateTermEnum#IS_RESULT_OF> ;
    cosmos_sdtm:subject "MKSTRESC" .

<https://w3id.org/cdisc/cosmos/dss/MK/BETAANGL/MKSTRESN/relationship> a cosmos_sdtm:RelationShip ;
    cosmos_sdtm:linkingPhrase <https://www.cdisc.org/cosmos/sdtm_v1.0/LinkingPhraseEnum#is%20the%20result%20of%20the%20test%20in> ;
    cosmos_sdtm:object "MKTESTCD" ;
    cosmos_sdtm:predicateTerm <https://www.cdisc.org/cosmos/sdtm_v1.0/PredicateTermEnum#IS_RESULT_OF> ;
    cosmos_sdtm:subject "MKSTRESN" .

<https://w3id.org/cdisc/cosmos/dss/MK/BETAANGL/MKSTRESU/assignedTerm> a cosmos_sdtm:AssignedTerm ;
    cosmos_sdtm:conceptId NCIT:C68667 ;
    cosmos_sdtm:value "deg" .

<https://w3id.org/cdisc/cosmos/dss/MK/BETAANGL/MKSTRESU/relationship> a cosmos_sdtm:RelationShip ;
    cosmos_sdtm:linkingPhrase <https://www.cdisc.org/cosmos/sdtm_v1.0/LinkingPhraseEnum#is%20the%20unit%20for%20the%20value%20in> ;
    cosmos_sdtm:object "MKSTRESN" ;
    cosmos_sdtm:predicateTerm <https://www.cdisc.org/cosmos/sdtm_v1.0/PredicateTermEnum#IS_UNIT_FOR> ;
    cosmos_sdtm:subject "MKSTRESU" .

<https://w3id.org/cdisc/cosmos/dss/MK/BETAANGL/MKTEST/assignedTerm> a cosmos_sdtm:AssignedTerm ;
    cosmos_sdtm:conceptId NCIT:C191307 ;
    cosmos_sdtm:value "Beta Angle" .

<https://w3id.org/cdisc/cosmos/dss/MK/BETAANGL/MKTEST/relationship> a cosmos_sdtm:RelationShip ;
    cosmos_sdtm:linkingPhrase <https://www.cdisc.org/cosmos/sdtm_v1.0/LinkingPhraseEnum#decodes%20the%20value%20in> ;
    cosmos_sdtm:object "MKTESTCD" ;
    cosmos_sdtm:predicateTerm <https://www.cdisc.org/cosmos/sdtm_v1.0/PredicateTermEnum#DECODES> ;
    cosmos_sdtm:subject "MKTEST" .

<https://w3id.org/cdisc/cosmos/dss/MK/BETAANGL/MKTESTCD/assignedTerm> a cosmos_sdtm:AssignedTerm ;
    cosmos_sdtm:conceptId NCIT:C191307 ;
    cosmos_sdtm:value "BETAANGL" .

<https://w3id.org/cdisc/cosmos/dss/MK/BETAANGL/MKTESTCD/relationship> a cosmos_sdtm:RelationShip ;
    cosmos_sdtm:linkingPhrase <https://www.cdisc.org/cosmos/sdtm_v1.0/LinkingPhraseEnum#is%20the%20code%20for%20the%20value%20in> ;
    cosmos_sdtm:object "MKTEST" ;
    cosmos_sdtm:predicateTerm <https://www.cdisc.org/cosmos/sdtm_v1.0/PredicateTermEnum#IS_DECODED_BY> ;
    cosmos_sdtm:subject "MKTESTCD" .

<https://w3id.org/cdisc/cosmos/dss/MK/BMC/MKDTC/relationship> a cosmos_sdtm:RelationShip ;
    cosmos_sdtm:linkingPhrase <https://www.cdisc.org/cosmos/sdtm_v1.0/LinkingPhraseEnum#is%20the%20date%20of%20occurrence%20for> ;
    cosmos_sdtm:object "MKTESTCD" ;
    cosmos_sdtm:predicateTerm <https://www.cdisc.org/cosmos/sdtm_v1.0/PredicateTermEnum#IS_TIMING_FOR> ;
    cosmos_sdtm:subject "MKDTC" .

<https://w3id.org/cdisc/cosmos/dss/MK/BMC/MKLAT/relationship> a cosmos_sdtm:RelationShip ;
    cosmos_sdtm:linkingPhrase <https://www.cdisc.org/cosmos/sdtm_v1.0/LinkingPhraseEnum#further%20specifies%20the%20anatomical%20location%20in> ;
    cosmos_sdtm:object "MKLOC" ;
    cosmos_sdtm:predicateTerm <https://www.cdisc.org/cosmos/sdtm_v1.0/PredicateTermEnum#SPECIFIES> ;
    cosmos_sdtm:subject "MKLAT" .

<https://w3id.org/cdisc/cosmos/dss/MK/BMC/MKLOC/relationship> a cosmos_sdtm:RelationShip ;
    cosmos_sdtm:linkingPhrase <https://www.cdisc.org/cosmos/sdtm_v1.0/LinkingPhraseEnum#specifies%20the%20anatomical%20location%20of%20the%20performance%20of%20the%20test%20in> ;
    cosmos_sdtm:object "MKTESTCD" ;
    cosmos_sdtm:predicateTerm <https://www.cdisc.org/cosmos/sdtm_v1.0/PredicateTermEnum#SPECIFIES> ;
    cosmos_sdtm:subject "MKLOC" .

<https://w3id.org/cdisc/cosmos/dss/MK/BMC/MKMETHOD/relationship> a cosmos_sdtm:RelationShip ;
    cosmos_sdtm:linkingPhrase <https://www.cdisc.org/cosmos/sdtm_v1.0/LinkingPhraseEnum#is%20the%20method%20for%20the%20test%20in> ;
    cosmos_sdtm:object "MKTESTCD" ;
    cosmos_sdtm:predicateTerm <https://www.cdisc.org/cosmos/sdtm_v1.0/PredicateTermEnum#SPECIFIES> ;
    cosmos_sdtm:subject "MKMETHOD" .

<https://w3id.org/cdisc/cosmos/dss/MK/BMC/MKORRES/relationship> a cosmos_sdtm:RelationShip ;
    cosmos_sdtm:linkingPhrase <https://www.cdisc.org/cosmos/sdtm_v1.0/LinkingPhraseEnum#is%20the%20result%20of%20the%20test%20in> ;
    cosmos_sdtm:object "MKTESTCD" ;
    cosmos_sdtm:predicateTerm <https://www.cdisc.org/cosmos/sdtm_v1.0/PredicateTermEnum#IS_RESULT_OF> ;
    cosmos_sdtm:subject "MKORRES" .

<https://w3id.org/cdisc/cosmos/dss/MK/BMC/MKORRESU/relationship> a cosmos_sdtm:RelationShip ;
    cosmos_sdtm:linkingPhrase <https://www.cdisc.org/cosmos/sdtm_v1.0/LinkingPhraseEnum#is%20the%20unit%20for%20the%20value%20in> ;
    cosmos_sdtm:object "MKORRES" ;
    cosmos_sdtm:predicateTerm <https://www.cdisc.org/cosmos/sdtm_v1.0/PredicateTermEnum#IS_UNIT_FOR> ;
    cosmos_sdtm:subject "MKORRESU" .

<https://w3id.org/cdisc/cosmos/dss/MK/BMC/MKSTRESC/relationship> a cosmos_sdtm:RelationShip ;
    cosmos_sdtm:linkingPhrase <https://www.cdisc.org/cosmos/sdtm_v1.0/LinkingPhraseEnum#is%20the%20result%20of%20the%20test%20in> ;
    cosmos_sdtm:object "MKTESTCD" ;
    cosmos_sdtm:predicateTerm <https://www.cdisc.org/cosmos/sdtm_v1.0/PredicateTermEnum#IS_RESULT_OF> ;
    cosmos_sdtm:subject "MKSTRESC" .

<https://w3id.org/cdisc/cosmos/dss/MK/BMC/MKSTRESN/relationship> a cosmos_sdtm:RelationShip ;
    cosmos_sdtm:linkingPhrase <https://www.cdisc.org/cosmos/sdtm_v1.0/LinkingPhraseEnum#is%20the%20result%20of%20the%20test%20in> ;
    cosmos_sdtm:object "MKTESTCD" ;
    cosmos_sdtm:predicateTerm <https://www.cdisc.org/cosmos/sdtm_v1.0/PredicateTermEnum#IS_RESULT_OF> ;
    cosmos_sdtm:subject "MKSTRESN" .

<https://w3id.org/cdisc/cosmos/dss/MK/BMC/MKSTRESU/assignedTerm> a cosmos_sdtm:AssignedTerm ;
    cosmos_sdtm:conceptId NCIT:C28252 ;
    cosmos_sdtm:value "kg" .

<https://w3id.org/cdisc/cosmos/dss/MK/BMC/MKSTRESU/relationship> a cosmos_sdtm:RelationShip ;
    cosmos_sdtm:linkingPhrase <https://www.cdisc.org/cosmos/sdtm_v1.0/LinkingPhraseEnum#is%20the%20unit%20for%20the%20value%20in> ;
    cosmos_sdtm:object "MKSTRESN" ;
    cosmos_sdtm:predicateTerm <https://www.cdisc.org/cosmos/sdtm_v1.0/PredicateTermEnum#IS_UNIT_FOR> ;
    cosmos_sdtm:subject "MKSTRESU" .

<https://w3id.org/cdisc/cosmos/dss/MK/BMC/MKTEST/assignedTerm> a cosmos_sdtm:AssignedTerm ;
    cosmos_sdtm:conceptId NCIT:C147472 ;
    cosmos_sdtm:value "Bone Mineral Content" .

<https://w3id.org/cdisc/cosmos/dss/MK/BMC/MKTEST/relationship> a cosmos_sdtm:RelationShip ;
    cosmos_sdtm:linkingPhrase <https://www.cdisc.org/cosmos/sdtm_v1.0/LinkingPhraseEnum#decodes%20the%20value%20in> ;
    cosmos_sdtm:object "MKTESTCD" ;
    cosmos_sdtm:predicateTerm <https://www.cdisc.org/cosmos/sdtm_v1.0/PredicateTermEnum#DECODES> ;
    cosmos_sdtm:subject "MKTEST" .

<https://w3id.org/cdisc/cosmos/dss/MK/BMC/MKTESTCD/assignedTerm> a cosmos_sdtm:AssignedTerm ;
    cosmos_sdtm:conceptId NCIT:C147472 ;
    cosmos_sdtm:value "BMC" .

<https://w3id.org/cdisc/cosmos/dss/MK/BMC/MKTESTCD/relationship> a cosmos_sdtm:RelationShip ;
    cosmos_sdtm:linkingPhrase <https://www.cdisc.org/cosmos/sdtm_v1.0/LinkingPhraseEnum#is%20the%20code%20for%20the%20value%20in> ;
    cosmos_sdtm:object "MKTEST" ;
    cosmos_sdtm:predicateTerm <https://www.cdisc.org/cosmos/sdtm_v1.0/PredicateTermEnum#IS_DECODED_BY> ;
    cosmos_sdtm:subject "MKTESTCD" .

<https://w3id.org/cdisc/cosmos/dss/MK/BMD/MKDTC/relationship> a cosmos_sdtm:RelationShip ;
    cosmos_sdtm:linkingPhrase <https://www.cdisc.org/cosmos/sdtm_v1.0/LinkingPhraseEnum#is%20the%20date%20of%20occurrence%20for> ;
    cosmos_sdtm:object "MKTESTCD" ;
    cosmos_sdtm:predicateTerm <https://www.cdisc.org/cosmos/sdtm_v1.0/PredicateTermEnum#IS_TIMING_FOR> ;
    cosmos_sdtm:subject "MKDTC" .

<https://w3id.org/cdisc/cosmos/dss/MK/BMD/MKLAT/relationship> a cosmos_sdtm:RelationShip ;
    cosmos_sdtm:linkingPhrase <https://www.cdisc.org/cosmos/sdtm_v1.0/LinkingPhraseEnum#further%20specifies%20the%20anatomical%20location%20in> ;
    cosmos_sdtm:object "MKLOC" ;
    cosmos_sdtm:predicateTerm <https://www.cdisc.org/cosmos/sdtm_v1.0/PredicateTermEnum#SPECIFIES> ;
    cosmos_sdtm:subject "MKLAT" .

<https://w3id.org/cdisc/cosmos/dss/MK/BMD/MKLOC/relationship> a cosmos_sdtm:RelationShip ;
    cosmos_sdtm:linkingPhrase <https://www.cdisc.org/cosmos/sdtm_v1.0/LinkingPhraseEnum#specifies%20the%20anatomical%20location%20of%20the%20performance%20of%20the%20test%20in> ;
    cosmos_sdtm:object "MKTESTCD" ;
    cosmos_sdtm:predicateTerm <https://www.cdisc.org/cosmos/sdtm_v1.0/PredicateTermEnum#SPECIFIES> ;
    cosmos_sdtm:subject "MKLOC" .

<https://w3id.org/cdisc/cosmos/dss/MK/BMD/MKMETHOD/relationship> a cosmos_sdtm:RelationShip ;
    cosmos_sdtm:linkingPhrase <https://www.cdisc.org/cosmos/sdtm_v1.0/LinkingPhraseEnum#is%20the%20method%20for%20the%20test%20in> ;
    cosmos_sdtm:object "MKTESTCD" ;
    cosmos_sdtm:predicateTerm <https://www.cdisc.org/cosmos/sdtm_v1.0/PredicateTermEnum#SPECIFIES> ;
    cosmos_sdtm:subject "MKMETHOD" .

<https://w3id.org/cdisc/cosmos/dss/MK/BMD/MKORRES/relationship> a cosmos_sdtm:RelationShip ;
    cosmos_sdtm:linkingPhrase <https://www.cdisc.org/cosmos/sdtm_v1.0/LinkingPhraseEnum#is%20the%20result%20of%20the%20test%20in> ;
    cosmos_sdtm:object "MKTESTCD" ;
    cosmos_sdtm:predicateTerm <https://www.cdisc.org/cosmos/sdtm_v1.0/PredicateTermEnum#IS_RESULT_OF> ;
    cosmos_sdtm:subject "MKORRES" .

<https://w3id.org/cdisc/cosmos/dss/MK/BMD/MKORRESU/relationship> a cosmos_sdtm:RelationShip ;
    cosmos_sdtm:linkingPhrase <https://www.cdisc.org/cosmos/sdtm_v1.0/LinkingPhraseEnum#is%20the%20unit%20for%20the%20value%20in> ;
    cosmos_sdtm:object "MKORRES" ;
    cosmos_sdtm:predicateTerm <https://www.cdisc.org/cosmos/sdtm_v1.0/PredicateTermEnum#IS_UNIT_FOR> ;
    cosmos_sdtm:subject "MKORRESU" .

<https://w3id.org/cdisc/cosmos/dss/MK/BMD/MKSTRESC/relationship> a cosmos_sdtm:RelationShip ;
    cosmos_sdtm:linkingPhrase <https://www.cdisc.org/cosmos/sdtm_v1.0/LinkingPhraseEnum#is%20the%20result%20of%20the%20test%20in> ;
    cosmos_sdtm:object "MKTESTCD" ;
    cosmos_sdtm:predicateTerm <https://www.cdisc.org/cosmos/sdtm_v1.0/PredicateTermEnum#IS_RESULT_OF> ;
    cosmos_sdtm:subject "MKSTRESC" .

<https://w3id.org/cdisc/cosmos/dss/MK/BMD/MKSTRESN/relationship> a cosmos_sdtm:RelationShip ;
    cosmos_sdtm:linkingPhrase <https://www.cdisc.org/cosmos/sdtm_v1.0/LinkingPhraseEnum#is%20the%20result%20of%20the%20test%20in> ;
    cosmos_sdtm:object "MKTESTCD" ;
    cosmos_sdtm:predicateTerm <https://www.cdisc.org/cosmos/sdtm_v1.0/PredicateTermEnum#IS_RESULT_OF> ;
    cosmos_sdtm:subject "MKSTRESN" .

<https://w3id.org/cdisc/cosmos/dss/MK/BMD/MKSTRESU/assignedTerm> a cosmos_sdtm:AssignedTerm ;
    cosmos_sdtm:conceptId NCIT:C71201 ;
    cosmos_sdtm:value "g/cm2" .

<https://w3id.org/cdisc/cosmos/dss/MK/BMD/MKSTRESU/relationship> a cosmos_sdtm:RelationShip ;
    cosmos_sdtm:linkingPhrase <https://www.cdisc.org/cosmos/sdtm_v1.0/LinkingPhraseEnum#is%20the%20unit%20for%20the%20value%20in> ;
    cosmos_sdtm:object "MKSTRESN" ;
    cosmos_sdtm:predicateTerm <https://www.cdisc.org/cosmos/sdtm_v1.0/PredicateTermEnum#IS_UNIT_FOR> ;
    cosmos_sdtm:subject "MKSTRESU" .

<https://w3id.org/cdisc/cosmos/dss/MK/BMD/MKTEST/assignedTerm> a cosmos_sdtm:AssignedTerm ;
    cosmos_sdtm:conceptId NCIT:C61545 ;
    cosmos_sdtm:value "Bone Mineral Density" .

<https://w3id.org/cdisc/cosmos/dss/MK/BMD/MKTEST/relationship> a cosmos_sdtm:RelationShip ;
    cosmos_sdtm:linkingPhrase <https://www.cdisc.org/cosmos/sdtm_v1.0/LinkingPhraseEnum#decodes%20the%20value%20in> ;
    cosmos_sdtm:object "MKTESTCD" ;
    cosmos_sdtm:predicateTerm <https://www.cdisc.org/cosmos/sdtm_v1.0/PredicateTermEnum#DECODES> ;
    cosmos_sdtm:subject "MKTEST" .

<https://w3id.org/cdisc/cosmos/dss/MK/BMD/MKTESTCD/assignedTerm> a cosmos_sdtm:AssignedTerm ;
    cosmos_sdtm:conceptId NCIT:C61545 ;
    cosmos_sdtm:value "BMD" .

<https://w3id.org/cdisc/cosmos/dss/MK/BMD/MKTESTCD/relationship> a cosmos_sdtm:RelationShip ;
    cosmos_sdtm:linkingPhrase <https://www.cdisc.org/cosmos/sdtm_v1.0/LinkingPhraseEnum#is%20the%20code%20for%20the%20value%20in> ;
    cosmos_sdtm:object "MKTEST" ;
    cosmos_sdtm:predicateTerm <https://www.cdisc.org/cosmos/sdtm_v1.0/PredicateTermEnum#IS_DECODED_BY> ;
    cosmos_sdtm:subject "MKTESTCD" .

<https://w3id.org/cdisc/cosmos/dss/MK/BMDT/MKDTC/relationship> a cosmos_sdtm:RelationShip ;
    cosmos_sdtm:linkingPhrase <https://www.cdisc.org/cosmos/sdtm_v1.0/LinkingPhraseEnum#is%20the%20date%20of%20occurrence%20for> ;
    cosmos_sdtm:object "MKTESTCD" ;
    cosmos_sdtm:predicateTerm <https://www.cdisc.org/cosmos/sdtm_v1.0/PredicateTermEnum#IS_TIMING_FOR> ;
    cosmos_sdtm:subject "MKDTC" .

<https://w3id.org/cdisc/cosmos/dss/MK/BMDT/MKLAT/relationship> a cosmos_sdtm:RelationShip ;
    cosmos_sdtm:linkingPhrase <https://www.cdisc.org/cosmos/sdtm_v1.0/LinkingPhraseEnum#further%20specifies%20the%20anatomical%20location%20in> ;
    cosmos_sdtm:object "MKLOC" ;
    cosmos_sdtm:predicateTerm <https://www.cdisc.org/cosmos/sdtm_v1.0/PredicateTermEnum#SPECIFIES> ;
    cosmos_sdtm:subject "MKLAT" .

<https://w3id.org/cdisc/cosmos/dss/MK/BMDT/MKLOC/relationship> a cosmos_sdtm:RelationShip ;
    cosmos_sdtm:linkingPhrase <https://www.cdisc.org/cosmos/sdtm_v1.0/LinkingPhraseEnum#specifies%20the%20anatomical%20location%20of%20the%20performance%20of%20the%20test%20in> ;
    cosmos_sdtm:object "MKTESTCD" ;
    cosmos_sdtm:predicateTerm <https://www.cdisc.org/cosmos/sdtm_v1.0/PredicateTermEnum#SPECIFIES> ;
    cosmos_sdtm:subject "MKLOC" .

<https://w3id.org/cdisc/cosmos/dss/MK/BMDT/MKMETHOD/relationship> a cosmos_sdtm:RelationShip ;
    cosmos_sdtm:linkingPhrase <https://www.cdisc.org/cosmos/sdtm_v1.0/LinkingPhraseEnum#is%20the%20method%20for%20the%20test%20in> ;
    cosmos_sdtm:object "MKTESTCD" ;
    cosmos_sdtm:predicateTerm <https://www.cdisc.org/cosmos/sdtm_v1.0/PredicateTermEnum#SPECIFIES> ;
    cosmos_sdtm:subject "MKMETHOD" .

<https://w3id.org/cdisc/cosmos/dss/MK/BMDT/MKORRES/relationship> a cosmos_sdtm:RelationShip ;
    cosmos_sdtm:linkingPhrase <https://www.cdisc.org/cosmos/sdtm_v1.0/LinkingPhraseEnum#is%20the%20result%20of%20the%20test%20in> ;
    cosmos_sdtm:object "MKTESTCD" ;
    cosmos_sdtm:predicateTerm <https://www.cdisc.org/cosmos/sdtm_v1.0/PredicateTermEnum#IS_RESULT_OF> ;
    cosmos_sdtm:subject "MKORRES" .

<https://w3id.org/cdisc/cosmos/dss/MK/BMDT/MKSTRESC/relationship> a cosmos_sdtm:RelationShip ;
    cosmos_sdtm:linkingPhrase <https://www.cdisc.org/cosmos/sdtm_v1.0/LinkingPhraseEnum#is%20the%20result%20of%20the%20test%20in> ;
    cosmos_sdtm:object "MKTESTCD" ;
    cosmos_sdtm:predicateTerm <https://www.cdisc.org/cosmos/sdtm_v1.0/PredicateTermEnum#IS_RESULT_OF> ;
    cosmos_sdtm:subject "MKSTRESC" .

<https://w3id.org/cdisc/cosmos/dss/MK/BMDT/MKSTRESN/relationship> a cosmos_sdtm:RelationShip ;
    cosmos_sdtm:linkingPhrase <https://www.cdisc.org/cosmos/sdtm_v1.0/LinkingPhraseEnum#is%20the%20result%20of%20the%20test%20in> ;
    cosmos_sdtm:object "MKTESTCD" ;
    cosmos_sdtm:predicateTerm <https://www.cdisc.org/cosmos/sdtm_v1.0/PredicateTermEnum#IS_RESULT_OF> ;
    cosmos_sdtm:subject "MKSTRESN" .

<https://w3id.org/cdisc/cosmos/dss/MK/BMDT/MKTEST/assignedTerm> a cosmos_sdtm:AssignedTerm ;
    cosmos_sdtm:conceptId NCIT:C147473 ;
    cosmos_sdtm:value "Bone Mineral Density T-Score" .

<https://w3id.org/cdisc/cosmos/dss/MK/BMDT/MKTEST/relationship> a cosmos_sdtm:RelationShip ;
    cosmos_sdtm:linkingPhrase <https://www.cdisc.org/cosmos/sdtm_v1.0/LinkingPhraseEnum#decodes%20the%20value%20in> ;
    cosmos_sdtm:object "MKTESTCD" ;
    cosmos_sdtm:predicateTerm <https://www.cdisc.org/cosmos/sdtm_v1.0/PredicateTermEnum#DECODES> ;
    cosmos_sdtm:subject "MKTEST" .

<https://w3id.org/cdisc/cosmos/dss/MK/BMDT/MKTESTCD/assignedTerm> a cosmos_sdtm:AssignedTerm ;
    cosmos_sdtm:conceptId NCIT:C147473 ;
    cosmos_sdtm:value "BMDT" .

<https://w3id.org/cdisc/cosmos/dss/MK/BMDT/MKTESTCD/relationship> a cosmos_sdtm:RelationShip ;
    cosmos_sdtm:linkingPhrase <https://www.cdisc.org/cosmos/sdtm_v1.0/LinkingPhraseEnum#is%20the%20code%20for%20the%20value%20in> ;
    cosmos_sdtm:object "MKTEST" ;
    cosmos_sdtm:predicateTerm <https://www.cdisc.org/cosmos/sdtm_v1.0/PredicateTermEnum#IS_DECODED_BY> ;
    cosmos_sdtm:subject "MKTESTCD" .

<https://w3id.org/cdisc/cosmos/dss/MK/BMDZ/MKDTC/relationship> a cosmos_sdtm:RelationShip ;
    cosmos_sdtm:linkingPhrase <https://www.cdisc.org/cosmos/sdtm_v1.0/LinkingPhraseEnum#is%20the%20date%20of%20occurrence%20for> ;
    cosmos_sdtm:object "MKTESTCD" ;
    cosmos_sdtm:predicateTerm <https://www.cdisc.org/cosmos/sdtm_v1.0/PredicateTermEnum#IS_TIMING_FOR> ;
    cosmos_sdtm:subject "MKDTC" .

<https://w3id.org/cdisc/cosmos/dss/MK/BMDZ/MKLAT/relationship> a cosmos_sdtm:RelationShip ;
    cosmos_sdtm:linkingPhrase <https://www.cdisc.org/cosmos/sdtm_v1.0/LinkingPhraseEnum#further%20specifies%20the%20anatomical%20location%20in> ;
    cosmos_sdtm:object "MKLOC" ;
    cosmos_sdtm:predicateTerm <https://www.cdisc.org/cosmos/sdtm_v1.0/PredicateTermEnum#SPECIFIES> ;
    cosmos_sdtm:subject "MKLAT" .

<https://w3id.org/cdisc/cosmos/dss/MK/BMDZ/MKLOC/relationship> a cosmos_sdtm:RelationShip ;
    cosmos_sdtm:linkingPhrase <https://www.cdisc.org/cosmos/sdtm_v1.0/LinkingPhraseEnum#specifies%20the%20anatomical%20location%20of%20the%20performance%20of%20the%20test%20in> ;
    cosmos_sdtm:object "MKTESTCD" ;
    cosmos_sdtm:predicateTerm <https://www.cdisc.org/cosmos/sdtm_v1.0/PredicateTermEnum#SPECIFIES> ;
    cosmos_sdtm:subject "MKLOC" .

<https://w3id.org/cdisc/cosmos/dss/MK/BMDZ/MKMETHOD/relationship> a cosmos_sdtm:RelationShip ;
    cosmos_sdtm:linkingPhrase <https://www.cdisc.org/cosmos/sdtm_v1.0/LinkingPhraseEnum#is%20the%20method%20for%20the%20test%20in> ;
    cosmos_sdtm:object "MKTESTCD" ;
    cosmos_sdtm:predicateTerm <https://www.cdisc.org/cosmos/sdtm_v1.0/PredicateTermEnum#SPECIFIES> ;
    cosmos_sdtm:subject "MKMETHOD" .

<https://w3id.org/cdisc/cosmos/dss/MK/BMDZ/MKORRES/relationship> a cosmos_sdtm:RelationShip ;
    cosmos_sdtm:linkingPhrase <https://www.cdisc.org/cosmos/sdtm_v1.0/LinkingPhraseEnum#is%20the%20result%20of%20the%20test%20in> ;
    cosmos_sdtm:object "MKTESTCD" ;
    cosmos_sdtm:predicateTerm <https://www.cdisc.org/cosmos/sdtm_v1.0/PredicateTermEnum#IS_RESULT_OF> ;
    cosmos_sdtm:subject "MKORRES" .

<https://w3id.org/cdisc/cosmos/dss/MK/BMDZ/MKSTRESC/relationship> a cosmos_sdtm:RelationShip ;
    cosmos_sdtm:linkingPhrase <https://www.cdisc.org/cosmos/sdtm_v1.0/LinkingPhraseEnum#is%20the%20result%20of%20the%20test%20in> ;
    cosmos_sdtm:object "MKTESTCD" ;
    cosmos_sdtm:predicateTerm <https://www.cdisc.org/cosmos/sdtm_v1.0/PredicateTermEnum#IS_RESULT_OF> ;
    cosmos_sdtm:subject "MKSTRESC" .

<https://w3id.org/cdisc/cosmos/dss/MK/BMDZ/MKSTRESN/relationship> a cosmos_sdtm:RelationShip ;
    cosmos_sdtm:linkingPhrase <https://www.cdisc.org/cosmos/sdtm_v1.0/LinkingPhraseEnum#is%20the%20result%20of%20the%20test%20in> ;
    cosmos_sdtm:object "MKTESTCD" ;
    cosmos_sdtm:predicateTerm <https://www.cdisc.org/cosmos/sdtm_v1.0/PredicateTermEnum#IS_RESULT_OF> ;
    cosmos_sdtm:subject "MKSTRESN" .

<https://w3id.org/cdisc/cosmos/dss/MK/BMDZ/MKTEST/assignedTerm> a cosmos_sdtm:AssignedTerm ;
    cosmos_sdtm:conceptId NCIT:C139217 ;
    cosmos_sdtm:value "Bone Mineral Density Z-Score" .

<https://w3id.org/cdisc/cosmos/dss/MK/BMDZ/MKTEST/relationship> a cosmos_sdtm:RelationShip ;
    cosmos_sdtm:linkingPhrase <https://www.cdisc.org/cosmos/sdtm_v1.0/LinkingPhraseEnum#decodes%20the%20value%20in> ;
    cosmos_sdtm:object "MKTESTCD" ;
    cosmos_sdtm:predicateTerm <https://www.cdisc.org/cosmos/sdtm_v1.0/PredicateTermEnum#DECODES> ;
    cosmos_sdtm:subject "MKTEST" .

<https://w3id.org/cdisc/cosmos/dss/MK/BMDZ/MKTESTCD/assignedTerm> a cosmos_sdtm:AssignedTerm ;
    cosmos_sdtm:conceptId NCIT:C139217 ;
    cosmos_sdtm:value "BMDZ" .

<https://w3id.org/cdisc/cosmos/dss/MK/BMDZ/MKTESTCD/relationship> a cosmos_sdtm:RelationShip ;
    cosmos_sdtm:linkingPhrase <https://www.cdisc.org/cosmos/sdtm_v1.0/LinkingPhraseEnum#is%20the%20code%20for%20the%20value%20in> ;
    cosmos_sdtm:object "MKTEST" ;
    cosmos_sdtm:predicateTerm <https://www.cdisc.org/cosmos/sdtm_v1.0/PredicateTermEnum#IS_DECODED_BY> ;
    cosmos_sdtm:subject "MKTESTCD" .

<https://w3id.org/cdisc/cosmos/dss/MK/BMMTABDT/MKDTC/relationship> a cosmos_sdtm:RelationShip ;
    cosmos_sdtm:linkingPhrase <https://www.cdisc.org/cosmos/sdtm_v1.0/LinkingPhraseEnum#is%20the%20date%20of%20occurrence%20for> ;
    cosmos_sdtm:object "MKTESTCD" ;
    cosmos_sdtm:predicateTerm <https://www.cdisc.org/cosmos/sdtm_v1.0/PredicateTermEnum#IS_TIMING_FOR> ;
    cosmos_sdtm:subject "MKDTC" .

<https://w3id.org/cdisc/cosmos/dss/MK/BMMTABDT/MKLAT/relationship> a cosmos_sdtm:RelationShip ;
    cosmos_sdtm:linkingPhrase <https://www.cdisc.org/cosmos/sdtm_v1.0/LinkingPhraseEnum#further%20specifies%20the%20anatomical%20location%20in> ;
    cosmos_sdtm:object "MKLOC" ;
    cosmos_sdtm:predicateTerm <https://www.cdisc.org/cosmos/sdtm_v1.0/PredicateTermEnum#SPECIFIES> ;
    cosmos_sdtm:subject "MKLAT" .

<https://w3id.org/cdisc/cosmos/dss/MK/BMMTABDT/MKLOC/relationship> a cosmos_sdtm:RelationShip ;
    cosmos_sdtm:linkingPhrase <https://www.cdisc.org/cosmos/sdtm_v1.0/LinkingPhraseEnum#specifies%20the%20anatomical%20location%20of%20the%20performance%20of%20the%20test%20in> ;
    cosmos_sdtm:object "MKTESTCD" ;
    cosmos_sdtm:predicateTerm <https://www.cdisc.org/cosmos/sdtm_v1.0/PredicateTermEnum#SPECIFIES> ;
    cosmos_sdtm:subject "MKLOC" .

<https://w3id.org/cdisc/cosmos/dss/MK/BMMTABDT/MKORRES/relationship> a cosmos_sdtm:RelationShip ;
    cosmos_sdtm:linkingPhrase <https://www.cdisc.org/cosmos/sdtm_v1.0/LinkingPhraseEnum#is%20the%20result%20of%20the%20test%20in> ;
    cosmos_sdtm:object "MKTESTCD" ;
    cosmos_sdtm:predicateTerm <https://www.cdisc.org/cosmos/sdtm_v1.0/PredicateTermEnum#IS_RESULT_OF> ;
    cosmos_sdtm:subject "MKORRES" .

<https://w3id.org/cdisc/cosmos/dss/MK/BMMTABDT/MKSTRESC/relationship> a cosmos_sdtm:RelationShip ;
    cosmos_sdtm:linkingPhrase <https://www.cdisc.org/cosmos/sdtm_v1.0/LinkingPhraseEnum#is%20the%20result%20of%20the%20test%20in> ;
    cosmos_sdtm:object "MKTESTCD" ;
    cosmos_sdtm:predicateTerm <https://www.cdisc.org/cosmos/sdtm_v1.0/PredicateTermEnum#IS_RESULT_OF> ;
    cosmos_sdtm:subject "MKSTRESC" .

<https://w3id.org/cdisc/cosmos/dss/MK/BMMTABDT/MKSTRESN/relationship> a cosmos_sdtm:RelationShip ;
    cosmos_sdtm:linkingPhrase <https://www.cdisc.org/cosmos/sdtm_v1.0/LinkingPhraseEnum#is%20the%20result%20of%20the%20test%20in> ;
    cosmos_sdtm:object "MKTESTCD" ;
    cosmos_sdtm:predicateTerm <https://www.cdisc.org/cosmos/sdtm_v1.0/PredicateTermEnum#IS_RESULT_OF> ;
    cosmos_sdtm:subject "MKSTRESN" .

<https://w3id.org/cdisc/cosmos/dss/MK/BMMTABDT/MKTEST/assignedTerm> a cosmos_sdtm:AssignedTerm ;
    cosmos_sdtm:conceptId NCIT:C139223 ;
    cosmos_sdtm:value "Brooke mMRC MMT Score, Abduction" .

<https://w3id.org/cdisc/cosmos/dss/MK/BMMTABDT/MKTEST/relationship> a cosmos_sdtm:RelationShip ;
    cosmos_sdtm:linkingPhrase <https://www.cdisc.org/cosmos/sdtm_v1.0/LinkingPhraseEnum#decodes%20the%20value%20in> ;
    cosmos_sdtm:object "MKTESTCD" ;
    cosmos_sdtm:predicateTerm <https://www.cdisc.org/cosmos/sdtm_v1.0/PredicateTermEnum#DECODES> ;
    cosmos_sdtm:subject "MKTEST" .

<https://w3id.org/cdisc/cosmos/dss/MK/BMMTABDT/MKTESTCD/assignedTerm> a cosmos_sdtm:AssignedTerm ;
    cosmos_sdtm:conceptId NCIT:C139223 ;
    cosmos_sdtm:value "BMMTABDT" .

<https://w3id.org/cdisc/cosmos/dss/MK/BMMTABDT/MKTESTCD/relationship> a cosmos_sdtm:RelationShip ;
    cosmos_sdtm:linkingPhrase <https://www.cdisc.org/cosmos/sdtm_v1.0/LinkingPhraseEnum#is%20the%20code%20for%20the%20value%20in> ;
    cosmos_sdtm:object "MKTEST" ;
    cosmos_sdtm:predicateTerm <https://www.cdisc.org/cosmos/sdtm_v1.0/PredicateTermEnum#IS_DECODED_BY> ;
    cosmos_sdtm:subject "MKTESTCD" .

<https://w3id.org/cdisc/cosmos/dss/MK/BMMTDORS/MKDTC/relationship> a cosmos_sdtm:RelationShip ;
    cosmos_sdtm:linkingPhrase <https://www.cdisc.org/cosmos/sdtm_v1.0/LinkingPhraseEnum#is%20the%20date%20of%20occurrence%20for> ;
    cosmos_sdtm:object "MKTESTCD" ;
    cosmos_sdtm:predicateTerm <https://www.cdisc.org/cosmos/sdtm_v1.0/PredicateTermEnum#IS_TIMING_FOR> ;
    cosmos_sdtm:subject "MKDTC" .

<https://w3id.org/cdisc/cosmos/dss/MK/BMMTDORS/MKLAT/relationship> a cosmos_sdtm:RelationShip ;
    cosmos_sdtm:linkingPhrase <https://www.cdisc.org/cosmos/sdtm_v1.0/LinkingPhraseEnum#further%20specifies%20the%20anatomical%20location%20in> ;
    cosmos_sdtm:object "MKLOC" ;
    cosmos_sdtm:predicateTerm <https://www.cdisc.org/cosmos/sdtm_v1.0/PredicateTermEnum#SPECIFIES> ;
    cosmos_sdtm:subject "MKLAT" .

<https://w3id.org/cdisc/cosmos/dss/MK/BMMTDORS/MKLOC/relationship> a cosmos_sdtm:RelationShip ;
    cosmos_sdtm:linkingPhrase <https://www.cdisc.org/cosmos/sdtm_v1.0/LinkingPhraseEnum#specifies%20the%20anatomical%20location%20of%20the%20performance%20of%20the%20test%20in> ;
    cosmos_sdtm:object "MKTESTCD" ;
    cosmos_sdtm:predicateTerm <https://www.cdisc.org/cosmos/sdtm_v1.0/PredicateTermEnum#SPECIFIES> ;
    cosmos_sdtm:subject "MKLOC" .

<https://w3id.org/cdisc/cosmos/dss/MK/BMMTDORS/MKORRES/relationship> a cosmos_sdtm:RelationShip ;
    cosmos_sdtm:linkingPhrase <https://www.cdisc.org/cosmos/sdtm_v1.0/LinkingPhraseEnum#is%20the%20result%20of%20the%20test%20in> ;
    cosmos_sdtm:object "MKTESTCD" ;
    cosmos_sdtm:predicateTerm <https://www.cdisc.org/cosmos/sdtm_v1.0/PredicateTermEnum#IS_RESULT_OF> ;
    cosmos_sdtm:subject "MKORRES" .

<https://w3id.org/cdisc/cosmos/dss/MK/BMMTDORS/MKSTRESC/relationship> a cosmos_sdtm:RelationShip ;
    cosmos_sdtm:linkingPhrase <https://www.cdisc.org/cosmos/sdtm_v1.0/LinkingPhraseEnum#is%20the%20result%20of%20the%20test%20in> ;
    cosmos_sdtm:object "MKTESTCD" ;
    cosmos_sdtm:predicateTerm <https://www.cdisc.org/cosmos/sdtm_v1.0/PredicateTermEnum#IS_RESULT_OF> ;
    cosmos_sdtm:subject "MKSTRESC" .

<https://w3id.org/cdisc/cosmos/dss/MK/BMMTDORS/MKSTRESN/relationship> a cosmos_sdtm:RelationShip ;
    cosmos_sdtm:linkingPhrase <https://www.cdisc.org/cosmos/sdtm_v1.0/LinkingPhraseEnum#is%20the%20result%20of%20the%20test%20in> ;
    cosmos_sdtm:object "MKTESTCD" ;
    cosmos_sdtm:predicateTerm <https://www.cdisc.org/cosmos/sdtm_v1.0/PredicateTermEnum#IS_RESULT_OF> ;
    cosmos_sdtm:subject "MKSTRESN" .

<https://w3id.org/cdisc/cosmos/dss/MK/BMMTDORS/MKTEST/assignedTerm> a cosmos_sdtm:AssignedTerm ;
    cosmos_sdtm:conceptId NCIT:C139225 ;
    cosmos_sdtm:value "Brooke mMRC MMT Score, Dorsiflexion" .

<https://w3id.org/cdisc/cosmos/dss/MK/BMMTDORS/MKTEST/relationship> a cosmos_sdtm:RelationShip ;
    cosmos_sdtm:linkingPhrase <https://www.cdisc.org/cosmos/sdtm_v1.0/LinkingPhraseEnum#decodes%20the%20value%20in> ;
    cosmos_sdtm:object "MKTESTCD" ;
    cosmos_sdtm:predicateTerm <https://www.cdisc.org/cosmos/sdtm_v1.0/PredicateTermEnum#DECODES> ;
    cosmos_sdtm:subject "MKTEST" .

<https://w3id.org/cdisc/cosmos/dss/MK/BMMTDORS/MKTESTCD/assignedTerm> a cosmos_sdtm:AssignedTerm ;
    cosmos_sdtm:conceptId NCIT:C139225 ;
    cosmos_sdtm:value "BMMTDORS" .

<https://w3id.org/cdisc/cosmos/dss/MK/BMMTDORS/MKTESTCD/relationship> a cosmos_sdtm:RelationShip ;
    cosmos_sdtm:linkingPhrase <https://www.cdisc.org/cosmos/sdtm_v1.0/LinkingPhraseEnum#is%20the%20code%20for%20the%20value%20in> ;
    cosmos_sdtm:object "MKTEST" ;
    cosmos_sdtm:predicateTerm <https://www.cdisc.org/cosmos/sdtm_v1.0/PredicateTermEnum#IS_DECODED_BY> ;
    cosmos_sdtm:subject "MKTESTCD" .

<https://w3id.org/cdisc/cosmos/dss/MK/BMMTEVE/MKDTC/relationship> a cosmos_sdtm:RelationShip ;
    cosmos_sdtm:linkingPhrase <https://www.cdisc.org/cosmos/sdtm_v1.0/LinkingPhraseEnum#is%20the%20date%20of%20occurrence%20for> ;
    cosmos_sdtm:object "MKTESTCD" ;
    cosmos_sdtm:predicateTerm <https://www.cdisc.org/cosmos/sdtm_v1.0/PredicateTermEnum#IS_TIMING_FOR> ;
    cosmos_sdtm:subject "MKDTC" .

<https://w3id.org/cdisc/cosmos/dss/MK/BMMTEVE/MKLAT/relationship> a cosmos_sdtm:RelationShip ;
    cosmos_sdtm:linkingPhrase <https://www.cdisc.org/cosmos/sdtm_v1.0/LinkingPhraseEnum#further%20specifies%20the%20anatomical%20location%20in> ;
    cosmos_sdtm:object "MKLOC" ;
    cosmos_sdtm:predicateTerm <https://www.cdisc.org/cosmos/sdtm_v1.0/PredicateTermEnum#SPECIFIES> ;
    cosmos_sdtm:subject "MKLAT" .

<https://w3id.org/cdisc/cosmos/dss/MK/BMMTEVE/MKLOC/relationship> a cosmos_sdtm:RelationShip ;
    cosmos_sdtm:linkingPhrase <https://www.cdisc.org/cosmos/sdtm_v1.0/LinkingPhraseEnum#specifies%20the%20anatomical%20location%20of%20the%20performance%20of%20the%20test%20in> ;
    cosmos_sdtm:object "MKTESTCD" ;
    cosmos_sdtm:predicateTerm <https://www.cdisc.org/cosmos/sdtm_v1.0/PredicateTermEnum#SPECIFIES> ;
    cosmos_sdtm:subject "MKLOC" .

<https://w3id.org/cdisc/cosmos/dss/MK/BMMTEVE/MKORRES/relationship> a cosmos_sdtm:RelationShip ;
    cosmos_sdtm:linkingPhrase <https://www.cdisc.org/cosmos/sdtm_v1.0/LinkingPhraseEnum#is%20the%20result%20of%20the%20test%20in> ;
    cosmos_sdtm:object "MKTESTCD" ;
    cosmos_sdtm:predicateTerm <https://www.cdisc.org/cosmos/sdtm_v1.0/PredicateTermEnum#IS_RESULT_OF> ;
    cosmos_sdtm:subject "MKORRES" .

<https://w3id.org/cdisc/cosmos/dss/MK/BMMTEVE/MKSTRESC/relationship> a cosmos_sdtm:RelationShip ;
    cosmos_sdtm:linkingPhrase <https://www.cdisc.org/cosmos/sdtm_v1.0/LinkingPhraseEnum#is%20the%20result%20of%20the%20test%20in> ;
    cosmos_sdtm:object "MKTESTCD" ;
    cosmos_sdtm:predicateTerm <https://www.cdisc.org/cosmos/sdtm_v1.0/PredicateTermEnum#IS_RESULT_OF> ;
    cosmos_sdtm:subject "MKSTRESC" .

<https://w3id.org/cdisc/cosmos/dss/MK/BMMTEVE/MKSTRESN/relationship> a cosmos_sdtm:RelationShip ;
    cosmos_sdtm:linkingPhrase <https://www.cdisc.org/cosmos/sdtm_v1.0/LinkingPhraseEnum#is%20the%20result%20of%20the%20test%20in> ;
    cosmos_sdtm:object "MKTESTCD" ;
    cosmos_sdtm:predicateTerm <https://www.cdisc.org/cosmos/sdtm_v1.0/PredicateTermEnum#IS_RESULT_OF> ;
    cosmos_sdtm:subject "MKSTRESN" .

<https://w3id.org/cdisc/cosmos/dss/MK/BMMTEVE/MKTEST/assignedTerm> a cosmos_sdtm:AssignedTerm ;
    cosmos_sdtm:conceptId NCIT:C139227 ;
    cosmos_sdtm:value "Brooke mMRC MMT Score, Eversion" .

<https://w3id.org/cdisc/cosmos/dss/MK/BMMTEVE/MKTEST/relationship> a cosmos_sdtm:RelationShip ;
    cosmos_sdtm:linkingPhrase <https://www.cdisc.org/cosmos/sdtm_v1.0/LinkingPhraseEnum#decodes%20the%20value%20in> ;
    cosmos_sdtm:object "MKTESTCD" ;
    cosmos_sdtm:predicateTerm <https://www.cdisc.org/cosmos/sdtm_v1.0/PredicateTermEnum#DECODES> ;
    cosmos_sdtm:subject "MKTEST" .

<https://w3id.org/cdisc/cosmos/dss/MK/BMMTEVE/MKTESTCD/assignedTerm> a cosmos_sdtm:AssignedTerm ;
    cosmos_sdtm:conceptId NCIT:C139227 ;
    cosmos_sdtm:value "BMMTEVE" .

<https://w3id.org/cdisc/cosmos/dss/MK/BMMTEVE/MKTESTCD/relationship> a cosmos_sdtm:RelationShip ;
    cosmos_sdtm:linkingPhrase <https://www.cdisc.org/cosmos/sdtm_v1.0/LinkingPhraseEnum#is%20the%20code%20for%20the%20value%20in> ;
    cosmos_sdtm:object "MKTEST" ;
    cosmos_sdtm:predicateTerm <https://www.cdisc.org/cosmos/sdtm_v1.0/PredicateTermEnum#IS_DECODED_BY> ;
    cosmos_sdtm:subject "MKTESTCD" .

<https://w3id.org/cdisc/cosmos/dss/MK/BMMTEXT/MKDTC/relationship> a cosmos_sdtm:RelationShip ;
    cosmos_sdtm:linkingPhrase <https://www.cdisc.org/cosmos/sdtm_v1.0/LinkingPhraseEnum#is%20the%20date%20of%20occurrence%20for> ;
    cosmos_sdtm:object "MKTESTCD" ;
    cosmos_sdtm:predicateTerm <https://www.cdisc.org/cosmos/sdtm_v1.0/PredicateTermEnum#IS_TIMING_FOR> ;
    cosmos_sdtm:subject "MKDTC" .

<https://w3id.org/cdisc/cosmos/dss/MK/BMMTEXT/MKLAT/relationship> a cosmos_sdtm:RelationShip ;
    cosmos_sdtm:linkingPhrase <https://www.cdisc.org/cosmos/sdtm_v1.0/LinkingPhraseEnum#further%20specifies%20the%20anatomical%20location%20in> ;
    cosmos_sdtm:object "MKLOC" ;
    cosmos_sdtm:predicateTerm <https://www.cdisc.org/cosmos/sdtm_v1.0/PredicateTermEnum#SPECIFIES> ;
    cosmos_sdtm:subject "MKLAT" .

<https://w3id.org/cdisc/cosmos/dss/MK/BMMTEXT/MKLOC/relationship> a cosmos_sdtm:RelationShip ;
    cosmos_sdtm:linkingPhrase <https://www.cdisc.org/cosmos/sdtm_v1.0/LinkingPhraseEnum#specifies%20the%20anatomical%20location%20of%20the%20performance%20of%20the%20test%20in> ;
    cosmos_sdtm:object "MKTESTCD" ;
    cosmos_sdtm:predicateTerm <https://www.cdisc.org/cosmos/sdtm_v1.0/PredicateTermEnum#SPECIFIES> ;
    cosmos_sdtm:subject "MKLOC" .

<https://w3id.org/cdisc/cosmos/dss/MK/BMMTEXT/MKORRES/relationship> a cosmos_sdtm:RelationShip ;
    cosmos_sdtm:linkingPhrase <https://www.cdisc.org/cosmos/sdtm_v1.0/LinkingPhraseEnum#is%20the%20result%20of%20the%20test%20in> ;
    cosmos_sdtm:object "MKTESTCD" ;
    cosmos_sdtm:predicateTerm <https://www.cdisc.org/cosmos/sdtm_v1.0/PredicateTermEnum#IS_RESULT_OF> ;
    cosmos_sdtm:subject "MKORRES" .

<https://w3id.org/cdisc/cosmos/dss/MK/BMMTEXT/MKSTRESC/relationship> a cosmos_sdtm:RelationShip ;
    cosmos_sdtm:linkingPhrase <https://www.cdisc.org/cosmos/sdtm_v1.0/LinkingPhraseEnum#is%20the%20result%20of%20the%20test%20in> ;
    cosmos_sdtm:object "MKTESTCD" ;
    cosmos_sdtm:predicateTerm <https://www.cdisc.org/cosmos/sdtm_v1.0/PredicateTermEnum#IS_RESULT_OF> ;
    cosmos_sdtm:subject "MKSTRESC" .

<https://w3id.org/cdisc/cosmos/dss/MK/BMMTEXT/MKSTRESN/relationship> a cosmos_sdtm:RelationShip ;
    cosmos_sdtm:linkingPhrase <https://www.cdisc.org/cosmos/sdtm_v1.0/LinkingPhraseEnum#is%20the%20result%20of%20the%20test%20in> ;
    cosmos_sdtm:object "MKTESTCD" ;
    cosmos_sdtm:predicateTerm <https://www.cdisc.org/cosmos/sdtm_v1.0/PredicateTermEnum#IS_RESULT_OF> ;
    cosmos_sdtm:subject "MKSTRESN" .

<https://w3id.org/cdisc/cosmos/dss/MK/BMMTEXT/MKTEST/assignedTerm> a cosmos_sdtm:AssignedTerm ;
    cosmos_sdtm:conceptId NCIT:C139220 ;
    cosmos_sdtm:value "Brooke mMRC MMT Score, Extension" .

<https://w3id.org/cdisc/cosmos/dss/MK/BMMTEXT/MKTEST/relationship> a cosmos_sdtm:RelationShip ;
    cosmos_sdtm:linkingPhrase <https://www.cdisc.org/cosmos/sdtm_v1.0/LinkingPhraseEnum#decodes%20the%20value%20in> ;
    cosmos_sdtm:object "MKTESTCD" ;
    cosmos_sdtm:predicateTerm <https://www.cdisc.org/cosmos/sdtm_v1.0/PredicateTermEnum#DECODES> ;
    cosmos_sdtm:subject "MKTEST" .

<https://w3id.org/cdisc/cosmos/dss/MK/BMMTEXT/MKTESTCD/assignedTerm> a cosmos_sdtm:AssignedTerm ;
    cosmos_sdtm:conceptId NCIT:C139220 ;
    cosmos_sdtm:value "BMMTEXT" .

<https://w3id.org/cdisc/cosmos/dss/MK/BMMTEXT/MKTESTCD/relationship> a cosmos_sdtm:RelationShip ;
    cosmos_sdtm:linkingPhrase <https://www.cdisc.org/cosmos/sdtm_v1.0/LinkingPhraseEnum#is%20the%20code%20for%20the%20value%20in> ;
    cosmos_sdtm:object "MKTEST" ;
    cosmos_sdtm:predicateTerm <https://www.cdisc.org/cosmos/sdtm_v1.0/PredicateTermEnum#IS_DECODED_BY> ;
    cosmos_sdtm:subject "MKTESTCD" .

<https://w3id.org/cdisc/cosmos/dss/MK/BMMTFLX/MKDTC/relationship> a cosmos_sdtm:RelationShip ;
    cosmos_sdtm:linkingPhrase <https://www.cdisc.org/cosmos/sdtm_v1.0/LinkingPhraseEnum#is%20the%20date%20of%20occurrence%20for> ;
    cosmos_sdtm:object "MKTESTCD" ;
    cosmos_sdtm:predicateTerm <https://www.cdisc.org/cosmos/sdtm_v1.0/PredicateTermEnum#IS_TIMING_FOR> ;
    cosmos_sdtm:subject "MKDTC" .

<https://w3id.org/cdisc/cosmos/dss/MK/BMMTFLX/MKLAT/relationship> a cosmos_sdtm:RelationShip ;
    cosmos_sdtm:linkingPhrase <https://www.cdisc.org/cosmos/sdtm_v1.0/LinkingPhraseEnum#further%20specifies%20the%20anatomical%20location%20in> ;
    cosmos_sdtm:object "MKLOC" ;
    cosmos_sdtm:predicateTerm <https://www.cdisc.org/cosmos/sdtm_v1.0/PredicateTermEnum#SPECIFIES> ;
    cosmos_sdtm:subject "MKLAT" .

<https://w3id.org/cdisc/cosmos/dss/MK/BMMTFLX/MKLOC/relationship> a cosmos_sdtm:RelationShip ;
    cosmos_sdtm:linkingPhrase <https://www.cdisc.org/cosmos/sdtm_v1.0/LinkingPhraseEnum#specifies%20the%20anatomical%20location%20of%20the%20performance%20of%20the%20test%20in> ;
    cosmos_sdtm:object "MKTESTCD" ;
    cosmos_sdtm:predicateTerm <https://www.cdisc.org/cosmos/sdtm_v1.0/PredicateTermEnum#SPECIFIES> ;
    cosmos_sdtm:subject "MKLOC" .

<https://w3id.org/cdisc/cosmos/dss/MK/BMMTFLX/MKORRES/relationship> a cosmos_sdtm:RelationShip ;
    cosmos_sdtm:linkingPhrase <https://www.cdisc.org/cosmos/sdtm_v1.0/LinkingPhraseEnum#is%20the%20result%20of%20the%20test%20in> ;
    cosmos_sdtm:object "MKTESTCD" ;
    cosmos_sdtm:predicateTerm <https://www.cdisc.org/cosmos/sdtm_v1.0/PredicateTermEnum#IS_RESULT_OF> ;
    cosmos_sdtm:subject "MKORRES" .

<https://w3id.org/cdisc/cosmos/dss/MK/BMMTFLX/MKSTRESC/relationship> a cosmos_sdtm:RelationShip ;
    cosmos_sdtm:linkingPhrase <https://www.cdisc.org/cosmos/sdtm_v1.0/LinkingPhraseEnum#is%20the%20result%20of%20the%20test%20in> ;
    cosmos_sdtm:object "MKTESTCD" ;
    cosmos_sdtm:predicateTerm <https://www.cdisc.org/cosmos/sdtm_v1.0/PredicateTermEnum#IS_RESULT_OF> ;
    cosmos_sdtm:subject "MKSTRESC" .

<https://w3id.org/cdisc/cosmos/dss/MK/BMMTFLX/MKSTRESN/relationship> a cosmos_sdtm:RelationShip ;
    cosmos_sdtm:linkingPhrase <https://www.cdisc.org/cosmos/sdtm_v1.0/LinkingPhraseEnum#is%20the%20result%20of%20the%20test%20in> ;
    cosmos_sdtm:object "MKTESTCD" ;
    cosmos_sdtm:predicateTerm <https://www.cdisc.org/cosmos/sdtm_v1.0/PredicateTermEnum#IS_RESULT_OF> ;
    cosmos_sdtm:subject "MKSTRESN" .

<https://w3id.org/cdisc/cosmos/dss/MK/BMMTFLX/MKTEST/assignedTerm> a cosmos_sdtm:AssignedTerm ;
    cosmos_sdtm:conceptId NCIT:C139222 ;
    cosmos_sdtm:value "Brooke mMRC MMT Score, Flexion" .

<https://w3id.org/cdisc/cosmos/dss/MK/BMMTFLX/MKTEST/relationship> a cosmos_sdtm:RelationShip ;
    cosmos_sdtm:linkingPhrase <https://www.cdisc.org/cosmos/sdtm_v1.0/LinkingPhraseEnum#decodes%20the%20value%20in> ;
    cosmos_sdtm:object "MKTESTCD" ;
    cosmos_sdtm:predicateTerm <https://www.cdisc.org/cosmos/sdtm_v1.0/PredicateTermEnum#DECODES> ;
    cosmos_sdtm:subject "MKTEST" .

<https://w3id.org/cdisc/cosmos/dss/MK/BMMTFLX/MKTESTCD/assignedTerm> a cosmos_sdtm:AssignedTerm ;
    cosmos_sdtm:conceptId NCIT:C139222 ;
    cosmos_sdtm:value "BMMTFLX" .

<https://w3id.org/cdisc/cosmos/dss/MK/BMMTFLX/MKTESTCD/relationship> a cosmos_sdtm:RelationShip ;
    cosmos_sdtm:linkingPhrase <https://www.cdisc.org/cosmos/sdtm_v1.0/LinkingPhraseEnum#is%20the%20code%20for%20the%20value%20in> ;
    cosmos_sdtm:object "MKTEST" ;
    cosmos_sdtm:predicateTerm <https://www.cdisc.org/cosmos/sdtm_v1.0/PredicateTermEnum#IS_DECODED_BY> ;
    cosmos_sdtm:subject "MKTESTCD" .

<https://w3id.org/cdisc/cosmos/dss/MK/BMMTINV/MKDTC/relationship> a cosmos_sdtm:RelationShip ;
    cosmos_sdtm:linkingPhrase <https://www.cdisc.org/cosmos/sdtm_v1.0/LinkingPhraseEnum#is%20the%20date%20of%20occurrence%20for> ;
    cosmos_sdtm:object "MKTESTCD" ;
    cosmos_sdtm:predicateTerm <https://www.cdisc.org/cosmos/sdtm_v1.0/PredicateTermEnum#IS_TIMING_FOR> ;
    cosmos_sdtm:subject "MKDTC" .

<https://w3id.org/cdisc/cosmos/dss/MK/BMMTINV/MKLAT/relationship> a cosmos_sdtm:RelationShip ;
    cosmos_sdtm:linkingPhrase <https://www.cdisc.org/cosmos/sdtm_v1.0/LinkingPhraseEnum#further%20specifies%20the%20anatomical%20location%20in> ;
    cosmos_sdtm:object "MKLOC" ;
    cosmos_sdtm:predicateTerm <https://www.cdisc.org/cosmos/sdtm_v1.0/PredicateTermEnum#SPECIFIES> ;
    cosmos_sdtm:subject "MKLAT" .

<https://w3id.org/cdisc/cosmos/dss/MK/BMMTINV/MKLOC/relationship> a cosmos_sdtm:RelationShip ;
    cosmos_sdtm:linkingPhrase <https://www.cdisc.org/cosmos/sdtm_v1.0/LinkingPhraseEnum#specifies%20the%20anatomical%20location%20of%20the%20performance%20of%20the%20test%20in> ;
    cosmos_sdtm:object "MKTESTCD" ;
    cosmos_sdtm:predicateTerm <https://www.cdisc.org/cosmos/sdtm_v1.0/PredicateTermEnum#SPECIFIES> ;
    cosmos_sdtm:subject "MKLOC" .

<https://w3id.org/cdisc/cosmos/dss/MK/BMMTINV/MKORRES/relationship> a cosmos_sdtm:RelationShip ;
    cosmos_sdtm:linkingPhrase <https://www.cdisc.org/cosmos/sdtm_v1.0/LinkingPhraseEnum#is%20the%20result%20of%20the%20test%20in> ;
    cosmos_sdtm:object "MKTESTCD" ;
    cosmos_sdtm:predicateTerm <https://www.cdisc.org/cosmos/sdtm_v1.0/PredicateTermEnum#IS_RESULT_OF> ;
    cosmos_sdtm:subject "MKORRES" .

<https://w3id.org/cdisc/cosmos/dss/MK/BMMTINV/MKSTRESC/relationship> a cosmos_sdtm:RelationShip ;
    cosmos_sdtm:linkingPhrase <https://www.cdisc.org/cosmos/sdtm_v1.0/LinkingPhraseEnum#is%20the%20result%20of%20the%20test%20in> ;
    cosmos_sdtm:object "MKTESTCD" ;
    cosmos_sdtm:predicateTerm <https://www.cdisc.org/cosmos/sdtm_v1.0/PredicateTermEnum#IS_RESULT_OF> ;
    cosmos_sdtm:subject "MKSTRESC" .

<https://w3id.org/cdisc/cosmos/dss/MK/BMMTINV/MKSTRESN/relationship> a cosmos_sdtm:RelationShip ;
    cosmos_sdtm:linkingPhrase <https://www.cdisc.org/cosmos/sdtm_v1.0/LinkingPhraseEnum#is%20the%20result%20of%20the%20test%20in> ;
    cosmos_sdtm:object "MKTESTCD" ;
    cosmos_sdtm:predicateTerm <https://www.cdisc.org/cosmos/sdtm_v1.0/PredicateTermEnum#IS_RESULT_OF> ;
    cosmos_sdtm:subject "MKSTRESN" .

<https://w3id.org/cdisc/cosmos/dss/MK/BMMTINV/MKTEST/assignedTerm> a cosmos_sdtm:AssignedTerm ;
    cosmos_sdtm:conceptId NCIT:C139226 ;
    cosmos_sdtm:value "Brooke mMRC MMT Score, Inversion" .

<https://w3id.org/cdisc/cosmos/dss/MK/BMMTINV/MKTEST/relationship> a cosmos_sdtm:RelationShip ;
    cosmos_sdtm:linkingPhrase <https://www.cdisc.org/cosmos/sdtm_v1.0/LinkingPhraseEnum#decodes%20the%20value%20in> ;
    cosmos_sdtm:object "MKTESTCD" ;
    cosmos_sdtm:predicateTerm <https://www.cdisc.org/cosmos/sdtm_v1.0/PredicateTermEnum#DECODES> ;
    cosmos_sdtm:subject "MKTEST" .

<https://w3id.org/cdisc/cosmos/dss/MK/BMMTINV/MKTESTCD/assignedTerm> a cosmos_sdtm:AssignedTerm ;
    cosmos_sdtm:conceptId NCIT:C139226 ;
    cosmos_sdtm:value "BMMTINV" .

<https://w3id.org/cdisc/cosmos/dss/MK/BMMTINV/MKTESTCD/relationship> a cosmos_sdtm:RelationShip ;
    cosmos_sdtm:linkingPhrase <https://www.cdisc.org/cosmos/sdtm_v1.0/LinkingPhraseEnum#is%20the%20code%20for%20the%20value%20in> ;
    cosmos_sdtm:object "MKTEST" ;
    cosmos_sdtm:predicateTerm <https://www.cdisc.org/cosmos/sdtm_v1.0/PredicateTermEnum#IS_DECODED_BY> ;
    cosmos_sdtm:subject "MKTESTCD" .

<https://w3id.org/cdisc/cosmos/dss/MK/BMMTLR/MKDTC/relationship> a cosmos_sdtm:RelationShip ;
    cosmos_sdtm:linkingPhrase <https://www.cdisc.org/cosmos/sdtm_v1.0/LinkingPhraseEnum#is%20the%20date%20of%20occurrence%20for> ;
    cosmos_sdtm:object "MKTESTCD" ;
    cosmos_sdtm:predicateTerm <https://www.cdisc.org/cosmos/sdtm_v1.0/PredicateTermEnum#IS_TIMING_FOR> ;
    cosmos_sdtm:subject "MKDTC" .

<https://w3id.org/cdisc/cosmos/dss/MK/BMMTLR/MKLAT/relationship> a cosmos_sdtm:RelationShip ;
    cosmos_sdtm:linkingPhrase <https://www.cdisc.org/cosmos/sdtm_v1.0/LinkingPhraseEnum#further%20specifies%20the%20anatomical%20location%20in> ;
    cosmos_sdtm:object "MKLOC" ;
    cosmos_sdtm:predicateTerm <https://www.cdisc.org/cosmos/sdtm_v1.0/PredicateTermEnum#SPECIFIES> ;
    cosmos_sdtm:subject "MKLAT" .

<https://w3id.org/cdisc/cosmos/dss/MK/BMMTLR/MKLOC/relationship> a cosmos_sdtm:RelationShip ;
    cosmos_sdtm:linkingPhrase <https://www.cdisc.org/cosmos/sdtm_v1.0/LinkingPhraseEnum#specifies%20the%20anatomical%20location%20of%20the%20performance%20of%20the%20test%20in> ;
    cosmos_sdtm:object "MKTESTCD" ;
    cosmos_sdtm:predicateTerm <https://www.cdisc.org/cosmos/sdtm_v1.0/PredicateTermEnum#SPECIFIES> ;
    cosmos_sdtm:subject "MKLOC" .

<https://w3id.org/cdisc/cosmos/dss/MK/BMMTLR/MKORRES/relationship> a cosmos_sdtm:RelationShip ;
    cosmos_sdtm:linkingPhrase <https://www.cdisc.org/cosmos/sdtm_v1.0/LinkingPhraseEnum#is%20the%20result%20of%20the%20test%20in> ;
    cosmos_sdtm:object "MKTESTCD" ;
    cosmos_sdtm:predicateTerm <https://www.cdisc.org/cosmos/sdtm_v1.0/PredicateTermEnum#IS_RESULT_OF> ;
    cosmos_sdtm:subject "MKORRES" .

<https://w3id.org/cdisc/cosmos/dss/MK/BMMTLR/MKSTRESC/relationship> a cosmos_sdtm:RelationShip ;
    cosmos_sdtm:linkingPhrase <https://www.cdisc.org/cosmos/sdtm_v1.0/LinkingPhraseEnum#is%20the%20result%20of%20the%20test%20in> ;
    cosmos_sdtm:object "MKTESTCD" ;
    cosmos_sdtm:predicateTerm <https://www.cdisc.org/cosmos/sdtm_v1.0/PredicateTermEnum#IS_RESULT_OF> ;
    cosmos_sdtm:subject "MKSTRESC" .

<https://w3id.org/cdisc/cosmos/dss/MK/BMMTLR/MKSTRESN/relationship> a cosmos_sdtm:RelationShip ;
    cosmos_sdtm:linkingPhrase <https://www.cdisc.org/cosmos/sdtm_v1.0/LinkingPhraseEnum#is%20the%20result%20of%20the%20test%20in> ;
    cosmos_sdtm:object "MKTESTCD" ;
    cosmos_sdtm:predicateTerm <https://www.cdisc.org/cosmos/sdtm_v1.0/PredicateTermEnum#IS_RESULT_OF> ;
    cosmos_sdtm:subject "MKSTRESN" .

<https://w3id.org/cdisc/cosmos/dss/MK/BMMTLR/MKTEST/assignedTerm> a cosmos_sdtm:AssignedTerm ;
    cosmos_sdtm:conceptId NCIT:C139224 ;
    cosmos_sdtm:value "Brooke mMRC MMT Score, Lat. Rotat." .

<https://w3id.org/cdisc/cosmos/dss/MK/BMMTLR/MKTEST/relationship> a cosmos_sdtm:RelationShip ;
    cosmos_sdtm:linkingPhrase <https://www.cdisc.org/cosmos/sdtm_v1.0/LinkingPhraseEnum#decodes%20the%20value%20in> ;
    cosmos_sdtm:object "MKTESTCD" ;
    cosmos_sdtm:predicateTerm <https://www.cdisc.org/cosmos/sdtm_v1.0/PredicateTermEnum#DECODES> ;
    cosmos_sdtm:subject "MKTEST" .

<https://w3id.org/cdisc/cosmos/dss/MK/BMMTLR/MKTESTCD/assignedTerm> a cosmos_sdtm:AssignedTerm ;
    cosmos_sdtm:conceptId NCIT:C139224 ;
    cosmos_sdtm:value "BMMTLR" .

<https://w3id.org/cdisc/cosmos/dss/MK/BMMTLR/MKTESTCD/relationship> a cosmos_sdtm:RelationShip ;
    cosmos_sdtm:linkingPhrase <https://www.cdisc.org/cosmos/sdtm_v1.0/LinkingPhraseEnum#is%20the%20code%20for%20the%20value%20in> ;
    cosmos_sdtm:object "MKTEST" ;
    cosmos_sdtm:predicateTerm <https://www.cdisc.org/cosmos/sdtm_v1.0/PredicateTermEnum#IS_DECODED_BY> ;
    cosmos_sdtm:subject "MKTESTCD" .

<https://w3id.org/cdisc/cosmos/dss/MK/BMMTPF/MKDTC/relationship> a cosmos_sdtm:RelationShip ;
    cosmos_sdtm:linkingPhrase <https://www.cdisc.org/cosmos/sdtm_v1.0/LinkingPhraseEnum#is%20the%20date%20of%20occurrence%20for> ;
    cosmos_sdtm:object "MKTESTCD" ;
    cosmos_sdtm:predicateTerm <https://www.cdisc.org/cosmos/sdtm_v1.0/PredicateTermEnum#IS_TIMING_FOR> ;
    cosmos_sdtm:subject "MKDTC" .

<https://w3id.org/cdisc/cosmos/dss/MK/BMMTPF/MKLAT/relationship> a cosmos_sdtm:RelationShip ;
    cosmos_sdtm:linkingPhrase <https://www.cdisc.org/cosmos/sdtm_v1.0/LinkingPhraseEnum#further%20specifies%20the%20anatomical%20location%20in> ;
    cosmos_sdtm:object "MKLOC" ;
    cosmos_sdtm:predicateTerm <https://www.cdisc.org/cosmos/sdtm_v1.0/PredicateTermEnum#SPECIFIES> ;
    cosmos_sdtm:subject "MKLAT" .

<https://w3id.org/cdisc/cosmos/dss/MK/BMMTPF/MKLOC/relationship> a cosmos_sdtm:RelationShip ;
    cosmos_sdtm:linkingPhrase <https://www.cdisc.org/cosmos/sdtm_v1.0/LinkingPhraseEnum#specifies%20the%20anatomical%20location%20of%20the%20performance%20of%20the%20test%20in> ;
    cosmos_sdtm:object "MKTESTCD" ;
    cosmos_sdtm:predicateTerm <https://www.cdisc.org/cosmos/sdtm_v1.0/PredicateTermEnum#SPECIFIES> ;
    cosmos_sdtm:subject "MKLOC" .

<https://w3id.org/cdisc/cosmos/dss/MK/BMMTPF/MKORRES/relationship> a cosmos_sdtm:RelationShip ;
    cosmos_sdtm:linkingPhrase <https://www.cdisc.org/cosmos/sdtm_v1.0/LinkingPhraseEnum#is%20the%20result%20of%20the%20test%20in> ;
    cosmos_sdtm:object "MKTESTCD" ;
    cosmos_sdtm:predicateTerm <https://www.cdisc.org/cosmos/sdtm_v1.0/PredicateTermEnum#IS_RESULT_OF> ;
    cosmos_sdtm:subject "MKORRES" .

<https://w3id.org/cdisc/cosmos/dss/MK/BMMTPF/MKSTRESC/relationship> a cosmos_sdtm:RelationShip ;
    cosmos_sdtm:linkingPhrase <https://www.cdisc.org/cosmos/sdtm_v1.0/LinkingPhraseEnum#is%20the%20result%20of%20the%20test%20in> ;
    cosmos_sdtm:object "MKTESTCD" ;
    cosmos_sdtm:predicateTerm <https://www.cdisc.org/cosmos/sdtm_v1.0/PredicateTermEnum#IS_RESULT_OF> ;
    cosmos_sdtm:subject "MKSTRESC" .

<https://w3id.org/cdisc/cosmos/dss/MK/BMMTPF/MKSTRESN/relationship> a cosmos_sdtm:RelationShip ;
    cosmos_sdtm:linkingPhrase <https://www.cdisc.org/cosmos/sdtm_v1.0/LinkingPhraseEnum#is%20the%20result%20of%20the%20test%20in> ;
    cosmos_sdtm:object "MKTESTCD" ;
    cosmos_sdtm:predicateTerm <https://www.cdisc.org/cosmos/sdtm_v1.0/PredicateTermEnum#IS_RESULT_OF> ;
    cosmos_sdtm:subject "MKSTRESN" .

<https://w3id.org/cdisc/cosmos/dss/MK/BMMTPF/MKTEST/assignedTerm> a cosmos_sdtm:AssignedTerm ;
    cosmos_sdtm:conceptId NCIT:C139221 ;
    cosmos_sdtm:value "Brooke mMRC MMT Score, Plantar Flex" .

<https://w3id.org/cdisc/cosmos/dss/MK/BMMTPF/MKTEST/relationship> a cosmos_sdtm:RelationShip ;
    cosmos_sdtm:linkingPhrase <https://www.cdisc.org/cosmos/sdtm_v1.0/LinkingPhraseEnum#decodes%20the%20value%20in> ;
    cosmos_sdtm:object "MKTESTCD" ;
    cosmos_sdtm:predicateTerm <https://www.cdisc.org/cosmos/sdtm_v1.0/PredicateTermEnum#DECODES> ;
    cosmos_sdtm:subject "MKTEST" .

<https://w3id.org/cdisc/cosmos/dss/MK/BMMTPF/MKTESTCD/assignedTerm> a cosmos_sdtm:AssignedTerm ;
    cosmos_sdtm:conceptId NCIT:C139221 ;
    cosmos_sdtm:value "BMMTPF" .

<https://w3id.org/cdisc/cosmos/dss/MK/BMMTPF/MKTESTCD/relationship> a cosmos_sdtm:RelationShip ;
    cosmos_sdtm:linkingPhrase <https://www.cdisc.org/cosmos/sdtm_v1.0/LinkingPhraseEnum#is%20the%20code%20for%20the%20value%20in> ;
    cosmos_sdtm:object "MKTEST" ;
    cosmos_sdtm:predicateTerm <https://www.cdisc.org/cosmos/sdtm_v1.0/PredicateTermEnum#IS_DECODED_BY> ;
    cosmos_sdtm:subject "MKTESTCD" .

<https://w3id.org/cdisc/cosmos/dss/MK/BODYFATP/MKDTC/relationship> a cosmos_sdtm:RelationShip ;
    cosmos_sdtm:linkingPhrase <https://www.cdisc.org/cosmos/sdtm_v1.0/LinkingPhraseEnum#is%20the%20date%20of%20occurrence%20for> ;
    cosmos_sdtm:object "MKTESTCD" ;
    cosmos_sdtm:predicateTerm <https://www.cdisc.org/cosmos/sdtm_v1.0/PredicateTermEnum#IS_TIMING_FOR> ;
    cosmos_sdtm:subject "MKDTC" .

<https://w3id.org/cdisc/cosmos/dss/MK/BODYFATP/MKMETHOD/relationship> a cosmos_sdtm:RelationShip ;
    cosmos_sdtm:linkingPhrase <https://www.cdisc.org/cosmos/sdtm_v1.0/LinkingPhraseEnum#is%20the%20method%20for%20the%20test%20in> ;
    cosmos_sdtm:object "MKTESTCD" ;
    cosmos_sdtm:predicateTerm <https://www.cdisc.org/cosmos/sdtm_v1.0/PredicateTermEnum#SPECIFIES> ;
    cosmos_sdtm:subject "MKMETHOD" .

<https://w3id.org/cdisc/cosmos/dss/MK/BODYFATP/MKORRES/relationship> a cosmos_sdtm:RelationShip ;
    cosmos_sdtm:linkingPhrase <https://www.cdisc.org/cosmos/sdtm_v1.0/LinkingPhraseEnum#is%20the%20result%20of%20the%20test%20in> ;
    cosmos_sdtm:object "MKTESTCD" ;
    cosmos_sdtm:predicateTerm <https://www.cdisc.org/cosmos/sdtm_v1.0/PredicateTermEnum#IS_RESULT_OF> ;
    cosmos_sdtm:subject "MKORRES" .

<https://w3id.org/cdisc/cosmos/dss/MK/BODYFATP/MKORRESU/assignedTerm> a cosmos_sdtm:AssignedTerm ;
    cosmos_sdtm:conceptId NCIT:C25613 ;
    cosmos_sdtm:value "%" .

<https://w3id.org/cdisc/cosmos/dss/MK/BODYFATP/MKORRESU/relationship> a cosmos_sdtm:RelationShip ;
    cosmos_sdtm:linkingPhrase <https://www.cdisc.org/cosmos/sdtm_v1.0/LinkingPhraseEnum#is%20the%20unit%20for%20the%20value%20in> ;
    cosmos_sdtm:object "MKORRES" ;
    cosmos_sdtm:predicateTerm <https://www.cdisc.org/cosmos/sdtm_v1.0/PredicateTermEnum#IS_UNIT_FOR> ;
    cosmos_sdtm:subject "MKORRESU" .

<https://w3id.org/cdisc/cosmos/dss/MK/BODYFATP/MKSTRESC/relationship> a cosmos_sdtm:RelationShip ;
    cosmos_sdtm:linkingPhrase <https://www.cdisc.org/cosmos/sdtm_v1.0/LinkingPhraseEnum#is%20the%20result%20of%20the%20test%20in> ;
    cosmos_sdtm:object "MKTESTCD" ;
    cosmos_sdtm:predicateTerm <https://www.cdisc.org/cosmos/sdtm_v1.0/PredicateTermEnum#IS_RESULT_OF> ;
    cosmos_sdtm:subject "MKSTRESC" .

<https://w3id.org/cdisc/cosmos/dss/MK/BODYFATP/MKSTRESN/relationship> a cosmos_sdtm:RelationShip ;
    cosmos_sdtm:linkingPhrase <https://www.cdisc.org/cosmos/sdtm_v1.0/LinkingPhraseEnum#is%20the%20result%20of%20the%20test%20in> ;
    cosmos_sdtm:object "MKTESTCD" ;
    cosmos_sdtm:predicateTerm <https://www.cdisc.org/cosmos/sdtm_v1.0/PredicateTermEnum#IS_RESULT_OF> ;
    cosmos_sdtm:subject "MKSTRESN" .

<https://w3id.org/cdisc/cosmos/dss/MK/BODYFATP/MKSTRESU/assignedTerm> a cosmos_sdtm:AssignedTerm ;
    cosmos_sdtm:conceptId NCIT:C25613 ;
    cosmos_sdtm:value "%" .

<https://w3id.org/cdisc/cosmos/dss/MK/BODYFATP/MKSTRESU/relationship> a cosmos_sdtm:RelationShip ;
    cosmos_sdtm:linkingPhrase <https://www.cdisc.org/cosmos/sdtm_v1.0/LinkingPhraseEnum#is%20the%20unit%20for%20the%20value%20in> ;
    cosmos_sdtm:object "MKSTRESN" ;
    cosmos_sdtm:predicateTerm <https://www.cdisc.org/cosmos/sdtm_v1.0/PredicateTermEnum#IS_UNIT_FOR> ;
    cosmos_sdtm:subject "MKSTRESU" .

<https://w3id.org/cdisc/cosmos/dss/MK/BODYFATP/MKTEST/assignedTerm> a cosmos_sdtm:AssignedTerm ;
    cosmos_sdtm:conceptId NCIT:C139218 ;
    cosmos_sdtm:value "Total Body Fat/Total Body Mass" .

<https://w3id.org/cdisc/cosmos/dss/MK/BODYFATP/MKTEST/relationship> a cosmos_sdtm:RelationShip ;
    cosmos_sdtm:linkingPhrase <https://www.cdisc.org/cosmos/sdtm_v1.0/LinkingPhraseEnum#decodes%20the%20value%20in> ;
    cosmos_sdtm:object "MKTESTCD" ;
    cosmos_sdtm:predicateTerm <https://www.cdisc.org/cosmos/sdtm_v1.0/PredicateTermEnum#DECODES> ;
    cosmos_sdtm:subject "MKTEST" .

<https://w3id.org/cdisc/cosmos/dss/MK/BODYFATP/MKTESTCD/assignedTerm> a cosmos_sdtm:AssignedTerm ;
    cosmos_sdtm:conceptId NCIT:C139218 ;
    cosmos_sdtm:value "BODYFATP" .

<https://w3id.org/cdisc/cosmos/dss/MK/BODYFATP/MKTESTCD/relationship> a cosmos_sdtm:RelationShip ;
    cosmos_sdtm:linkingPhrase <https://www.cdisc.org/cosmos/sdtm_v1.0/LinkingPhraseEnum#is%20the%20code%20for%20the%20value%20in> ;
    cosmos_sdtm:object "MKTEST" ;
    cosmos_sdtm:predicateTerm <https://www.cdisc.org/cosmos/sdtm_v1.0/PredicateTermEnum#IS_DECODED_BY> ;
    cosmos_sdtm:subject "MKTESTCD" .

<https://w3id.org/cdisc/cosmos/dss/MK/ENDURM/MKDTC/relationship> a cosmos_sdtm:RelationShip ;
    cosmos_sdtm:linkingPhrase <https://www.cdisc.org/cosmos/sdtm_v1.0/LinkingPhraseEnum#is%20the%20date%20of%20occurrence%20for> ;
    cosmos_sdtm:object "MKTESTCD" ;
    cosmos_sdtm:predicateTerm <https://www.cdisc.org/cosmos/sdtm_v1.0/PredicateTermEnum#IS_TIMING_FOR> ;
    cosmos_sdtm:subject "MKDTC" .

<https://w3id.org/cdisc/cosmos/dss/MK/ENDURM/MKLAT/relationship> a cosmos_sdtm:RelationShip ;
    cosmos_sdtm:linkingPhrase <https://www.cdisc.org/cosmos/sdtm_v1.0/LinkingPhraseEnum#further%20specifies%20the%20anatomical%20location%20in> ;
    cosmos_sdtm:object "MKLOC" ;
    cosmos_sdtm:predicateTerm <https://www.cdisc.org/cosmos/sdtm_v1.0/PredicateTermEnum#SPECIFIES> ;
    cosmos_sdtm:subject "MKLAT" .

<https://w3id.org/cdisc/cosmos/dss/MK/ENDURM/MKLOC/relationship> a cosmos_sdtm:RelationShip ;
    cosmos_sdtm:linkingPhrase <https://www.cdisc.org/cosmos/sdtm_v1.0/LinkingPhraseEnum#specifies%20the%20anatomical%20location%20of%20the%20performance%20of%20the%20test%20in> ;
    cosmos_sdtm:object "MKTESTCD" ;
    cosmos_sdtm:predicateTerm <https://www.cdisc.org/cosmos/sdtm_v1.0/PredicateTermEnum#SPECIFIES> ;
    cosmos_sdtm:subject "MKLOC" .

<https://w3id.org/cdisc/cosmos/dss/MK/ENDURM/MKMETHOD/relationship> a cosmos_sdtm:RelationShip ;
    cosmos_sdtm:linkingPhrase <https://www.cdisc.org/cosmos/sdtm_v1.0/LinkingPhraseEnum#is%20the%20method%20for%20the%20test%20in> ;
    cosmos_sdtm:object "MKTESTCD" ;
    cosmos_sdtm:predicateTerm <https://www.cdisc.org/cosmos/sdtm_v1.0/PredicateTermEnum#SPECIFIES> ;
    cosmos_sdtm:subject "MKMETHOD" .

<https://w3id.org/cdisc/cosmos/dss/MK/ENDURM/MKORRES/relationship> a cosmos_sdtm:RelationShip ;
    cosmos_sdtm:linkingPhrase <https://www.cdisc.org/cosmos/sdtm_v1.0/LinkingPhraseEnum#is%20the%20result%20of%20the%20test%20in> ;
    cosmos_sdtm:object "MKTESTCD" ;
    cosmos_sdtm:predicateTerm <https://www.cdisc.org/cosmos/sdtm_v1.0/PredicateTermEnum#IS_RESULT_OF> ;
    cosmos_sdtm:subject "MKORRES" .

<https://w3id.org/cdisc/cosmos/dss/MK/ENDURM/MKORRESU/assignedTerm> a cosmos_sdtm:AssignedTerm ;
    cosmos_sdtm:conceptId NCIT:C42535 ;
    cosmos_sdtm:value "s" .

<https://w3id.org/cdisc/cosmos/dss/MK/ENDURM/MKORRESU/relationship> a cosmos_sdtm:RelationShip ;
    cosmos_sdtm:linkingPhrase <https://www.cdisc.org/cosmos/sdtm_v1.0/LinkingPhraseEnum#is%20the%20unit%20for%20the%20value%20in> ;
    cosmos_sdtm:object "MKORRES" ;
    cosmos_sdtm:predicateTerm <https://www.cdisc.org/cosmos/sdtm_v1.0/PredicateTermEnum#IS_UNIT_FOR> ;
    cosmos_sdtm:subject "MKORRESU" .

<https://w3id.org/cdisc/cosmos/dss/MK/ENDURM/MKSTRESC/relationship> a cosmos_sdtm:RelationShip ;
    cosmos_sdtm:linkingPhrase <https://www.cdisc.org/cosmos/sdtm_v1.0/LinkingPhraseEnum#is%20the%20result%20of%20the%20test%20in> ;
    cosmos_sdtm:object "MKTESTCD" ;
    cosmos_sdtm:predicateTerm <https://www.cdisc.org/cosmos/sdtm_v1.0/PredicateTermEnum#IS_RESULT_OF> ;
    cosmos_sdtm:subject "MKSTRESC" .

<https://w3id.org/cdisc/cosmos/dss/MK/ENDURM/MKSTRESN/relationship> a cosmos_sdtm:RelationShip ;
    cosmos_sdtm:linkingPhrase <https://www.cdisc.org/cosmos/sdtm_v1.0/LinkingPhraseEnum#is%20the%20result%20of%20the%20test%20in> ;
    cosmos_sdtm:object "MKTESTCD" ;
    cosmos_sdtm:predicateTerm <https://www.cdisc.org/cosmos/sdtm_v1.0/PredicateTermEnum#IS_RESULT_OF> ;
    cosmos_sdtm:subject "MKSTRESN" .

<https://w3id.org/cdisc/cosmos/dss/MK/ENDURM/MKSTRESU/assignedTerm> a cosmos_sdtm:AssignedTerm ;
    cosmos_sdtm:conceptId NCIT:C42535 ;
    cosmos_sdtm:value "s" .

<https://w3id.org/cdisc/cosmos/dss/MK/ENDURM/MKSTRESU/relationship> a cosmos_sdtm:RelationShip ;
    cosmos_sdtm:linkingPhrase <https://www.cdisc.org/cosmos/sdtm_v1.0/LinkingPhraseEnum#is%20the%20unit%20for%20the%20value%20in> ;
    cosmos_sdtm:object "MKSTRESN" ;
    cosmos_sdtm:predicateTerm <https://www.cdisc.org/cosmos/sdtm_v1.0/PredicateTermEnum#IS_UNIT_FOR> ;
    cosmos_sdtm:subject "MKSTRESU" .

<https://w3id.org/cdisc/cosmos/dss/MK/ENDURM/MKTEST/assignedTerm> a cosmos_sdtm:AssignedTerm ;
    cosmos_sdtm:conceptId NCIT:C181501 ;
    cosmos_sdtm:value "Muscle Endurance" .

<https://w3id.org/cdisc/cosmos/dss/MK/ENDURM/MKTEST/relationship> a cosmos_sdtm:RelationShip ;
    cosmos_sdtm:linkingPhrase <https://www.cdisc.org/cosmos/sdtm_v1.0/LinkingPhraseEnum#decodes%20the%20value%20in> ;
    cosmos_sdtm:object "MKTESTCD" ;
    cosmos_sdtm:predicateTerm <https://www.cdisc.org/cosmos/sdtm_v1.0/PredicateTermEnum#DECODES> ;
    cosmos_sdtm:subject "MKTEST" .

<https://w3id.org/cdisc/cosmos/dss/MK/ENDURM/MKTESTCD/assignedTerm> a cosmos_sdtm:AssignedTerm ;
    cosmos_sdtm:conceptId NCIT:C181501 ;
    cosmos_sdtm:value "ENDURM" .

<https://w3id.org/cdisc/cosmos/dss/MK/ENDURM/MKTESTCD/relationship> a cosmos_sdtm:RelationShip ;
    cosmos_sdtm:linkingPhrase <https://www.cdisc.org/cosmos/sdtm_v1.0/LinkingPhraseEnum#is%20the%20code%20for%20the%20value%20in> ;
    cosmos_sdtm:object "MKTEST" ;
    cosmos_sdtm:predicateTerm <https://www.cdisc.org/cosmos/sdtm_v1.0/PredicateTermEnum#IS_DECODED_BY> ;
    cosmos_sdtm:subject "MKTESTCD" .

<https://w3id.org/cdisc/cosmos/dss/MK/FATMASS/MKDTC/relationship> a cosmos_sdtm:RelationShip ;
    cosmos_sdtm:linkingPhrase <https://www.cdisc.org/cosmos/sdtm_v1.0/LinkingPhraseEnum#is%20the%20date%20of%20occurrence%20for> ;
    cosmos_sdtm:object "MKTESTCD" ;
    cosmos_sdtm:predicateTerm <https://www.cdisc.org/cosmos/sdtm_v1.0/PredicateTermEnum#IS_TIMING_FOR> ;
    cosmos_sdtm:subject "MKDTC" .

<https://w3id.org/cdisc/cosmos/dss/MK/FATMASS/MKLAT/relationship> a cosmos_sdtm:RelationShip ;
    cosmos_sdtm:linkingPhrase <https://www.cdisc.org/cosmos/sdtm_v1.0/LinkingPhraseEnum#further%20specifies%20the%20anatomical%20location%20in> ;
    cosmos_sdtm:object "MKLOC" ;
    cosmos_sdtm:predicateTerm <https://www.cdisc.org/cosmos/sdtm_v1.0/PredicateTermEnum#SPECIFIES> ;
    cosmos_sdtm:subject "MKLAT" .

<https://w3id.org/cdisc/cosmos/dss/MK/FATMASS/MKLOC/relationship> a cosmos_sdtm:RelationShip ;
    cosmos_sdtm:linkingPhrase <https://www.cdisc.org/cosmos/sdtm_v1.0/LinkingPhraseEnum#specifies%20the%20anatomical%20location%20of%20the%20performance%20of%20the%20test%20in> ;
    cosmos_sdtm:object "MKTESTCD" ;
    cosmos_sdtm:predicateTerm <https://www.cdisc.org/cosmos/sdtm_v1.0/PredicateTermEnum#SPECIFIES> ;
    cosmos_sdtm:subject "MKLOC" .

<https://w3id.org/cdisc/cosmos/dss/MK/FATMASS/MKMETHOD/relationship> a cosmos_sdtm:RelationShip ;
    cosmos_sdtm:linkingPhrase <https://www.cdisc.org/cosmos/sdtm_v1.0/LinkingPhraseEnum#is%20the%20method%20for%20the%20test%20in> ;
    cosmos_sdtm:object "MKTESTCD" ;
    cosmos_sdtm:predicateTerm <https://www.cdisc.org/cosmos/sdtm_v1.0/PredicateTermEnum#SPECIFIES> ;
    cosmos_sdtm:subject "MKMETHOD" .

<https://w3id.org/cdisc/cosmos/dss/MK/FATMASS/MKORRES/relationship> a cosmos_sdtm:RelationShip ;
    cosmos_sdtm:linkingPhrase <https://www.cdisc.org/cosmos/sdtm_v1.0/LinkingPhraseEnum#is%20the%20result%20of%20the%20test%20in> ;
    cosmos_sdtm:object "MKTESTCD" ;
    cosmos_sdtm:predicateTerm <https://www.cdisc.org/cosmos/sdtm_v1.0/PredicateTermEnum#IS_RESULT_OF> ;
    cosmos_sdtm:subject "MKORRES" .

<https://w3id.org/cdisc/cosmos/dss/MK/FATMASS/MKORRESU/relationship> a cosmos_sdtm:RelationShip ;
    cosmos_sdtm:linkingPhrase <https://www.cdisc.org/cosmos/sdtm_v1.0/LinkingPhraseEnum#is%20the%20unit%20for%20the%20value%20in> ;
    cosmos_sdtm:object "MKORRES" ;
    cosmos_sdtm:predicateTerm <https://www.cdisc.org/cosmos/sdtm_v1.0/PredicateTermEnum#IS_UNIT_FOR> ;
    cosmos_sdtm:subject "MKORRESU" .

<https://w3id.org/cdisc/cosmos/dss/MK/FATMASS/MKSTRESC/relationship> a cosmos_sdtm:RelationShip ;
    cosmos_sdtm:linkingPhrase <https://www.cdisc.org/cosmos/sdtm_v1.0/LinkingPhraseEnum#is%20the%20result%20of%20the%20test%20in> ;
    cosmos_sdtm:object "MKTESTCD" ;
    cosmos_sdtm:predicateTerm <https://www.cdisc.org/cosmos/sdtm_v1.0/PredicateTermEnum#IS_RESULT_OF> ;
    cosmos_sdtm:subject "MKSTRESC" .

<https://w3id.org/cdisc/cosmos/dss/MK/FATMASS/MKSTRESN/relationship> a cosmos_sdtm:RelationShip ;
    cosmos_sdtm:linkingPhrase <https://www.cdisc.org/cosmos/sdtm_v1.0/LinkingPhraseEnum#is%20the%20result%20of%20the%20test%20in> ;
    cosmos_sdtm:object "MKTESTCD" ;
    cosmos_sdtm:predicateTerm <https://www.cdisc.org/cosmos/sdtm_v1.0/PredicateTermEnum#IS_RESULT_OF> ;
    cosmos_sdtm:subject "MKSTRESN" .

<https://w3id.org/cdisc/cosmos/dss/MK/FATMASS/MKSTRESU/assignedTerm> a cosmos_sdtm:AssignedTerm ;
    cosmos_sdtm:conceptId NCIT:C28252 ;
    cosmos_sdtm:value "kg" .

<https://w3id.org/cdisc/cosmos/dss/MK/FATMASS/MKSTRESU/relationship> a cosmos_sdtm:RelationShip ;
    cosmos_sdtm:linkingPhrase <https://www.cdisc.org/cosmos/sdtm_v1.0/LinkingPhraseEnum#is%20the%20unit%20for%20the%20value%20in> ;
    cosmos_sdtm:object "MKSTRESN" ;
    cosmos_sdtm:predicateTerm <https://www.cdisc.org/cosmos/sdtm_v1.0/PredicateTermEnum#IS_UNIT_FOR> ;
    cosmos_sdtm:subject "MKSTRESU" .

<https://w3id.org/cdisc/cosmos/dss/MK/FATMASS/MKTEST/assignedTerm> a cosmos_sdtm:AssignedTerm ;
    cosmos_sdtm:conceptId NCIT:C158256 ;
    cosmos_sdtm:value "Fat Mass" .

<https://w3id.org/cdisc/cosmos/dss/MK/FATMASS/MKTEST/relationship> a cosmos_sdtm:RelationShip ;
    cosmos_sdtm:linkingPhrase <https://www.cdisc.org/cosmos/sdtm_v1.0/LinkingPhraseEnum#decodes%20the%20value%20in> ;
    cosmos_sdtm:object "MKTESTCD" ;
    cosmos_sdtm:predicateTerm <https://www.cdisc.org/cosmos/sdtm_v1.0/PredicateTermEnum#DECODES> ;
    cosmos_sdtm:subject "MKTEST" .

<https://w3id.org/cdisc/cosmos/dss/MK/FATMASS/MKTESTCD/assignedTerm> a cosmos_sdtm:AssignedTerm ;
    cosmos_sdtm:conceptId NCIT:C158256 ;
    cosmos_sdtm:value "FATMASS" .

<https://w3id.org/cdisc/cosmos/dss/MK/FATMASS/MKTESTCD/relationship> a cosmos_sdtm:RelationShip ;
    cosmos_sdtm:linkingPhrase <https://www.cdisc.org/cosmos/sdtm_v1.0/LinkingPhraseEnum#is%20the%20code%20for%20the%20value%20in> ;
    cosmos_sdtm:object "MKTEST" ;
    cosmos_sdtm:predicateTerm <https://www.cdisc.org/cosmos/sdtm_v1.0/PredicateTermEnum#IS_DECODED_BY> ;
    cosmos_sdtm:subject "MKTESTCD" .

<https://w3id.org/cdisc/cosmos/dss/MK/FOCLOIND/MKDTC/relationship> a cosmos_sdtm:RelationShip ;
    cosmos_sdtm:linkingPhrase <https://www.cdisc.org/cosmos/sdtm_v1.0/LinkingPhraseEnum#is%20the%20date%20of%20occurrence%20for> ;
    cosmos_sdtm:object "MKTESTCD" ;
    cosmos_sdtm:predicateTerm <https://www.cdisc.org/cosmos/sdtm_v1.0/PredicateTermEnum#IS_TIMING_FOR> ;
    cosmos_sdtm:subject "MKDTC" .

<https://w3id.org/cdisc/cosmos/dss/MK/FOCLOIND/MKLOC/assignedTerm> a cosmos_sdtm:AssignedTerm ;
    cosmos_sdtm:conceptId NCIT:C32621 ;
    cosmos_sdtm:value "FONTANELLE" .

<https://w3id.org/cdisc/cosmos/dss/MK/FOCLOIND/MKLOC/relationship> a cosmos_sdtm:RelationShip ;
    cosmos_sdtm:linkingPhrase <https://www.cdisc.org/cosmos/sdtm_v1.0/LinkingPhraseEnum#specifies%20the%20anatomical%20location%20of%20the%20performance%20of%20the%20test%20in> ;
    cosmos_sdtm:object "MKTESTCD" ;
    cosmos_sdtm:predicateTerm <https://www.cdisc.org/cosmos/sdtm_v1.0/PredicateTermEnum#SPECIFIES> ;
    cosmos_sdtm:subject "MKLOC" .

<https://w3id.org/cdisc/cosmos/dss/MK/FOCLOIND/MKORRES/relationship> a cosmos_sdtm:RelationShip ;
    cosmos_sdtm:linkingPhrase <https://www.cdisc.org/cosmos/sdtm_v1.0/LinkingPhraseEnum#is%20the%20result%20of%20the%20test%20in> ;
    cosmos_sdtm:object "MKTESTCD" ;
    cosmos_sdtm:predicateTerm <https://www.cdisc.org/cosmos/sdtm_v1.0/PredicateTermEnum#IS_RESULT_OF> ;
    cosmos_sdtm:subject "MKORRES" .

<https://w3id.org/cdisc/cosmos/dss/MK/FOCLOIND/MKSTRESC/relationship> a cosmos_sdtm:RelationShip ;
    cosmos_sdtm:linkingPhrase <https://www.cdisc.org/cosmos/sdtm_v1.0/LinkingPhraseEnum#is%20the%20result%20of%20the%20test%20in> ;
    cosmos_sdtm:object "MKTESTCD" ;
    cosmos_sdtm:predicateTerm <https://www.cdisc.org/cosmos/sdtm_v1.0/PredicateTermEnum#IS_RESULT_OF> ;
    cosmos_sdtm:subject "MKSTRESC" .

<https://w3id.org/cdisc/cosmos/dss/MK/FOCLOIND/MKTEST/assignedTerm> a cosmos_sdtm:AssignedTerm ;
    cosmos_sdtm:conceptId NCIT:C154909 ;
    cosmos_sdtm:value "Fontanelle Closure Indicator" .

<https://w3id.org/cdisc/cosmos/dss/MK/FOCLOIND/MKTEST/relationship> a cosmos_sdtm:RelationShip ;
    cosmos_sdtm:linkingPhrase <https://www.cdisc.org/cosmos/sdtm_v1.0/LinkingPhraseEnum#decodes%20the%20value%20in> ;
    cosmos_sdtm:object "MKTESTCD" ;
    cosmos_sdtm:predicateTerm <https://www.cdisc.org/cosmos/sdtm_v1.0/PredicateTermEnum#DECODES> ;
    cosmos_sdtm:subject "MKTEST" .

<https://w3id.org/cdisc/cosmos/dss/MK/FOCLOIND/MKTESTCD/assignedTerm> a cosmos_sdtm:AssignedTerm ;
    cosmos_sdtm:conceptId NCIT:C154909 ;
    cosmos_sdtm:value "FOCLOIND" .

<https://w3id.org/cdisc/cosmos/dss/MK/FOCLOIND/MKTESTCD/relationship> a cosmos_sdtm:RelationShip ;
    cosmos_sdtm:linkingPhrase <https://www.cdisc.org/cosmos/sdtm_v1.0/LinkingPhraseEnum#is%20the%20code%20for%20the%20value%20in> ;
    cosmos_sdtm:object "MKTEST" ;
    cosmos_sdtm:predicateTerm <https://www.cdisc.org/cosmos/sdtm_v1.0/PredicateTermEnum#IS_DECODED_BY> ;
    cosmos_sdtm:subject "MKTESTCD" .

<https://w3id.org/cdisc/cosmos/dss/MK/GPBAEST/MKDTC/relationship> a cosmos_sdtm:RelationShip ;
    cosmos_sdtm:linkingPhrase <https://www.cdisc.org/cosmos/sdtm_v1.0/LinkingPhraseEnum#is%20the%20date%20of%20occurrence%20for> ;
    cosmos_sdtm:object "MKTESTCD" ;
    cosmos_sdtm:predicateTerm <https://www.cdisc.org/cosmos/sdtm_v1.0/PredicateTermEnum#IS_TIMING_FOR> ;
    cosmos_sdtm:subject "MKDTC" .

<https://w3id.org/cdisc/cosmos/dss/MK/GPBAEST/MKLAT/relationship> a cosmos_sdtm:RelationShip ;
    cosmos_sdtm:linkingPhrase <https://www.cdisc.org/cosmos/sdtm_v1.0/LinkingPhraseEnum#further%20specifies%20the%20anatomical%20location%20in> ;
    cosmos_sdtm:object "MKLOC" ;
    cosmos_sdtm:predicateTerm <https://www.cdisc.org/cosmos/sdtm_v1.0/PredicateTermEnum#SPECIFIES> ;
    cosmos_sdtm:subject "MKLAT" .

<https://w3id.org/cdisc/cosmos/dss/MK/GPBAEST/MKLOC/relationship> a cosmos_sdtm:RelationShip ;
    cosmos_sdtm:linkingPhrase <https://www.cdisc.org/cosmos/sdtm_v1.0/LinkingPhraseEnum#specifies%20the%20anatomical%20location%20of%20the%20performance%20of%20the%20test%20in> ;
    cosmos_sdtm:object "MKTESTCD" ;
    cosmos_sdtm:predicateTerm <https://www.cdisc.org/cosmos/sdtm_v1.0/PredicateTermEnum#SPECIFIES> ;
    cosmos_sdtm:subject "MKLOC" .

<https://w3id.org/cdisc/cosmos/dss/MK/GPBAEST/MKMETHOD/relationship> a cosmos_sdtm:RelationShip ;
    cosmos_sdtm:linkingPhrase <https://www.cdisc.org/cosmos/sdtm_v1.0/LinkingPhraseEnum#is%20the%20method%20for%20the%20test%20in> ;
    cosmos_sdtm:object "MKTESTCD" ;
    cosmos_sdtm:predicateTerm <https://www.cdisc.org/cosmos/sdtm_v1.0/PredicateTermEnum#SPECIFIES> ;
    cosmos_sdtm:subject "MKMETHOD" .

<https://w3id.org/cdisc/cosmos/dss/MK/GPBAEST/MKORRES/relationship> a cosmos_sdtm:RelationShip ;
    cosmos_sdtm:linkingPhrase <https://www.cdisc.org/cosmos/sdtm_v1.0/LinkingPhraseEnum#is%20the%20result%20of%20the%20test%20in> ;
    cosmos_sdtm:object "MKTESTCD" ;
    cosmos_sdtm:predicateTerm <https://www.cdisc.org/cosmos/sdtm_v1.0/PredicateTermEnum#IS_RESULT_OF> ;
    cosmos_sdtm:subject "MKORRES" .

<https://w3id.org/cdisc/cosmos/dss/MK/GPBAEST/MKORRESU/relationship> a cosmos_sdtm:RelationShip ;
    cosmos_sdtm:linkingPhrase <https://www.cdisc.org/cosmos/sdtm_v1.0/LinkingPhraseEnum#is%20the%20unit%20for%20the%20value%20in> ;
    cosmos_sdtm:object "MKORRES" ;
    cosmos_sdtm:predicateTerm <https://www.cdisc.org/cosmos/sdtm_v1.0/PredicateTermEnum#IS_UNIT_FOR> ;
    cosmos_sdtm:subject "MKORRESU" .

<https://w3id.org/cdisc/cosmos/dss/MK/GPBAEST/MKSTRESC/relationship> a cosmos_sdtm:RelationShip ;
    cosmos_sdtm:linkingPhrase <https://www.cdisc.org/cosmos/sdtm_v1.0/LinkingPhraseEnum#is%20the%20result%20of%20the%20test%20in> ;
    cosmos_sdtm:object "MKTESTCD" ;
    cosmos_sdtm:predicateTerm <https://www.cdisc.org/cosmos/sdtm_v1.0/PredicateTermEnum#IS_RESULT_OF> ;
    cosmos_sdtm:subject "MKSTRESC" .

<https://w3id.org/cdisc/cosmos/dss/MK/GPBAEST/MKSTRESN/relationship> a cosmos_sdtm:RelationShip ;
    cosmos_sdtm:linkingPhrase <https://www.cdisc.org/cosmos/sdtm_v1.0/LinkingPhraseEnum#is%20the%20result%20of%20the%20test%20in> ;
    cosmos_sdtm:object "MKTESTCD" ;
    cosmos_sdtm:predicateTerm <https://www.cdisc.org/cosmos/sdtm_v1.0/PredicateTermEnum#IS_RESULT_OF> ;
    cosmos_sdtm:subject "MKSTRESN" .

<https://w3id.org/cdisc/cosmos/dss/MK/GPBAEST/MKSTRESU/relationship> a cosmos_sdtm:RelationShip ;
    cosmos_sdtm:linkingPhrase <https://www.cdisc.org/cosmos/sdtm_v1.0/LinkingPhraseEnum#is%20the%20unit%20for%20the%20value%20in> ;
    cosmos_sdtm:object "MKSTRESN" ;
    cosmos_sdtm:predicateTerm <https://www.cdisc.org/cosmos/sdtm_v1.0/PredicateTermEnum#IS_UNIT_FOR> ;
    cosmos_sdtm:subject "MKSTRESU" .

<https://w3id.org/cdisc/cosmos/dss/MK/GPBAEST/MKTEST/assignedTerm> a cosmos_sdtm:AssignedTerm ;
    cosmos_sdtm:conceptId NCIT:C181502 ;
    cosmos_sdtm:value "Greulich and Pyle Bone Age Estimation" .

<https://w3id.org/cdisc/cosmos/dss/MK/GPBAEST/MKTEST/relationship> a cosmos_sdtm:RelationShip ;
    cosmos_sdtm:linkingPhrase <https://www.cdisc.org/cosmos/sdtm_v1.0/LinkingPhraseEnum#decodes%20the%20value%20in> ;
    cosmos_sdtm:object "MKTESTCD" ;
    cosmos_sdtm:predicateTerm <https://www.cdisc.org/cosmos/sdtm_v1.0/PredicateTermEnum#DECODES> ;
    cosmos_sdtm:subject "MKTEST" .

<https://w3id.org/cdisc/cosmos/dss/MK/GPBAEST/MKTESTCD/assignedTerm> a cosmos_sdtm:AssignedTerm ;
    cosmos_sdtm:conceptId NCIT:C181502 ;
    cosmos_sdtm:value "GPBAEST" .

<https://w3id.org/cdisc/cosmos/dss/MK/GPBAEST/MKTESTCD/relationship> a cosmos_sdtm:RelationShip ;
    cosmos_sdtm:linkingPhrase <https://www.cdisc.org/cosmos/sdtm_v1.0/LinkingPhraseEnum#is%20the%20code%20for%20the%20value%20in> ;
    cosmos_sdtm:object "MKTEST" ;
    cosmos_sdtm:predicateTerm <https://www.cdisc.org/cosmos/sdtm_v1.0/PredicateTermEnum#IS_DECODED_BY> ;
    cosmos_sdtm:subject "MKTESTCD" .

<https://w3id.org/cdisc/cosmos/dss/MK/GRIPSTR/MKDTC/relationship> a cosmos_sdtm:RelationShip ;
    cosmos_sdtm:linkingPhrase <https://www.cdisc.org/cosmos/sdtm_v1.0/LinkingPhraseEnum#is%20the%20date%20of%20occurrence%20for> ;
    cosmos_sdtm:object "MKTESTCD" ;
    cosmos_sdtm:predicateTerm <https://www.cdisc.org/cosmos/sdtm_v1.0/PredicateTermEnum#IS_TIMING_FOR> ;
    cosmos_sdtm:subject "MKDTC" .

<https://w3id.org/cdisc/cosmos/dss/MK/GRIPSTR/MKLAT/relationship> a cosmos_sdtm:RelationShip ;
    cosmos_sdtm:linkingPhrase <https://www.cdisc.org/cosmos/sdtm_v1.0/LinkingPhraseEnum#further%20specifies%20the%20anatomical%20location%20in> ;
    cosmos_sdtm:object "MKLOC" ;
    cosmos_sdtm:predicateTerm <https://www.cdisc.org/cosmos/sdtm_v1.0/PredicateTermEnum#SPECIFIES> ;
    cosmos_sdtm:subject "MKLAT" .

<https://w3id.org/cdisc/cosmos/dss/MK/GRIPSTR/MKLOC/relationship> a cosmos_sdtm:RelationShip ;
    cosmos_sdtm:linkingPhrase <https://www.cdisc.org/cosmos/sdtm_v1.0/LinkingPhraseEnum#specifies%20the%20anatomical%20location%20of%20the%20performance%20of%20the%20test%20in> ;
    cosmos_sdtm:object "MKTESTCD" ;
    cosmos_sdtm:predicateTerm <https://www.cdisc.org/cosmos/sdtm_v1.0/PredicateTermEnum#SPECIFIES> ;
    cosmos_sdtm:subject "MKLOC" .

<https://w3id.org/cdisc/cosmos/dss/MK/GRIPSTR/MKMETHOD/relationship> a cosmos_sdtm:RelationShip ;
    cosmos_sdtm:linkingPhrase <https://www.cdisc.org/cosmos/sdtm_v1.0/LinkingPhraseEnum#is%20the%20method%20for%20the%20test%20in> ;
    cosmos_sdtm:object "MKTESTCD" ;
    cosmos_sdtm:predicateTerm <https://www.cdisc.org/cosmos/sdtm_v1.0/PredicateTermEnum#SPECIFIES> ;
    cosmos_sdtm:subject "MKMETHOD" .

<https://w3id.org/cdisc/cosmos/dss/MK/GRIPSTR/MKORRES/relationship> a cosmos_sdtm:RelationShip ;
    cosmos_sdtm:linkingPhrase <https://www.cdisc.org/cosmos/sdtm_v1.0/LinkingPhraseEnum#is%20the%20result%20of%20the%20test%20in> ;
    cosmos_sdtm:object "MKTESTCD" ;
    cosmos_sdtm:predicateTerm <https://www.cdisc.org/cosmos/sdtm_v1.0/PredicateTermEnum#IS_RESULT_OF> ;
    cosmos_sdtm:subject "MKORRES" .

<https://w3id.org/cdisc/cosmos/dss/MK/GRIPSTR/MKORRESU/relationship> a cosmos_sdtm:RelationShip ;
    cosmos_sdtm:linkingPhrase <https://www.cdisc.org/cosmos/sdtm_v1.0/LinkingPhraseEnum#is%20the%20unit%20for%20the%20value%20in> ;
    cosmos_sdtm:object "MKORRES" ;
    cosmos_sdtm:predicateTerm <https://www.cdisc.org/cosmos/sdtm_v1.0/PredicateTermEnum#IS_UNIT_FOR> ;
    cosmos_sdtm:subject "MKORRESU" .

<https://w3id.org/cdisc/cosmos/dss/MK/GRIPSTR/MKSTRESC/relationship> a cosmos_sdtm:RelationShip ;
    cosmos_sdtm:linkingPhrase <https://www.cdisc.org/cosmos/sdtm_v1.0/LinkingPhraseEnum#is%20the%20result%20of%20the%20test%20in> ;
    cosmos_sdtm:object "MKTESTCD" ;
    cosmos_sdtm:predicateTerm <https://www.cdisc.org/cosmos/sdtm_v1.0/PredicateTermEnum#IS_RESULT_OF> ;
    cosmos_sdtm:subject "MKSTRESC" .

<https://w3id.org/cdisc/cosmos/dss/MK/GRIPSTR/MKSTRESN/relationship> a cosmos_sdtm:RelationShip ;
    cosmos_sdtm:linkingPhrase <https://www.cdisc.org/cosmos/sdtm_v1.0/LinkingPhraseEnum#is%20the%20result%20of%20the%20test%20in> ;
    cosmos_sdtm:object "MKTESTCD" ;
    cosmos_sdtm:predicateTerm <https://www.cdisc.org/cosmos/sdtm_v1.0/PredicateTermEnum#IS_RESULT_OF> ;
    cosmos_sdtm:subject "MKSTRESN" .

<https://w3id.org/cdisc/cosmos/dss/MK/GRIPSTR/MKSTRESU/assignedTerm> a cosmos_sdtm:AssignedTerm ;
    cosmos_sdtm:conceptId NCIT:C28252 ;
    cosmos_sdtm:value "kg" .

<https://w3id.org/cdisc/cosmos/dss/MK/GRIPSTR/MKSTRESU/relationship> a cosmos_sdtm:RelationShip ;
    cosmos_sdtm:linkingPhrase <https://www.cdisc.org/cosmos/sdtm_v1.0/LinkingPhraseEnum#is%20the%20unit%20for%20the%20value%20in> ;
    cosmos_sdtm:object "MKSTRESN" ;
    cosmos_sdtm:predicateTerm <https://www.cdisc.org/cosmos/sdtm_v1.0/PredicateTermEnum#IS_UNIT_FOR> ;
    cosmos_sdtm:subject "MKSTRESU" .

<https://w3id.org/cdisc/cosmos/dss/MK/GRIPSTR/MKTEST/assignedTerm> a cosmos_sdtm:AssignedTerm ;
    cosmos_sdtm:conceptId NCIT:C139210 ;
    cosmos_sdtm:value "Grip Strength" .

<https://w3id.org/cdisc/cosmos/dss/MK/GRIPSTR/MKTEST/relationship> a cosmos_sdtm:RelationShip ;
    cosmos_sdtm:linkingPhrase <https://www.cdisc.org/cosmos/sdtm_v1.0/LinkingPhraseEnum#decodes%20the%20value%20in> ;
    cosmos_sdtm:object "MKTESTCD" ;
    cosmos_sdtm:predicateTerm <https://www.cdisc.org/cosmos/sdtm_v1.0/PredicateTermEnum#DECODES> ;
    cosmos_sdtm:subject "MKTEST" .

<https://w3id.org/cdisc/cosmos/dss/MK/GRIPSTR/MKTESTCD/assignedTerm> a cosmos_sdtm:AssignedTerm ;
    cosmos_sdtm:conceptId NCIT:C139210 ;
    cosmos_sdtm:value "GRIPSTR" .

<https://w3id.org/cdisc/cosmos/dss/MK/GRIPSTR/MKTESTCD/relationship> a cosmos_sdtm:RelationShip ;
    cosmos_sdtm:linkingPhrase <https://www.cdisc.org/cosmos/sdtm_v1.0/LinkingPhraseEnum#is%20the%20code%20for%20the%20value%20in> ;
    cosmos_sdtm:object "MKTEST" ;
    cosmos_sdtm:predicateTerm <https://www.cdisc.org/cosmos/sdtm_v1.0/PredicateTermEnum#IS_DECODED_BY> ;
    cosmos_sdtm:subject "MKTESTCD" .

<https://w3id.org/cdisc/cosmos/dss/MK/ISOMSABD/MKDTC/relationship> a cosmos_sdtm:RelationShip ;
    cosmos_sdtm:linkingPhrase <https://www.cdisc.org/cosmos/sdtm_v1.0/LinkingPhraseEnum#is%20the%20date%20of%20occurrence%20for> ;
    cosmos_sdtm:object "MKTESTCD" ;
    cosmos_sdtm:predicateTerm <https://www.cdisc.org/cosmos/sdtm_v1.0/PredicateTermEnum#IS_TIMING_FOR> ;
    cosmos_sdtm:subject "MKDTC" .

<https://w3id.org/cdisc/cosmos/dss/MK/ISOMSABD/MKLAT/relationship> a cosmos_sdtm:RelationShip ;
    cosmos_sdtm:linkingPhrase <https://www.cdisc.org/cosmos/sdtm_v1.0/LinkingPhraseEnum#further%20specifies%20the%20anatomical%20location%20in> ;
    cosmos_sdtm:object "MKLOC" ;
    cosmos_sdtm:predicateTerm <https://www.cdisc.org/cosmos/sdtm_v1.0/PredicateTermEnum#SPECIFIES> ;
    cosmos_sdtm:subject "MKLAT" .

<https://w3id.org/cdisc/cosmos/dss/MK/ISOMSABD/MKLOC/relationship> a cosmos_sdtm:RelationShip ;
    cosmos_sdtm:linkingPhrase <https://www.cdisc.org/cosmos/sdtm_v1.0/LinkingPhraseEnum#specifies%20the%20anatomical%20location%20of%20the%20performance%20of%20the%20test%20in> ;
    cosmos_sdtm:object "MKTESTCD" ;
    cosmos_sdtm:predicateTerm <https://www.cdisc.org/cosmos/sdtm_v1.0/PredicateTermEnum#SPECIFIES> ;
    cosmos_sdtm:subject "MKLOC" .

<https://w3id.org/cdisc/cosmos/dss/MK/ISOMSABD/MKMETHOD/relationship> a cosmos_sdtm:RelationShip ;
    cosmos_sdtm:linkingPhrase <https://www.cdisc.org/cosmos/sdtm_v1.0/LinkingPhraseEnum#is%20the%20method%20for%20the%20test%20in> ;
    cosmos_sdtm:object "MKTESTCD" ;
    cosmos_sdtm:predicateTerm <https://www.cdisc.org/cosmos/sdtm_v1.0/PredicateTermEnum#SPECIFIES> ;
    cosmos_sdtm:subject "MKMETHOD" .

<https://w3id.org/cdisc/cosmos/dss/MK/ISOMSABD/MKORRES/relationship> a cosmos_sdtm:RelationShip ;
    cosmos_sdtm:linkingPhrase <https://www.cdisc.org/cosmos/sdtm_v1.0/LinkingPhraseEnum#is%20the%20result%20of%20the%20test%20in> ;
    cosmos_sdtm:object "MKTESTCD" ;
    cosmos_sdtm:predicateTerm <https://www.cdisc.org/cosmos/sdtm_v1.0/PredicateTermEnum#IS_RESULT_OF> ;
    cosmos_sdtm:subject "MKORRES" .

<https://w3id.org/cdisc/cosmos/dss/MK/ISOMSABD/MKORRESU/relationship> a cosmos_sdtm:RelationShip ;
    cosmos_sdtm:linkingPhrase <https://www.cdisc.org/cosmos/sdtm_v1.0/LinkingPhraseEnum#is%20the%20unit%20for%20the%20value%20in> ;
    cosmos_sdtm:object "MKORRES" ;
    cosmos_sdtm:predicateTerm <https://www.cdisc.org/cosmos/sdtm_v1.0/PredicateTermEnum#IS_UNIT_FOR> ;
    cosmos_sdtm:subject "MKORRESU" .

<https://w3id.org/cdisc/cosmos/dss/MK/ISOMSABD/MKSTRESC/relationship> a cosmos_sdtm:RelationShip ;
    cosmos_sdtm:linkingPhrase <https://www.cdisc.org/cosmos/sdtm_v1.0/LinkingPhraseEnum#is%20the%20result%20of%20the%20test%20in> ;
    cosmos_sdtm:object "MKTESTCD" ;
    cosmos_sdtm:predicateTerm <https://www.cdisc.org/cosmos/sdtm_v1.0/PredicateTermEnum#IS_RESULT_OF> ;
    cosmos_sdtm:subject "MKSTRESC" .

<https://w3id.org/cdisc/cosmos/dss/MK/ISOMSABD/MKSTRESN/relationship> a cosmos_sdtm:RelationShip ;
    cosmos_sdtm:linkingPhrase <https://www.cdisc.org/cosmos/sdtm_v1.0/LinkingPhraseEnum#is%20the%20result%20of%20the%20test%20in> ;
    cosmos_sdtm:object "MKTESTCD" ;
    cosmos_sdtm:predicateTerm <https://www.cdisc.org/cosmos/sdtm_v1.0/PredicateTermEnum#IS_RESULT_OF> ;
    cosmos_sdtm:subject "MKSTRESN" .

<https://w3id.org/cdisc/cosmos/dss/MK/ISOMSABD/MKSTRESU/assignedTerm> a cosmos_sdtm:AssignedTerm ;
    cosmos_sdtm:conceptId NCIT:C28252 ;
    cosmos_sdtm:value "kg" .

<https://w3id.org/cdisc/cosmos/dss/MK/ISOMSABD/MKSTRESU/relationship> a cosmos_sdtm:RelationShip ;
    cosmos_sdtm:linkingPhrase <https://www.cdisc.org/cosmos/sdtm_v1.0/LinkingPhraseEnum#is%20the%20unit%20for%20the%20value%20in> ;
    cosmos_sdtm:object "MKSTRESN" ;
    cosmos_sdtm:predicateTerm <https://www.cdisc.org/cosmos/sdtm_v1.0/PredicateTermEnum#IS_UNIT_FOR> ;
    cosmos_sdtm:subject "MKSTRESU" .

<https://w3id.org/cdisc/cosmos/dss/MK/ISOMSABD/MKTEST/assignedTerm> a cosmos_sdtm:AssignedTerm ;
    cosmos_sdtm:conceptId NCIT:C181496 ;
    cosmos_sdtm:value "Isometric Muscle Strength, Abduction" .

<https://w3id.org/cdisc/cosmos/dss/MK/ISOMSABD/MKTEST/relationship> a cosmos_sdtm:RelationShip ;
    cosmos_sdtm:linkingPhrase <https://www.cdisc.org/cosmos/sdtm_v1.0/LinkingPhraseEnum#decodes%20the%20value%20in> ;
    cosmos_sdtm:object "MKTESTCD" ;
    cosmos_sdtm:predicateTerm <https://www.cdisc.org/cosmos/sdtm_v1.0/PredicateTermEnum#DECODES> ;
    cosmos_sdtm:subject "MKTEST" .

<https://w3id.org/cdisc/cosmos/dss/MK/ISOMSABD/MKTESTCD/assignedTerm> a cosmos_sdtm:AssignedTerm ;
    cosmos_sdtm:conceptId NCIT:C181496 ;
    cosmos_sdtm:value "ISOMSABD" .

<https://w3id.org/cdisc/cosmos/dss/MK/ISOMSABD/MKTESTCD/relationship> a cosmos_sdtm:RelationShip ;
    cosmos_sdtm:linkingPhrase <https://www.cdisc.org/cosmos/sdtm_v1.0/LinkingPhraseEnum#is%20the%20code%20for%20the%20value%20in> ;
    cosmos_sdtm:object "MKTEST" ;
    cosmos_sdtm:predicateTerm <https://www.cdisc.org/cosmos/sdtm_v1.0/PredicateTermEnum#IS_DECODED_BY> ;
    cosmos_sdtm:subject "MKTESTCD" .

<https://w3id.org/cdisc/cosmos/dss/MK/ISOMSADD/MKDTC/relationship> a cosmos_sdtm:RelationShip ;
    cosmos_sdtm:linkingPhrase <https://www.cdisc.org/cosmos/sdtm_v1.0/LinkingPhraseEnum#is%20the%20date%20of%20occurrence%20for> ;
    cosmos_sdtm:object "MKTESTCD" ;
    cosmos_sdtm:predicateTerm <https://www.cdisc.org/cosmos/sdtm_v1.0/PredicateTermEnum#IS_TIMING_FOR> ;
    cosmos_sdtm:subject "MKDTC" .

<https://w3id.org/cdisc/cosmos/dss/MK/ISOMSADD/MKLAT/relationship> a cosmos_sdtm:RelationShip ;
    cosmos_sdtm:linkingPhrase <https://www.cdisc.org/cosmos/sdtm_v1.0/LinkingPhraseEnum#further%20specifies%20the%20anatomical%20location%20in> ;
    cosmos_sdtm:object "MKLOC" ;
    cosmos_sdtm:predicateTerm <https://www.cdisc.org/cosmos/sdtm_v1.0/PredicateTermEnum#SPECIFIES> ;
    cosmos_sdtm:subject "MKLAT" .

<https://w3id.org/cdisc/cosmos/dss/MK/ISOMSADD/MKLOC/relationship> a cosmos_sdtm:RelationShip ;
    cosmos_sdtm:linkingPhrase <https://www.cdisc.org/cosmos/sdtm_v1.0/LinkingPhraseEnum#specifies%20the%20anatomical%20location%20of%20the%20performance%20of%20the%20test%20in> ;
    cosmos_sdtm:object "MKTESTCD" ;
    cosmos_sdtm:predicateTerm <https://www.cdisc.org/cosmos/sdtm_v1.0/PredicateTermEnum#SPECIFIES> ;
    cosmos_sdtm:subject "MKLOC" .

<https://w3id.org/cdisc/cosmos/dss/MK/ISOMSADD/MKMETHOD/relationship> a cosmos_sdtm:RelationShip ;
    cosmos_sdtm:linkingPhrase <https://www.cdisc.org/cosmos/sdtm_v1.0/LinkingPhraseEnum#is%20the%20method%20for%20the%20test%20in> ;
    cosmos_sdtm:object "MKTESTCD" ;
    cosmos_sdtm:predicateTerm <https://www.cdisc.org/cosmos/sdtm_v1.0/PredicateTermEnum#SPECIFIES> ;
    cosmos_sdtm:subject "MKMETHOD" .

<https://w3id.org/cdisc/cosmos/dss/MK/ISOMSADD/MKORRES/relationship> a cosmos_sdtm:RelationShip ;
    cosmos_sdtm:linkingPhrase <https://www.cdisc.org/cosmos/sdtm_v1.0/LinkingPhraseEnum#is%20the%20result%20of%20the%20test%20in> ;
    cosmos_sdtm:object "MKTESTCD" ;
    cosmos_sdtm:predicateTerm <https://www.cdisc.org/cosmos/sdtm_v1.0/PredicateTermEnum#IS_RESULT_OF> ;
    cosmos_sdtm:subject "MKORRES" .

<https://w3id.org/cdisc/cosmos/dss/MK/ISOMSADD/MKORRESU/relationship> a cosmos_sdtm:RelationShip ;
    cosmos_sdtm:linkingPhrase <https://www.cdisc.org/cosmos/sdtm_v1.0/LinkingPhraseEnum#is%20the%20unit%20for%20the%20value%20in> ;
    cosmos_sdtm:object "MKORRES" ;
    cosmos_sdtm:predicateTerm <https://www.cdisc.org/cosmos/sdtm_v1.0/PredicateTermEnum#IS_UNIT_FOR> ;
    cosmos_sdtm:subject "MKORRESU" .

<https://w3id.org/cdisc/cosmos/dss/MK/ISOMSADD/MKSTRESC/relationship> a cosmos_sdtm:RelationShip ;
    cosmos_sdtm:linkingPhrase <https://www.cdisc.org/cosmos/sdtm_v1.0/LinkingPhraseEnum#is%20the%20result%20of%20the%20test%20in> ;
    cosmos_sdtm:object "MKTESTCD" ;
    cosmos_sdtm:predicateTerm <https://www.cdisc.org/cosmos/sdtm_v1.0/PredicateTermEnum#IS_RESULT_OF> ;
    cosmos_sdtm:subject "MKSTRESC" .

<https://w3id.org/cdisc/cosmos/dss/MK/ISOMSADD/MKSTRESN/relationship> a cosmos_sdtm:RelationShip ;
    cosmos_sdtm:linkingPhrase <https://www.cdisc.org/cosmos/sdtm_v1.0/LinkingPhraseEnum#is%20the%20result%20of%20the%20test%20in> ;
    cosmos_sdtm:object "MKTESTCD" ;
    cosmos_sdtm:predicateTerm <https://www.cdisc.org/cosmos/sdtm_v1.0/PredicateTermEnum#IS_RESULT_OF> ;
    cosmos_sdtm:subject "MKSTRESN" .

<https://w3id.org/cdisc/cosmos/dss/MK/ISOMSADD/MKSTRESU/assignedTerm> a cosmos_sdtm:AssignedTerm ;
    cosmos_sdtm:conceptId NCIT:C28252 ;
    cosmos_sdtm:value "kg" .

<https://w3id.org/cdisc/cosmos/dss/MK/ISOMSADD/MKSTRESU/relationship> a cosmos_sdtm:RelationShip ;
    cosmos_sdtm:linkingPhrase <https://www.cdisc.org/cosmos/sdtm_v1.0/LinkingPhraseEnum#is%20the%20unit%20for%20the%20value%20in> ;
    cosmos_sdtm:object "MKSTRESN" ;
    cosmos_sdtm:predicateTerm <https://www.cdisc.org/cosmos/sdtm_v1.0/PredicateTermEnum#IS_UNIT_FOR> ;
    cosmos_sdtm:subject "MKSTRESU" .

<https://w3id.org/cdisc/cosmos/dss/MK/ISOMSADD/MKTEST/assignedTerm> a cosmos_sdtm:AssignedTerm ;
    cosmos_sdtm:conceptId NCIT:C181500 ;
    cosmos_sdtm:value "Isometric Muscle Strength, Adduction" .

<https://w3id.org/cdisc/cosmos/dss/MK/ISOMSADD/MKTEST/relationship> a cosmos_sdtm:RelationShip ;
    cosmos_sdtm:linkingPhrase <https://www.cdisc.org/cosmos/sdtm_v1.0/LinkingPhraseEnum#decodes%20the%20value%20in> ;
    cosmos_sdtm:object "MKTESTCD" ;
    cosmos_sdtm:predicateTerm <https://www.cdisc.org/cosmos/sdtm_v1.0/PredicateTermEnum#DECODES> ;
    cosmos_sdtm:subject "MKTEST" .

<https://w3id.org/cdisc/cosmos/dss/MK/ISOMSADD/MKTESTCD/assignedTerm> a cosmos_sdtm:AssignedTerm ;
    cosmos_sdtm:conceptId NCIT:C181500 ;
    cosmos_sdtm:value "ISOMSADD" .

<https://w3id.org/cdisc/cosmos/dss/MK/ISOMSADD/MKTESTCD/relationship> a cosmos_sdtm:RelationShip ;
    cosmos_sdtm:linkingPhrase <https://www.cdisc.org/cosmos/sdtm_v1.0/LinkingPhraseEnum#is%20the%20code%20for%20the%20value%20in> ;
    cosmos_sdtm:object "MKTEST" ;
    cosmos_sdtm:predicateTerm <https://www.cdisc.org/cosmos/sdtm_v1.0/PredicateTermEnum#IS_DECODED_BY> ;
    cosmos_sdtm:subject "MKTESTCD" .

<https://w3id.org/cdisc/cosmos/dss/MK/ISOMSDOR/MKDTC/relationship> a cosmos_sdtm:RelationShip ;
    cosmos_sdtm:linkingPhrase <https://www.cdisc.org/cosmos/sdtm_v1.0/LinkingPhraseEnum#is%20the%20date%20of%20occurrence%20for> ;
    cosmos_sdtm:object "MKTESTCD" ;
    cosmos_sdtm:predicateTerm <https://www.cdisc.org/cosmos/sdtm_v1.0/PredicateTermEnum#IS_TIMING_FOR> ;
    cosmos_sdtm:subject "MKDTC" .

<https://w3id.org/cdisc/cosmos/dss/MK/ISOMSDOR/MKLAT/relationship> a cosmos_sdtm:RelationShip ;
    cosmos_sdtm:linkingPhrase <https://www.cdisc.org/cosmos/sdtm_v1.0/LinkingPhraseEnum#further%20specifies%20the%20anatomical%20location%20in> ;
    cosmos_sdtm:object "MKLOC" ;
    cosmos_sdtm:predicateTerm <https://www.cdisc.org/cosmos/sdtm_v1.0/PredicateTermEnum#SPECIFIES> ;
    cosmos_sdtm:subject "MKLAT" .

<https://w3id.org/cdisc/cosmos/dss/MK/ISOMSDOR/MKLOC/relationship> a cosmos_sdtm:RelationShip ;
    cosmos_sdtm:linkingPhrase <https://www.cdisc.org/cosmos/sdtm_v1.0/LinkingPhraseEnum#specifies%20the%20anatomical%20location%20of%20the%20performance%20of%20the%20test%20in> ;
    cosmos_sdtm:object "MKTESTCD" ;
    cosmos_sdtm:predicateTerm <https://www.cdisc.org/cosmos/sdtm_v1.0/PredicateTermEnum#SPECIFIES> ;
    cosmos_sdtm:subject "MKLOC" .

<https://w3id.org/cdisc/cosmos/dss/MK/ISOMSDOR/MKMETHOD/relationship> a cosmos_sdtm:RelationShip ;
    cosmos_sdtm:linkingPhrase <https://www.cdisc.org/cosmos/sdtm_v1.0/LinkingPhraseEnum#is%20the%20method%20for%20the%20test%20in> ;
    cosmos_sdtm:object "MKTESTCD" ;
    cosmos_sdtm:predicateTerm <https://www.cdisc.org/cosmos/sdtm_v1.0/PredicateTermEnum#SPECIFIES> ;
    cosmos_sdtm:subject "MKMETHOD" .

<https://w3id.org/cdisc/cosmos/dss/MK/ISOMSDOR/MKORRES/relationship> a cosmos_sdtm:RelationShip ;
    cosmos_sdtm:linkingPhrase <https://www.cdisc.org/cosmos/sdtm_v1.0/LinkingPhraseEnum#is%20the%20result%20of%20the%20test%20in> ;
    cosmos_sdtm:object "MKTESTCD" ;
    cosmos_sdtm:predicateTerm <https://www.cdisc.org/cosmos/sdtm_v1.0/PredicateTermEnum#IS_RESULT_OF> ;
    cosmos_sdtm:subject "MKORRES" .

<https://w3id.org/cdisc/cosmos/dss/MK/ISOMSDOR/MKORRESU/relationship> a cosmos_sdtm:RelationShip ;
    cosmos_sdtm:linkingPhrase <https://www.cdisc.org/cosmos/sdtm_v1.0/LinkingPhraseEnum#is%20the%20unit%20for%20the%20value%20in> ;
    cosmos_sdtm:object "MKORRES" ;
    cosmos_sdtm:predicateTerm <https://www.cdisc.org/cosmos/sdtm_v1.0/PredicateTermEnum#IS_UNIT_FOR> ;
    cosmos_sdtm:subject "MKORRESU" .

<https://w3id.org/cdisc/cosmos/dss/MK/ISOMSDOR/MKSTRESC/relationship> a cosmos_sdtm:RelationShip ;
    cosmos_sdtm:linkingPhrase <https://www.cdisc.org/cosmos/sdtm_v1.0/LinkingPhraseEnum#is%20the%20result%20of%20the%20test%20in> ;
    cosmos_sdtm:object "MKTESTCD" ;
    cosmos_sdtm:predicateTerm <https://www.cdisc.org/cosmos/sdtm_v1.0/PredicateTermEnum#IS_RESULT_OF> ;
    cosmos_sdtm:subject "MKSTRESC" .

<https://w3id.org/cdisc/cosmos/dss/MK/ISOMSDOR/MKSTRESN/relationship> a cosmos_sdtm:RelationShip ;
    cosmos_sdtm:linkingPhrase <https://www.cdisc.org/cosmos/sdtm_v1.0/LinkingPhraseEnum#is%20the%20result%20of%20the%20test%20in> ;
    cosmos_sdtm:object "MKTESTCD" ;
    cosmos_sdtm:predicateTerm <https://www.cdisc.org/cosmos/sdtm_v1.0/PredicateTermEnum#IS_RESULT_OF> ;
    cosmos_sdtm:subject "MKSTRESN" .

<https://w3id.org/cdisc/cosmos/dss/MK/ISOMSDOR/MKSTRESU/assignedTerm> a cosmos_sdtm:AssignedTerm ;
    cosmos_sdtm:conceptId NCIT:C28252 ;
    cosmos_sdtm:value "kg" .

<https://w3id.org/cdisc/cosmos/dss/MK/ISOMSDOR/MKSTRESU/relationship> a cosmos_sdtm:RelationShip ;
    cosmos_sdtm:linkingPhrase <https://www.cdisc.org/cosmos/sdtm_v1.0/LinkingPhraseEnum#is%20the%20unit%20for%20the%20value%20in> ;
    cosmos_sdtm:object "MKSTRESN" ;
    cosmos_sdtm:predicateTerm <https://www.cdisc.org/cosmos/sdtm_v1.0/PredicateTermEnum#IS_UNIT_FOR> ;
    cosmos_sdtm:subject "MKSTRESU" .

<https://w3id.org/cdisc/cosmos/dss/MK/ISOMSDOR/MKTEST/assignedTerm> a cosmos_sdtm:AssignedTerm ;
    cosmos_sdtm:conceptId NCIT:C181497 ;
    cosmos_sdtm:value "Isometric Muscle Strength, Dorsiflexion" .

<https://w3id.org/cdisc/cosmos/dss/MK/ISOMSDOR/MKTEST/relationship> a cosmos_sdtm:RelationShip ;
    cosmos_sdtm:linkingPhrase <https://www.cdisc.org/cosmos/sdtm_v1.0/LinkingPhraseEnum#decodes%20the%20value%20in> ;
    cosmos_sdtm:object "MKTESTCD" ;
    cosmos_sdtm:predicateTerm <https://www.cdisc.org/cosmos/sdtm_v1.0/PredicateTermEnum#DECODES> ;
    cosmos_sdtm:subject "MKTEST" .

<https://w3id.org/cdisc/cosmos/dss/MK/ISOMSDOR/MKTESTCD/assignedTerm> a cosmos_sdtm:AssignedTerm ;
    cosmos_sdtm:conceptId NCIT:C181497 ;
    cosmos_sdtm:value "ISOMSDOR" .

<https://w3id.org/cdisc/cosmos/dss/MK/ISOMSDOR/MKTESTCD/relationship> a cosmos_sdtm:RelationShip ;
    cosmos_sdtm:linkingPhrase <https://www.cdisc.org/cosmos/sdtm_v1.0/LinkingPhraseEnum#is%20the%20code%20for%20the%20value%20in> ;
    cosmos_sdtm:object "MKTEST" ;
    cosmos_sdtm:predicateTerm <https://www.cdisc.org/cosmos/sdtm_v1.0/PredicateTermEnum#IS_DECODED_BY> ;
    cosmos_sdtm:subject "MKTESTCD" .

<https://w3id.org/cdisc/cosmos/dss/MK/ISOMSER/MKDTC/relationship> a cosmos_sdtm:RelationShip ;
    cosmos_sdtm:linkingPhrase <https://www.cdisc.org/cosmos/sdtm_v1.0/LinkingPhraseEnum#is%20the%20date%20of%20occurrence%20for> ;
    cosmos_sdtm:object "MKTESTCD" ;
    cosmos_sdtm:predicateTerm <https://www.cdisc.org/cosmos/sdtm_v1.0/PredicateTermEnum#IS_TIMING_FOR> ;
    cosmos_sdtm:subject "MKDTC" .

<https://w3id.org/cdisc/cosmos/dss/MK/ISOMSER/MKLAT/relationship> a cosmos_sdtm:RelationShip ;
    cosmos_sdtm:linkingPhrase <https://www.cdisc.org/cosmos/sdtm_v1.0/LinkingPhraseEnum#further%20specifies%20the%20anatomical%20location%20in> ;
    cosmos_sdtm:object "MKLOC" ;
    cosmos_sdtm:predicateTerm <https://www.cdisc.org/cosmos/sdtm_v1.0/PredicateTermEnum#SPECIFIES> ;
    cosmos_sdtm:subject "MKLAT" .

<https://w3id.org/cdisc/cosmos/dss/MK/ISOMSER/MKLOC/relationship> a cosmos_sdtm:RelationShip ;
    cosmos_sdtm:linkingPhrase <https://www.cdisc.org/cosmos/sdtm_v1.0/LinkingPhraseEnum#specifies%20the%20anatomical%20location%20of%20the%20performance%20of%20the%20test%20in> ;
    cosmos_sdtm:object "MKTESTCD" ;
    cosmos_sdtm:predicateTerm <https://www.cdisc.org/cosmos/sdtm_v1.0/PredicateTermEnum#SPECIFIES> ;
    cosmos_sdtm:subject "MKLOC" .

<https://w3id.org/cdisc/cosmos/dss/MK/ISOMSER/MKMETHOD/relationship> a cosmos_sdtm:RelationShip ;
    cosmos_sdtm:linkingPhrase <https://www.cdisc.org/cosmos/sdtm_v1.0/LinkingPhraseEnum#is%20the%20method%20for%20the%20test%20in> ;
    cosmos_sdtm:object "MKTESTCD" ;
    cosmos_sdtm:predicateTerm <https://www.cdisc.org/cosmos/sdtm_v1.0/PredicateTermEnum#SPECIFIES> ;
    cosmos_sdtm:subject "MKMETHOD" .

<https://w3id.org/cdisc/cosmos/dss/MK/ISOMSER/MKORRES/relationship> a cosmos_sdtm:RelationShip ;
    cosmos_sdtm:linkingPhrase <https://www.cdisc.org/cosmos/sdtm_v1.0/LinkingPhraseEnum#is%20the%20result%20of%20the%20test%20in> ;
    cosmos_sdtm:object "MKTESTCD" ;
    cosmos_sdtm:predicateTerm <https://www.cdisc.org/cosmos/sdtm_v1.0/PredicateTermEnum#IS_RESULT_OF> ;
    cosmos_sdtm:subject "MKORRES" .

<https://w3id.org/cdisc/cosmos/dss/MK/ISOMSER/MKSTRESC/relationship> a cosmos_sdtm:RelationShip ;
    cosmos_sdtm:linkingPhrase <https://www.cdisc.org/cosmos/sdtm_v1.0/LinkingPhraseEnum#is%20the%20result%20of%20the%20test%20in> ;
    cosmos_sdtm:object "MKTESTCD" ;
    cosmos_sdtm:predicateTerm <https://www.cdisc.org/cosmos/sdtm_v1.0/PredicateTermEnum#IS_RESULT_OF> ;
    cosmos_sdtm:subject "MKSTRESC" .

<https://w3id.org/cdisc/cosmos/dss/MK/ISOMSER/MKSTRESN/relationship> a cosmos_sdtm:RelationShip ;
    cosmos_sdtm:linkingPhrase <https://www.cdisc.org/cosmos/sdtm_v1.0/LinkingPhraseEnum#is%20the%20result%20of%20the%20test%20in> ;
    cosmos_sdtm:object "MKTESTCD" ;
    cosmos_sdtm:predicateTerm <https://www.cdisc.org/cosmos/sdtm_v1.0/PredicateTermEnum#IS_RESULT_OF> ;
    cosmos_sdtm:subject "MKSTRESN" .

<https://w3id.org/cdisc/cosmos/dss/MK/ISOMSER/MKTEST/assignedTerm> a cosmos_sdtm:AssignedTerm ;
    cosmos_sdtm:conceptId NCIT:C181499 ;
    cosmos_sdtm:value "Isometric Muscle Strength, Extern Rotat" .

<https://w3id.org/cdisc/cosmos/dss/MK/ISOMSER/MKTEST/relationship> a cosmos_sdtm:RelationShip ;
    cosmos_sdtm:linkingPhrase <https://www.cdisc.org/cosmos/sdtm_v1.0/LinkingPhraseEnum#decodes%20the%20value%20in> ;
    cosmos_sdtm:object "MKTESTCD" ;
    cosmos_sdtm:predicateTerm <https://www.cdisc.org/cosmos/sdtm_v1.0/PredicateTermEnum#DECODES> ;
    cosmos_sdtm:subject "MKTEST" .

<https://w3id.org/cdisc/cosmos/dss/MK/ISOMSER/MKTESTCD/assignedTerm> a cosmos_sdtm:AssignedTerm ;
    cosmos_sdtm:conceptId NCIT:C181499 ;
    cosmos_sdtm:value "ISOMSER" .

<https://w3id.org/cdisc/cosmos/dss/MK/ISOMSER/MKTESTCD/relationship> a cosmos_sdtm:RelationShip ;
    cosmos_sdtm:linkingPhrase <https://www.cdisc.org/cosmos/sdtm_v1.0/LinkingPhraseEnum#is%20the%20code%20for%20the%20value%20in> ;
    cosmos_sdtm:object "MKTEST" ;
    cosmos_sdtm:predicateTerm <https://www.cdisc.org/cosmos/sdtm_v1.0/PredicateTermEnum#IS_DECODED_BY> ;
    cosmos_sdtm:subject "MKTESTCD" .

<https://w3id.org/cdisc/cosmos/dss/MK/ISOMSEXT/MKDTC/relationship> a cosmos_sdtm:RelationShip ;
    cosmos_sdtm:linkingPhrase <https://www.cdisc.org/cosmos/sdtm_v1.0/LinkingPhraseEnum#is%20the%20date%20of%20occurrence%20for> ;
    cosmos_sdtm:object "MKTESTCD" ;
    cosmos_sdtm:predicateTerm <https://www.cdisc.org/cosmos/sdtm_v1.0/PredicateTermEnum#IS_TIMING_FOR> ;
    cosmos_sdtm:subject "MKDTC" .

<https://w3id.org/cdisc/cosmos/dss/MK/ISOMSEXT/MKLAT/relationship> a cosmos_sdtm:RelationShip ;
    cosmos_sdtm:linkingPhrase <https://www.cdisc.org/cosmos/sdtm_v1.0/LinkingPhraseEnum#further%20specifies%20the%20anatomical%20location%20in> ;
    cosmos_sdtm:object "MKLOC" ;
    cosmos_sdtm:predicateTerm <https://www.cdisc.org/cosmos/sdtm_v1.0/PredicateTermEnum#SPECIFIES> ;
    cosmos_sdtm:subject "MKLAT" .

<https://w3id.org/cdisc/cosmos/dss/MK/ISOMSEXT/MKLOC/relationship> a cosmos_sdtm:RelationShip ;
    cosmos_sdtm:linkingPhrase <https://www.cdisc.org/cosmos/sdtm_v1.0/LinkingPhraseEnum#specifies%20the%20anatomical%20location%20of%20the%20performance%20of%20the%20test%20in> ;
    cosmos_sdtm:object "MKTESTCD" ;
    cosmos_sdtm:predicateTerm <https://www.cdisc.org/cosmos/sdtm_v1.0/PredicateTermEnum#SPECIFIES> ;
    cosmos_sdtm:subject "MKLOC" .

<https://w3id.org/cdisc/cosmos/dss/MK/ISOMSEXT/MKMETHOD/relationship> a cosmos_sdtm:RelationShip ;
    cosmos_sdtm:linkingPhrase <https://www.cdisc.org/cosmos/sdtm_v1.0/LinkingPhraseEnum#is%20the%20method%20for%20the%20test%20in> ;
    cosmos_sdtm:object "MKTESTCD" ;
    cosmos_sdtm:predicateTerm <https://www.cdisc.org/cosmos/sdtm_v1.0/PredicateTermEnum#SPECIFIES> ;
    cosmos_sdtm:subject "MKMETHOD" .

<https://w3id.org/cdisc/cosmos/dss/MK/ISOMSEXT/MKORRES/relationship> a cosmos_sdtm:RelationShip ;
    cosmos_sdtm:linkingPhrase <https://www.cdisc.org/cosmos/sdtm_v1.0/LinkingPhraseEnum#is%20the%20result%20of%20the%20test%20in> ;
    cosmos_sdtm:object "MKTESTCD" ;
    cosmos_sdtm:predicateTerm <https://www.cdisc.org/cosmos/sdtm_v1.0/PredicateTermEnum#IS_RESULT_OF> ;
    cosmos_sdtm:subject "MKORRES" .

<https://w3id.org/cdisc/cosmos/dss/MK/ISOMSEXT/MKORRESU/relationship> a cosmos_sdtm:RelationShip ;
    cosmos_sdtm:linkingPhrase <https://www.cdisc.org/cosmos/sdtm_v1.0/LinkingPhraseEnum#is%20the%20unit%20for%20the%20value%20in> ;
    cosmos_sdtm:object "MKORRES" ;
