@prefix NCIT: <http://purl.obolibrary.org/obo/NCIT_> .
@prefix cosmos_sdtm: <https://www.cdisc.org/cosmos/sdtm_v1.0/> .
@prefix dcterms: <http://purl.org/dc/terms/> .
@prefix owl: <http://www.w3.org/2002/07/owl#> .
@prefix rdf: <http://www.w3.org/1999/02/22-rdf-syntax-ns#> .
@prefix rdfs: <http://www.w3.org/2000/01/rdf-schema#> .
@prefix skos: <http://www.w3.org/2004/02/skos/core#> .
@prefix xsd: <http://www.w3.org/2001/XMLSchema#> .

<https://w3id.org/cdisc/cosmos/dss/EG> a owl:Ontology ;
    rdfs:label "CDISC COSMoS Dataset Specializations, EG (instances)" ;
    dcterms:identifier "2026-07-14" ;
    dcterms:source <https://raw.githubusercontent.com/cdisc-org/COSMoS/031429b1d14823721991cd23ee88a11616686ce3/export/cdisc_sdtm_dataset_specializations_latest.csv> ;
    rdfs:comment "Dataset Specialization instances for domain EG, rendered from the pinned COSMoS export. Variable order is the export's row order, carried as rdf:_n membership beside the variables edges. length and significantDigits are cast from the export's decimal form to integer; packageType is not in the export and is set to the enum's single value. A biomedicalConceptId or dataElementConceptId that resolves to no node is carried as the published string. The concept nodes those edges reach are declared in the Biomedical Concept instance graph, which is not imported. Draft - not a normative CDISC artifact." ;
    owl:imports <https://w3id.org/cdisc/cosmos/sdtm/> ;
    owl:versionIRI <https://w3id.org/cdisc/cosmos/dss/EG/0.4.0> ;
    owl:versionInfo "v0.4.0" .

<https://w3id.org/cdisc/cosmos/dss/EG/AVCOND> a cosmos_sdtm:SDTMGroup ;
    dcterms:identifier "AVCOND" ;
    rdf:_1 <https://w3id.org/cdisc/cosmos/dss/EG/AVCOND/EGTESTCD> ;
    rdf:_2 <https://w3id.org/cdisc/cosmos/dss/EG/AVCOND/EGTEST> ;
    rdf:_3 <https://w3id.org/cdisc/cosmos/dss/EG/AVCOND/EGORRES> ;
    rdf:_4 <https://w3id.org/cdisc/cosmos/dss/EG/AVCOND/EGSTRESC> ;
    rdf:_5 <https://w3id.org/cdisc/cosmos/dss/EG/AVCOND/EGCAT> ;
    rdf:_6 <https://w3id.org/cdisc/cosmos/dss/EG/AVCOND/EGPOS> ;
    rdf:_7 <https://w3id.org/cdisc/cosmos/dss/EG/AVCOND/EGMETHOD> ;
    rdf:_8 <https://w3id.org/cdisc/cosmos/dss/EG/AVCOND/EGEVAL> ;
    rdf:_9 <https://w3id.org/cdisc/cosmos/dss/EG/AVCOND/EGDTC> ;
    cosmos_sdtm:biomedicalConceptId NCIT:C111131 ;
    cosmos_sdtm:domain "EG" ;
    cosmos_sdtm:packageDate "2026-05-26"^^xsd:date ;
    cosmos_sdtm:packageType <https://www.cdisc.org/cosmos/sdtm_v1.0/PackageTypeEnum#sdtm> ;
    cosmos_sdtm:sdtmigStartVersion "3-2" ;
    cosmos_sdtm:shortName "Atrioventricular Conduction ECG Assessment" ;
    cosmos_sdtm:source "EG.EGTESTCD" ;
    cosmos_sdtm:variables <https://w3id.org/cdisc/cosmos/dss/EG/AVCOND/EGCAT>,
        <https://w3id.org/cdisc/cosmos/dss/EG/AVCOND/EGDTC>,
        <https://w3id.org/cdisc/cosmos/dss/EG/AVCOND/EGEVAL>,
        <https://w3id.org/cdisc/cosmos/dss/EG/AVCOND/EGMETHOD>,
        <https://w3id.org/cdisc/cosmos/dss/EG/AVCOND/EGORRES>,
        <https://w3id.org/cdisc/cosmos/dss/EG/AVCOND/EGPOS>,
        <https://w3id.org/cdisc/cosmos/dss/EG/AVCOND/EGSTRESC>,
        <https://w3id.org/cdisc/cosmos/dss/EG/AVCOND/EGTEST>,
        <https://w3id.org/cdisc/cosmos/dss/EG/AVCOND/EGTESTCD> .

<https://w3id.org/cdisc/cosmos/dss/EG/AXISVOLT> a cosmos_sdtm:SDTMGroup ;
    dcterms:identifier "AXISVOLT" ;
    rdf:_1 <https://w3id.org/cdisc/cosmos/dss/EG/AXISVOLT/EGTESTCD> ;
    rdf:_2 <https://w3id.org/cdisc/cosmos/dss/EG/AXISVOLT/EGTEST> ;
    rdf:_3 <https://w3id.org/cdisc/cosmos/dss/EG/AXISVOLT/EGORRES> ;
    rdf:_4 <https://w3id.org/cdisc/cosmos/dss/EG/AXISVOLT/EGSTRESC> ;
    rdf:_5 <https://w3id.org/cdisc/cosmos/dss/EG/AXISVOLT/EGCAT> ;
    rdf:_6 <https://w3id.org/cdisc/cosmos/dss/EG/AXISVOLT/EGPOS> ;
    rdf:_7 <https://w3id.org/cdisc/cosmos/dss/EG/AXISVOLT/EGMETHOD> ;
    rdf:_8 <https://w3id.org/cdisc/cosmos/dss/EG/AXISVOLT/EGEVAL> ;
    rdf:_9 <https://w3id.org/cdisc/cosmos/dss/EG/AXISVOLT/EGDTC> ;
    cosmos_sdtm:biomedicalConceptId NCIT:C111132 ;
    cosmos_sdtm:domain "EG" ;
    cosmos_sdtm:packageDate "2026-05-26"^^xsd:date ;
    cosmos_sdtm:packageType <https://www.cdisc.org/cosmos/sdtm_v1.0/PackageTypeEnum#sdtm> ;
    cosmos_sdtm:sdtmigStartVersion "3-2" ;
    cosmos_sdtm:shortName "Axis and Voltage ECG Assessment" ;
    cosmos_sdtm:source "EG.EGTESTCD" ;
    cosmos_sdtm:variables <https://w3id.org/cdisc/cosmos/dss/EG/AXISVOLT/EGCAT>,
        <https://w3id.org/cdisc/cosmos/dss/EG/AXISVOLT/EGDTC>,
        <https://w3id.org/cdisc/cosmos/dss/EG/AXISVOLT/EGEVAL>,
        <https://w3id.org/cdisc/cosmos/dss/EG/AXISVOLT/EGMETHOD>,
        <https://w3id.org/cdisc/cosmos/dss/EG/AXISVOLT/EGORRES>,
        <https://w3id.org/cdisc/cosmos/dss/EG/AXISVOLT/EGPOS>,
        <https://w3id.org/cdisc/cosmos/dss/EG/AXISVOLT/EGSTRESC>,
        <https://w3id.org/cdisc/cosmos/dss/EG/AXISVOLT/EGTEST>,
        <https://w3id.org/cdisc/cosmos/dss/EG/AXISVOLT/EGTESTCD> .

<https://w3id.org/cdisc/cosmos/dss/EG/CHYPTENL> a cosmos_sdtm:SDTMGroup ;
    dcterms:identifier "CHYPTENL" ;
    rdf:_1 <https://w3id.org/cdisc/cosmos/dss/EG/CHYPTENL/EGTESTCD> ;
    rdf:_2 <https://w3id.org/cdisc/cosmos/dss/EG/CHYPTENL/EGTEST> ;
    rdf:_3 <https://w3id.org/cdisc/cosmos/dss/EG/CHYPTENL/EGORRES> ;
    rdf:_4 <https://w3id.org/cdisc/cosmos/dss/EG/CHYPTENL/EGSTRESC> ;
    rdf:_5 <https://w3id.org/cdisc/cosmos/dss/EG/CHYPTENL/EGCAT> ;
    rdf:_6 <https://w3id.org/cdisc/cosmos/dss/EG/CHYPTENL/EGPOS> ;
    rdf:_7 <https://w3id.org/cdisc/cosmos/dss/EG/CHYPTENL/EGMETHOD> ;
    rdf:_8 <https://w3id.org/cdisc/cosmos/dss/EG/CHYPTENL/EGEVAL> ;
    rdf:_9 <https://w3id.org/cdisc/cosmos/dss/EG/CHYPTENL/EGDTC> ;
    cosmos_sdtm:biomedicalConceptId NCIT:C111155 ;
    cosmos_sdtm:domain "EG" ;
    cosmos_sdtm:packageDate "2026-05-26"^^xsd:date ;
    cosmos_sdtm:packageType <https://www.cdisc.org/cosmos/sdtm_v1.0/PackageTypeEnum#sdtm> ;
    cosmos_sdtm:sdtmigStartVersion "3-2" ;
    cosmos_sdtm:shortName "Chamber Hypertrophy or Enlargement ECG Assessment" ;
    cosmos_sdtm:source "EG.EGTESTCD" ;
    cosmos_sdtm:variables <https://w3id.org/cdisc/cosmos/dss/EG/CHYPTENL/EGCAT>,
        <https://w3id.org/cdisc/cosmos/dss/EG/CHYPTENL/EGDTC>,
        <https://w3id.org/cdisc/cosmos/dss/EG/CHYPTENL/EGEVAL>,
        <https://w3id.org/cdisc/cosmos/dss/EG/CHYPTENL/EGMETHOD>,
        <https://w3id.org/cdisc/cosmos/dss/EG/CHYPTENL/EGORRES>,
        <https://w3id.org/cdisc/cosmos/dss/EG/CHYPTENL/EGPOS>,
        <https://w3id.org/cdisc/cosmos/dss/EG/CHYPTENL/EGSTRESC>,
        <https://w3id.org/cdisc/cosmos/dss/EG/CHYPTENL/EGTEST>,
        <https://w3id.org/cdisc/cosmos/dss/EG/CHYPTENL/EGTESTCD> .

<https://w3id.org/cdisc/cosmos/dss/EG/EGHRMN> a cosmos_sdtm:SDTMGroup ;
    dcterms:identifier "EGHRMN" ;
    rdf:_1 <https://w3id.org/cdisc/cosmos/dss/EG/EGHRMN/EGTESTCD> ;
    rdf:_10 <https://w3id.org/cdisc/cosmos/dss/EG/EGHRMN/EGMETHOD> ;
    rdf:_11 <https://w3id.org/cdisc/cosmos/dss/EG/EGHRMN/EGEVAL> ;
    rdf:_12 <https://w3id.org/cdisc/cosmos/dss/EG/EGHRMN/EGDTC> ;
    rdf:_2 <https://w3id.org/cdisc/cosmos/dss/EG/EGHRMN/EGTEST> ;
    rdf:_3 <https://w3id.org/cdisc/cosmos/dss/EG/EGHRMN/EGORRES> ;
    rdf:_4 <https://w3id.org/cdisc/cosmos/dss/EG/EGHRMN/EGORRESU> ;
    rdf:_5 <https://w3id.org/cdisc/cosmos/dss/EG/EGHRMN/EGSTRESC> ;
    rdf:_6 <https://w3id.org/cdisc/cosmos/dss/EG/EGHRMN/EGSTRESN> ;
    rdf:_7 <https://w3id.org/cdisc/cosmos/dss/EG/EGHRMN/EGSTRESU> ;
    rdf:_8 <https://w3id.org/cdisc/cosmos/dss/EG/EGHRMN/EGCAT> ;
    rdf:_9 <https://w3id.org/cdisc/cosmos/dss/EG/EGHRMN/EGPOS> ;
    cosmos_sdtm:biomedicalConceptId NCIT:C119259 ;
    cosmos_sdtm:domain "EG" ;
    cosmos_sdtm:packageDate "2026-05-26"^^xsd:date ;
    cosmos_sdtm:packageType <https://www.cdisc.org/cosmos/sdtm_v1.0/PackageTypeEnum#sdtm> ;
    cosmos_sdtm:sdtmigStartVersion "3-2" ;
    cosmos_sdtm:shortName "Mean Heart Rate by Electrocardiogram" ;
    cosmos_sdtm:source "EG.EGTESTCD" ;
    cosmos_sdtm:variables <https://w3id.org/cdisc/cosmos/dss/EG/EGHRMN/EGCAT>,
        <https://w3id.org/cdisc/cosmos/dss/EG/EGHRMN/EGDTC>,
        <https://w3id.org/cdisc/cosmos/dss/EG/EGHRMN/EGEVAL>,
        <https://w3id.org/cdisc/cosmos/dss/EG/EGHRMN/EGMETHOD>,
        <https://w3id.org/cdisc/cosmos/dss/EG/EGHRMN/EGORRES>,
        <https://w3id.org/cdisc/cosmos/dss/EG/EGHRMN/EGORRESU>,
        <https://w3id.org/cdisc/cosmos/dss/EG/EGHRMN/EGPOS>,
        <https://w3id.org/cdisc/cosmos/dss/EG/EGHRMN/EGSTRESC>,
        <https://w3id.org/cdisc/cosmos/dss/EG/EGHRMN/EGSTRESN>,
        <https://w3id.org/cdisc/cosmos/dss/EG/EGHRMN/EGSTRESU>,
        <https://w3id.org/cdisc/cosmos/dss/EG/EGHRMN/EGTEST>,
        <https://w3id.org/cdisc/cosmos/dss/EG/EGHRMN/EGTESTCD> .

<https://w3id.org/cdisc/cosmos/dss/EG/EGINTP> a cosmos_sdtm:SDTMGroup ;
    dcterms:identifier "EGINTP" ;
    rdf:_1 <https://w3id.org/cdisc/cosmos/dss/EG/EGINTP/EGTESTCD> ;
    rdf:_2 <https://w3id.org/cdisc/cosmos/dss/EG/EGINTP/EGTEST> ;
    rdf:_3 <https://w3id.org/cdisc/cosmos/dss/EG/EGINTP/EGORRES> ;
    rdf:_4 <https://w3id.org/cdisc/cosmos/dss/EG/EGINTP/EGSTRESC> ;
    rdf:_5 <https://w3id.org/cdisc/cosmos/dss/EG/EGINTP/EGCAT> ;
    rdf:_6 <https://w3id.org/cdisc/cosmos/dss/EG/EGINTP/EGMETHOD> ;
    rdf:_7 <https://w3id.org/cdisc/cosmos/dss/EG/EGINTP/EGEVAL> ;
    rdf:_8 <https://w3id.org/cdisc/cosmos/dss/EG/EGINTP/EGCLSIG> ;
    rdf:_9 <https://w3id.org/cdisc/cosmos/dss/EG/EGINTP/EGDTC> ;
    cosmos_sdtm:biomedicalConceptId NCIT:C181655 ;
    cosmos_sdtm:domain "EG" ;
    cosmos_sdtm:packageDate "2026-05-26"^^xsd:date ;
    cosmos_sdtm:packageType <https://www.cdisc.org/cosmos/sdtm_v1.0/PackageTypeEnum#sdtm> ;
    cosmos_sdtm:sdtmigStartVersion "3-4" ;
    cosmos_sdtm:shortName "ECG Interpretation" ;
    cosmos_sdtm:source "EG.EGTESTCD" ;
    cosmos_sdtm:variables <https://w3id.org/cdisc/cosmos/dss/EG/EGINTP/EGCAT>,
        <https://w3id.org/cdisc/cosmos/dss/EG/EGINTP/EGCLSIG>,
        <https://w3id.org/cdisc/cosmos/dss/EG/EGINTP/EGDTC>,
        <https://w3id.org/cdisc/cosmos/dss/EG/EGINTP/EGEVAL>,
        <https://w3id.org/cdisc/cosmos/dss/EG/EGINTP/EGMETHOD>,
        <https://w3id.org/cdisc/cosmos/dss/EG/EGINTP/EGORRES>,
        <https://w3id.org/cdisc/cosmos/dss/EG/EGINTP/EGSTRESC>,
        <https://w3id.org/cdisc/cosmos/dss/EG/EGINTP/EGTEST>,
        <https://w3id.org/cdisc/cosmos/dss/EG/EGINTP/EGTESTCD> .

<https://w3id.org/cdisc/cosmos/dss/EG/IVTIACD> a cosmos_sdtm:SDTMGroup ;
    dcterms:identifier "IVTIACD" ;
    rdf:_1 <https://w3id.org/cdisc/cosmos/dss/EG/IVTIACD/EGTESTCD> ;
    rdf:_2 <https://w3id.org/cdisc/cosmos/dss/EG/IVTIACD/EGTEST> ;
    rdf:_3 <https://w3id.org/cdisc/cosmos/dss/EG/IVTIACD/EGORRES> ;
    rdf:_4 <https://w3id.org/cdisc/cosmos/dss/EG/IVTIACD/EGSTRESC> ;
    rdf:_5 <https://w3id.org/cdisc/cosmos/dss/EG/IVTIACD/EGCAT> ;
    rdf:_6 <https://w3id.org/cdisc/cosmos/dss/EG/IVTIACD/EGPOS> ;
    rdf:_7 <https://w3id.org/cdisc/cosmos/dss/EG/IVTIACD/EGMETHOD> ;
    rdf:_8 <https://w3id.org/cdisc/cosmos/dss/EG/IVTIACD/EGEVAL> ;
    rdf:_9 <https://w3id.org/cdisc/cosmos/dss/EG/IVTIACD/EGDTC> ;
    cosmos_sdtm:biomedicalConceptId NCIT:C111238 ;
    cosmos_sdtm:domain "EG" ;
    cosmos_sdtm:packageDate "2026-05-26"^^xsd:date ;
    cosmos_sdtm:packageType <https://www.cdisc.org/cosmos/sdtm_v1.0/PackageTypeEnum#sdtm> ;
    cosmos_sdtm:sdtmigStartVersion "3-2" ;
    cosmos_sdtm:shortName "Intraventricular and Intraatrial Conduction ECG Assessment" ;
    cosmos_sdtm:source "EG.EGTESTCD" ;
    cosmos_sdtm:variables <https://w3id.org/cdisc/cosmos/dss/EG/IVTIACD/EGCAT>,
        <https://w3id.org/cdisc/cosmos/dss/EG/IVTIACD/EGDTC>,
        <https://w3id.org/cdisc/cosmos/dss/EG/IVTIACD/EGEVAL>,
        <https://w3id.org/cdisc/cosmos/dss/EG/IVTIACD/EGMETHOD>,
        <https://w3id.org/cdisc/cosmos/dss/EG/IVTIACD/EGORRES>,
        <https://w3id.org/cdisc/cosmos/dss/EG/IVTIACD/EGPOS>,
        <https://w3id.org/cdisc/cosmos/dss/EG/IVTIACD/EGSTRESC>,
        <https://w3id.org/cdisc/cosmos/dss/EG/IVTIACD/EGTEST>,
        <https://w3id.org/cdisc/cosmos/dss/EG/IVTIACD/EGTESTCD> .

<https://w3id.org/cdisc/cosmos/dss/EG/MI> a cosmos_sdtm:SDTMGroup ;
    dcterms:identifier "MI" ;
    rdf:_1 <https://w3id.org/cdisc/cosmos/dss/EG/MI/EGTESTCD> ;
    rdf:_2 <https://w3id.org/cdisc/cosmos/dss/EG/MI/EGTEST> ;
    rdf:_3 <https://w3id.org/cdisc/cosmos/dss/EG/MI/EGORRES> ;
    rdf:_4 <https://w3id.org/cdisc/cosmos/dss/EG/MI/EGSTRESC> ;
    rdf:_5 <https://w3id.org/cdisc/cosmos/dss/EG/MI/EGCAT> ;
    rdf:_6 <https://w3id.org/cdisc/cosmos/dss/EG/MI/EGPOS> ;
    rdf:_7 <https://w3id.org/cdisc/cosmos/dss/EG/MI/EGMETHOD> ;
    rdf:_8 <https://w3id.org/cdisc/cosmos/dss/EG/MI/EGEVAL> ;
    rdf:_9 <https://w3id.org/cdisc/cosmos/dss/EG/MI/EGDTC> ;
    cosmos_sdtm:biomedicalConceptId NCIT:C111280 ;
    cosmos_sdtm:domain "EG" ;
    cosmos_sdtm:packageDate "2026-05-26"^^xsd:date ;
    cosmos_sdtm:packageType <https://www.cdisc.org/cosmos/sdtm_v1.0/PackageTypeEnum#sdtm> ;
    cosmos_sdtm:sdtmigStartVersion "3-2" ;
    cosmos_sdtm:shortName "Myocardial Infarction ECG Assessment" ;
    cosmos_sdtm:source "EG.EGTESTCD" ;
    cosmos_sdtm:variables <https://w3id.org/cdisc/cosmos/dss/EG/MI/EGCAT>,
        <https://w3id.org/cdisc/cosmos/dss/EG/MI/EGDTC>,
        <https://w3id.org/cdisc/cosmos/dss/EG/MI/EGEVAL>,
        <https://w3id.org/cdisc/cosmos/dss/EG/MI/EGMETHOD>,
        <https://w3id.org/cdisc/cosmos/dss/EG/MI/EGORRES>,
        <https://w3id.org/cdisc/cosmos/dss/EG/MI/EGPOS>,
        <https://w3id.org/cdisc/cosmos/dss/EG/MI/EGSTRESC>,
        <https://w3id.org/cdisc/cosmos/dss/EG/MI/EGTEST>,
        <https://w3id.org/cdisc/cosmos/dss/EG/MI/EGTESTCD> .

<https://w3id.org/cdisc/cosmos/dss/EG/PACEMAKR> a cosmos_sdtm:SDTMGroup ;
    dcterms:identifier "PACEMAKR" ;
    rdf:_1 <https://w3id.org/cdisc/cosmos/dss/EG/PACEMAKR/EGTESTCD> ;
    rdf:_2 <https://w3id.org/cdisc/cosmos/dss/EG/PACEMAKR/EGTEST> ;
    rdf:_3 <https://w3id.org/cdisc/cosmos/dss/EG/PACEMAKR/EGORRES> ;
    rdf:_4 <https://w3id.org/cdisc/cosmos/dss/EG/PACEMAKR/EGSTRESC> ;
    rdf:_5 <https://w3id.org/cdisc/cosmos/dss/EG/PACEMAKR/EGCAT> ;
    rdf:_6 <https://w3id.org/cdisc/cosmos/dss/EG/PACEMAKR/EGPOS> ;
    rdf:_7 <https://w3id.org/cdisc/cosmos/dss/EG/PACEMAKR/EGMETHOD> ;
    rdf:_8 <https://w3id.org/cdisc/cosmos/dss/EG/PACEMAKR/EGEVAL> ;
    rdf:_9 <https://w3id.org/cdisc/cosmos/dss/EG/PACEMAKR/EGDTC> ;
    cosmos_sdtm:biomedicalConceptId NCIT:C111285 ;
    cosmos_sdtm:domain "EG" ;
    cosmos_sdtm:packageDate "2026-05-26"^^xsd:date ;
    cosmos_sdtm:packageType <https://www.cdisc.org/cosmos/sdtm_v1.0/PackageTypeEnum#sdtm> ;
    cosmos_sdtm:sdtmigStartVersion "3-2" ;
    cosmos_sdtm:shortName "Pacemaker ECG Assessment" ;
    cosmos_sdtm:source "EG.EGTESTCD" ;
    cosmos_sdtm:variables <https://w3id.org/cdisc/cosmos/dss/EG/PACEMAKR/EGCAT>,
        <https://w3id.org/cdisc/cosmos/dss/EG/PACEMAKR/EGDTC>,
        <https://w3id.org/cdisc/cosmos/dss/EG/PACEMAKR/EGEVAL>,
        <https://w3id.org/cdisc/cosmos/dss/EG/PACEMAKR/EGMETHOD>,
        <https://w3id.org/cdisc/cosmos/dss/EG/PACEMAKR/EGORRES>,
        <https://w3id.org/cdisc/cosmos/dss/EG/PACEMAKR/EGPOS>,
        <https://w3id.org/cdisc/cosmos/dss/EG/PACEMAKR/EGSTRESC>,
        <https://w3id.org/cdisc/cosmos/dss/EG/PACEMAKR/EGTEST>,
        <https://w3id.org/cdisc/cosmos/dss/EG/PACEMAKR/EGTESTCD> .

<https://w3id.org/cdisc/cosmos/dss/EG/PPSM> a cosmos_sdtm:SDTMGroup ;
    dcterms:identifier "PPSM" ;
    rdf:_1 <https://w3id.org/cdisc/cosmos/dss/EG/PPSM/EGTESTCD> ;
    rdf:_10 <https://w3id.org/cdisc/cosmos/dss/EG/PPSM/EGMETHOD> ;
    rdf:_11 <https://w3id.org/cdisc/cosmos/dss/EG/PPSM/EGEVAL> ;
    rdf:_12 <https://w3id.org/cdisc/cosmos/dss/EG/PPSM/EGDTC> ;
    rdf:_13 <https://w3id.org/cdisc/cosmos/dss/EG/PPSM/EGENDTC> ;
    rdf:_2 <https://w3id.org/cdisc/cosmos/dss/EG/PPSM/EGTEST> ;
    rdf:_3 <https://w3id.org/cdisc/cosmos/dss/EG/PPSM/EGORRES> ;
    rdf:_4 <https://w3id.org/cdisc/cosmos/dss/EG/PPSM/EGORRESU> ;
    rdf:_5 <https://w3id.org/cdisc/cosmos/dss/EG/PPSM/EGSTRESC> ;
    rdf:_6 <https://w3id.org/cdisc/cosmos/dss/EG/PPSM/EGSTRESN> ;
    rdf:_7 <https://w3id.org/cdisc/cosmos/dss/EG/PPSM/EGSTRESU> ;
    rdf:_8 <https://w3id.org/cdisc/cosmos/dss/EG/PPSM/EGCAT> ;
    rdf:_9 <https://w3id.org/cdisc/cosmos/dss/EG/PPSM/EGPOS> ;
    cosmos_sdtm:biomedicalConceptId NCIT:C117772 ;
    cosmos_sdtm:domain "EG" ;
    cosmos_sdtm:packageDate "2026-05-26"^^xsd:date ;
    cosmos_sdtm:packageType <https://www.cdisc.org/cosmos/sdtm_v1.0/PackageTypeEnum#sdtm> ;
    cosmos_sdtm:sdtmigStartVersion "3-2" ;
    cosmos_sdtm:shortName "PP Interval, Single Measurement" ;
    cosmos_sdtm:source "EG.EGTESTCD" ;
    cosmos_sdtm:variables <https://w3id.org/cdisc/cosmos/dss/EG/PPSM/EGCAT>,
        <https://w3id.org/cdisc/cosmos/dss/EG/PPSM/EGDTC>,
        <https://w3id.org/cdisc/cosmos/dss/EG/PPSM/EGENDTC>,
        <https://w3id.org/cdisc/cosmos/dss/EG/PPSM/EGEVAL>,
        <https://w3id.org/cdisc/cosmos/dss/EG/PPSM/EGMETHOD>,
        <https://w3id.org/cdisc/cosmos/dss/EG/PPSM/EGORRES>,
        <https://w3id.org/cdisc/cosmos/dss/EG/PPSM/EGORRESU>,
        <https://w3id.org/cdisc/cosmos/dss/EG/PPSM/EGPOS>,
        <https://w3id.org/cdisc/cosmos/dss/EG/PPSM/EGSTRESC>,
        <https://w3id.org/cdisc/cosmos/dss/EG/PPSM/EGSTRESN>,
        <https://w3id.org/cdisc/cosmos/dss/EG/PPSM/EGSTRESU>,
        <https://w3id.org/cdisc/cosmos/dss/EG/PPSM/EGTEST>,
        <https://w3id.org/cdisc/cosmos/dss/EG/PPSM/EGTESTCD> .

<https://w3id.org/cdisc/cosmos/dss/EG/PRAG> a cosmos_sdtm:SDTMGroup ;
    dcterms:identifier "PRAG" ;
    rdf:_1 <https://w3id.org/cdisc/cosmos/dss/EG/PRAG/EGTESTCD> ;
    rdf:_10 <https://w3id.org/cdisc/cosmos/dss/EG/PRAG/EGMETHOD> ;
    rdf:_11 <https://w3id.org/cdisc/cosmos/dss/EG/PRAG/EGEVAL> ;
    rdf:_12 <https://w3id.org/cdisc/cosmos/dss/EG/PRAG/EGDTC> ;
    rdf:_13 <https://w3id.org/cdisc/cosmos/dss/EG/PRAG/EGENDTC> ;
    rdf:_2 <https://w3id.org/cdisc/cosmos/dss/EG/PRAG/EGTEST> ;
    rdf:_3 <https://w3id.org/cdisc/cosmos/dss/EG/PRAG/EGORRES> ;
    rdf:_4 <https://w3id.org/cdisc/cosmos/dss/EG/PRAG/EGORRESU> ;
    rdf:_5 <https://w3id.org/cdisc/cosmos/dss/EG/PRAG/EGSTRESC> ;
    rdf:_6 <https://w3id.org/cdisc/cosmos/dss/EG/PRAG/EGSTRESN> ;
    rdf:_7 <https://w3id.org/cdisc/cosmos/dss/EG/PRAG/EGSTRESU> ;
    rdf:_8 <https://w3id.org/cdisc/cosmos/dss/EG/PRAG/EGCAT> ;
    rdf:_9 <https://w3id.org/cdisc/cosmos/dss/EG/PRAG/EGPOS> ;
    cosmos_sdtm:biomedicalConceptId NCIT:C117773 ;
    cosmos_sdtm:domain "EG" ;
    cosmos_sdtm:packageDate "2026-05-26"^^xsd:date ;
    cosmos_sdtm:packageType <https://www.cdisc.org/cosmos/sdtm_v1.0/PackageTypeEnum#sdtm> ;
    cosmos_sdtm:sdtmigStartVersion "3-2" ;
    cosmos_sdtm:shortName "PR Interval Aggregate" ;
    cosmos_sdtm:source "EG.EGTESTCD" ;
    cosmos_sdtm:variables <https://w3id.org/cdisc/cosmos/dss/EG/PRAG/EGCAT>,
        <https://w3id.org/cdisc/cosmos/dss/EG/PRAG/EGDTC>,
        <https://w3id.org/cdisc/cosmos/dss/EG/PRAG/EGENDTC>,
        <https://w3id.org/cdisc/cosmos/dss/EG/PRAG/EGEVAL>,
        <https://w3id.org/cdisc/cosmos/dss/EG/PRAG/EGMETHOD>,
        <https://w3id.org/cdisc/cosmos/dss/EG/PRAG/EGORRES>,
        <https://w3id.org/cdisc/cosmos/dss/EG/PRAG/EGORRESU>,
        <https://w3id.org/cdisc/cosmos/dss/EG/PRAG/EGPOS>,
        <https://w3id.org/cdisc/cosmos/dss/EG/PRAG/EGSTRESC>,
        <https://w3id.org/cdisc/cosmos/dss/EG/PRAG/EGSTRESN>,
        <https://w3id.org/cdisc/cosmos/dss/EG/PRAG/EGSTRESU>,
        <https://w3id.org/cdisc/cosmos/dss/EG/PRAG/EGTEST>,
        <https://w3id.org/cdisc/cosmos/dss/EG/PRAG/EGTESTCD> .

<https://w3id.org/cdisc/cosmos/dss/EG/PRSB> a cosmos_sdtm:SDTMGroup ;
    dcterms:identifier "PRSB" ;
    rdf:_1 <https://w3id.org/cdisc/cosmos/dss/EG/PRSB/EGTESTCD> ;
    rdf:_10 <https://w3id.org/cdisc/cosmos/dss/EG/PRSB/EGMETHOD> ;
    rdf:_11 <https://w3id.org/cdisc/cosmos/dss/EG/PRSB/EGEVAL> ;
    rdf:_12 <https://w3id.org/cdisc/cosmos/dss/EG/PRSB/EGDTC> ;
    rdf:_13 <https://w3id.org/cdisc/cosmos/dss/EG/PRSB/EGENDTC> ;
    rdf:_2 <https://w3id.org/cdisc/cosmos/dss/EG/PRSB/EGTEST> ;
    rdf:_3 <https://w3id.org/cdisc/cosmos/dss/EG/PRSB/EGORRES> ;
    rdf:_4 <https://w3id.org/cdisc/cosmos/dss/EG/PRSB/EGORRESU> ;
    rdf:_5 <https://w3id.org/cdisc/cosmos/dss/EG/PRSB/EGSTRESC> ;
    rdf:_6 <https://w3id.org/cdisc/cosmos/dss/EG/PRSB/EGSTRESN> ;
    rdf:_7 <https://w3id.org/cdisc/cosmos/dss/EG/PRSB/EGSTRESU> ;
    rdf:_8 <https://w3id.org/cdisc/cosmos/dss/EG/PRSB/EGCAT> ;
    rdf:_9 <https://w3id.org/cdisc/cosmos/dss/EG/PRSB/EGPOS> ;
    cosmos_sdtm:biomedicalConceptId NCIT:C117774 ;
    cosmos_sdtm:domain "EG" ;
    cosmos_sdtm:packageDate "2026-05-26"^^xsd:date ;
    cosmos_sdtm:packageType <https://www.cdisc.org/cosmos/sdtm_v1.0/PackageTypeEnum#sdtm> ;
    cosmos_sdtm:sdtmigStartVersion "3-2" ;
    cosmos_sdtm:shortName "PR Interval, Single Beat" ;
    cosmos_sdtm:source "EG.EGTESTCD" ;
    cosmos_sdtm:variables <https://w3id.org/cdisc/cosmos/dss/EG/PRSB/EGCAT>,
        <https://w3id.org/cdisc/cosmos/dss/EG/PRSB/EGDTC>,
        <https://w3id.org/cdisc/cosmos/dss/EG/PRSB/EGENDTC>,
        <https://w3id.org/cdisc/cosmos/dss/EG/PRSB/EGEVAL>,
        <https://w3id.org/cdisc/cosmos/dss/EG/PRSB/EGMETHOD>,
        <https://w3id.org/cdisc/cosmos/dss/EG/PRSB/EGORRES>,
        <https://w3id.org/cdisc/cosmos/dss/EG/PRSB/EGORRESU>,
        <https://w3id.org/cdisc/cosmos/dss/EG/PRSB/EGPOS>,
        <https://w3id.org/cdisc/cosmos/dss/EG/PRSB/EGSTRESC>,
        <https://w3id.org/cdisc/cosmos/dss/EG/PRSB/EGSTRESN>,
        <https://w3id.org/cdisc/cosmos/dss/EG/PRSB/EGSTRESU>,
        <https://w3id.org/cdisc/cosmos/dss/EG/PRSB/EGTEST>,
        <https://w3id.org/cdisc/cosmos/dss/EG/PRSB/EGTESTCD> .

<https://w3id.org/cdisc/cosmos/dss/EG/PWDURSB> a cosmos_sdtm:SDTMGroup ;
    dcterms:identifier "PWDURSB" ;
    rdf:_1 <https://w3id.org/cdisc/cosmos/dss/EG/PWDURSB/EGTESTCD> ;
    rdf:_10 <https://w3id.org/cdisc/cosmos/dss/EG/PWDURSB/EGMETHOD> ;
    rdf:_11 <https://w3id.org/cdisc/cosmos/dss/EG/PWDURSB/EGEVAL> ;
    rdf:_12 <https://w3id.org/cdisc/cosmos/dss/EG/PWDURSB/EGDTC> ;
    rdf:_13 <https://w3id.org/cdisc/cosmos/dss/EG/PWDURSB/EGENDTC> ;
    rdf:_2 <https://w3id.org/cdisc/cosmos/dss/EG/PWDURSB/EGTEST> ;
    rdf:_3 <https://w3id.org/cdisc/cosmos/dss/EG/PWDURSB/EGORRES> ;
    rdf:_4 <https://w3id.org/cdisc/cosmos/dss/EG/PWDURSB/EGORRESU> ;
    rdf:_5 <https://w3id.org/cdisc/cosmos/dss/EG/PWDURSB/EGSTRESC> ;
    rdf:_6 <https://w3id.org/cdisc/cosmos/dss/EG/PWDURSB/EGSTRESN> ;
    rdf:_7 <https://w3id.org/cdisc/cosmos/dss/EG/PWDURSB/EGSTRESU> ;
    rdf:_8 <https://w3id.org/cdisc/cosmos/dss/EG/PWDURSB/EGCAT> ;
    rdf:_9 <https://w3id.org/cdisc/cosmos/dss/EG/PWDURSB/EGPOS> ;
    cosmos_sdtm:biomedicalConceptId NCIT:C117776 ;
    cosmos_sdtm:domain "EG" ;
    cosmos_sdtm:packageDate "2026-05-26"^^xsd:date ;
    cosmos_sdtm:packageType <https://www.cdisc.org/cosmos/sdtm_v1.0/PackageTypeEnum#sdtm> ;
    cosmos_sdtm:sdtmigStartVersion "3-2" ;
    cosmos_sdtm:shortName "P Wave Duration, Single Beat" ;
    cosmos_sdtm:source "EG.EGTESTCD" ;
    cosmos_sdtm:variables <https://w3id.org/cdisc/cosmos/dss/EG/PWDURSB/EGCAT>,
        <https://w3id.org/cdisc/cosmos/dss/EG/PWDURSB/EGDTC>,
        <https://w3id.org/cdisc/cosmos/dss/EG/PWDURSB/EGENDTC>,
        <https://w3id.org/cdisc/cosmos/dss/EG/PWDURSB/EGEVAL>,
        <https://w3id.org/cdisc/cosmos/dss/EG/PWDURSB/EGMETHOD>,
        <https://w3id.org/cdisc/cosmos/dss/EG/PWDURSB/EGORRES>,
        <https://w3id.org/cdisc/cosmos/dss/EG/PWDURSB/EGORRESU>,
        <https://w3id.org/cdisc/cosmos/dss/EG/PWDURSB/EGPOS>,
        <https://w3id.org/cdisc/cosmos/dss/EG/PWDURSB/EGSTRESC>,
        <https://w3id.org/cdisc/cosmos/dss/EG/PWDURSB/EGSTRESN>,
        <https://w3id.org/cdisc/cosmos/dss/EG/PWDURSB/EGSTRESU>,
        <https://w3id.org/cdisc/cosmos/dss/EG/PWDURSB/EGTEST>,
        <https://w3id.org/cdisc/cosmos/dss/EG/PWDURSB/EGTESTCD> .

<https://w3id.org/cdisc/cosmos/dss/EG/QRSAG> a cosmos_sdtm:SDTMGroup ;
    dcterms:identifier "QRSAG" ;
    rdf:_1 <https://w3id.org/cdisc/cosmos/dss/EG/QRSAG/EGTESTCD> ;
    rdf:_10 <https://w3id.org/cdisc/cosmos/dss/EG/QRSAG/EGMETHOD> ;
    rdf:_11 <https://w3id.org/cdisc/cosmos/dss/EG/QRSAG/EGEVAL> ;
    rdf:_12 <https://w3id.org/cdisc/cosmos/dss/EG/QRSAG/EGDTC> ;
    rdf:_13 <https://w3id.org/cdisc/cosmos/dss/EG/QRSAG/EGENDTC> ;
    rdf:_2 <https://w3id.org/cdisc/cosmos/dss/EG/QRSAG/EGTEST> ;
    rdf:_3 <https://w3id.org/cdisc/cosmos/dss/EG/QRSAG/EGORRES> ;
    rdf:_4 <https://w3id.org/cdisc/cosmos/dss/EG/QRSAG/EGORRESU> ;
    rdf:_5 <https://w3id.org/cdisc/cosmos/dss/EG/QRSAG/EGSTRESC> ;
    rdf:_6 <https://w3id.org/cdisc/cosmos/dss/EG/QRSAG/EGSTRESN> ;
    rdf:_7 <https://w3id.org/cdisc/cosmos/dss/EG/QRSAG/EGSTRESU> ;
    rdf:_8 <https://w3id.org/cdisc/cosmos/dss/EG/QRSAG/EGCAT> ;
    rdf:_9 <https://w3id.org/cdisc/cosmos/dss/EG/QRSAG/EGPOS> ;
    cosmos_sdtm:biomedicalConceptId NCIT:C117779 ;
    cosmos_sdtm:domain "EG" ;
    cosmos_sdtm:packageDate "2026-05-26"^^xsd:date ;
    cosmos_sdtm:packageType <https://www.cdisc.org/cosmos/sdtm_v1.0/PackageTypeEnum#sdtm> ;
    cosmos_sdtm:sdtmigStartVersion "3-2" ;
    cosmos_sdtm:shortName "QRS Duration Aggregate" ;
    cosmos_sdtm:source "EG.EGTESTCD" ;
    cosmos_sdtm:variables <https://w3id.org/cdisc/cosmos/dss/EG/QRSAG/EGCAT>,
        <https://w3id.org/cdisc/cosmos/dss/EG/QRSAG/EGDTC>,
        <https://w3id.org/cdisc/cosmos/dss/EG/QRSAG/EGENDTC>,
        <https://w3id.org/cdisc/cosmos/dss/EG/QRSAG/EGEVAL>,
        <https://w3id.org/cdisc/cosmos/dss/EG/QRSAG/EGMETHOD>,
        <https://w3id.org/cdisc/cosmos/dss/EG/QRSAG/EGORRES>,
        <https://w3id.org/cdisc/cosmos/dss/EG/QRSAG/EGORRESU>,
        <https://w3id.org/cdisc/cosmos/dss/EG/QRSAG/EGPOS>,
        <https://w3id.org/cdisc/cosmos/dss/EG/QRSAG/EGSTRESC>,
        <https://w3id.org/cdisc/cosmos/dss/EG/QRSAG/EGSTRESN>,
        <https://w3id.org/cdisc/cosmos/dss/EG/QRSAG/EGSTRESU>,
        <https://w3id.org/cdisc/cosmos/dss/EG/QRSAG/EGTEST>,
        <https://w3id.org/cdisc/cosmos/dss/EG/QRSAG/EGTESTCD> .

<https://w3id.org/cdisc/cosmos/dss/EG/QRSSB> a cosmos_sdtm:SDTMGroup ;
    dcterms:identifier "QRSSB" ;
    rdf:_1 <https://w3id.org/cdisc/cosmos/dss/EG/QRSSB/EGTESTCD> ;
    rdf:_10 <https://w3id.org/cdisc/cosmos/dss/EG/QRSSB/EGMETHOD> ;
    rdf:_11 <https://w3id.org/cdisc/cosmos/dss/EG/QRSSB/EGEVAL> ;
    rdf:_12 <https://w3id.org/cdisc/cosmos/dss/EG/QRSSB/EGDTC> ;
    rdf:_13 <https://w3id.org/cdisc/cosmos/dss/EG/QRSSB/EGENDTC> ;
    rdf:_2 <https://w3id.org/cdisc/cosmos/dss/EG/QRSSB/EGTEST> ;
    rdf:_3 <https://w3id.org/cdisc/cosmos/dss/EG/QRSSB/EGORRES> ;
    rdf:_4 <https://w3id.org/cdisc/cosmos/dss/EG/QRSSB/EGORRESU> ;
    rdf:_5 <https://w3id.org/cdisc/cosmos/dss/EG/QRSSB/EGSTRESC> ;
    rdf:_6 <https://w3id.org/cdisc/cosmos/dss/EG/QRSSB/EGSTRESN> ;
    rdf:_7 <https://w3id.org/cdisc/cosmos/dss/EG/QRSSB/EGSTRESU> ;
    rdf:_8 <https://w3id.org/cdisc/cosmos/dss/EG/QRSSB/EGCAT> ;
    rdf:_9 <https://w3id.org/cdisc/cosmos/dss/EG/QRSSB/EGPOS> ;
    cosmos_sdtm:biomedicalConceptId NCIT:C117780 ;
    cosmos_sdtm:domain "EG" ;
    cosmos_sdtm:packageDate "2026-05-26"^^xsd:date ;
    cosmos_sdtm:packageType <https://www.cdisc.org/cosmos/sdtm_v1.0/PackageTypeEnum#sdtm> ;
    cosmos_sdtm:sdtmigStartVersion "3-2" ;
    cosmos_sdtm:shortName "QRS Duration, Single Beat" ;
    cosmos_sdtm:source "EG.EGTESTCD" ;
    cosmos_sdtm:variables <https://w3id.org/cdisc/cosmos/dss/EG/QRSSB/EGCAT>,
        <https://w3id.org/cdisc/cosmos/dss/EG/QRSSB/EGDTC>,
        <https://w3id.org/cdisc/cosmos/dss/EG/QRSSB/EGENDTC>,
        <https://w3id.org/cdisc/cosmos/dss/EG/QRSSB/EGEVAL>,
        <https://w3id.org/cdisc/cosmos/dss/EG/QRSSB/EGMETHOD>,
        <https://w3id.org/cdisc/cosmos/dss/EG/QRSSB/EGORRES>,
        <https://w3id.org/cdisc/cosmos/dss/EG/QRSSB/EGORRESU>,
        <https://w3id.org/cdisc/cosmos/dss/EG/QRSSB/EGPOS>,
        <https://w3id.org/cdisc/cosmos/dss/EG/QRSSB/EGSTRESC>,
        <https://w3id.org/cdisc/cosmos/dss/EG/QRSSB/EGSTRESN>,
        <https://w3id.org/cdisc/cosmos/dss/EG/QRSSB/EGSTRESU>,
        <https://w3id.org/cdisc/cosmos/dss/EG/QRSSB/EGTEST>,
        <https://w3id.org/cdisc/cosmos/dss/EG/QRSSB/EGTESTCD> .

<https://w3id.org/cdisc/cosmos/dss/EG/QRS_AXIS> a cosmos_sdtm:SDTMGroup ;
    dcterms:identifier "QRS_AXIS" ;
    rdf:_1 <https://w3id.org/cdisc/cosmos/dss/EG/QRS_AXIS/EGTESTCD> ;
    rdf:_10 <https://w3id.org/cdisc/cosmos/dss/EG/QRS_AXIS/EGMETHOD> ;
    rdf:_11 <https://w3id.org/cdisc/cosmos/dss/EG/QRS_AXIS/EGEVAL> ;
    rdf:_12 <https://w3id.org/cdisc/cosmos/dss/EG/QRS_AXIS/EGDTC> ;
    rdf:_2 <https://w3id.org/cdisc/cosmos/dss/EG/QRS_AXIS/EGTEST> ;
    rdf:_3 <https://w3id.org/cdisc/cosmos/dss/EG/QRS_AXIS/EGORRES> ;
    rdf:_4 <https://w3id.org/cdisc/cosmos/dss/EG/QRS_AXIS/EGORRESU> ;
    rdf:_5 <https://w3id.org/cdisc/cosmos/dss/EG/QRS_AXIS/EGSTRESC> ;
    rdf:_6 <https://w3id.org/cdisc/cosmos/dss/EG/QRS_AXIS/EGSTRESN> ;
    rdf:_7 <https://w3id.org/cdisc/cosmos/dss/EG/QRS_AXIS/EGSTRESU> ;
    rdf:_8 <https://w3id.org/cdisc/cosmos/dss/EG/QRS_AXIS/EGCAT> ;
    rdf:_9 <https://w3id.org/cdisc/cosmos/dss/EG/QRS_AXIS/EGPOS> ;
    cosmos_sdtm:biomedicalConceptId NCIT:C118165 ;
    cosmos_sdtm:domain "EG" ;
    cosmos_sdtm:packageDate "2026-05-26"^^xsd:date ;
    cosmos_sdtm:packageType <https://www.cdisc.org/cosmos/sdtm_v1.0/PackageTypeEnum#sdtm> ;
    cosmos_sdtm:sdtmigStartVersion "3-2" ;
    cosmos_sdtm:shortName "QRS Axis" ;
    cosmos_sdtm:source "EG.EGTESTCD" ;
    cosmos_sdtm:variables <https://w3id.org/cdisc/cosmos/dss/EG/QRS_AXIS/EGCAT>,
        <https://w3id.org/cdisc/cosmos/dss/EG/QRS_AXIS/EGDTC>,
        <https://w3id.org/cdisc/cosmos/dss/EG/QRS_AXIS/EGEVAL>,
        <https://w3id.org/cdisc/cosmos/dss/EG/QRS_AXIS/EGMETHOD>,
        <https://w3id.org/cdisc/cosmos/dss/EG/QRS_AXIS/EGORRES>,
        <https://w3id.org/cdisc/cosmos/dss/EG/QRS_AXIS/EGORRESU>,
        <https://w3id.org/cdisc/cosmos/dss/EG/QRS_AXIS/EGPOS>,
        <https://w3id.org/cdisc/cosmos/dss/EG/QRS_AXIS/EGSTRESC>,
        <https://w3id.org/cdisc/cosmos/dss/EG/QRS_AXIS/EGSTRESN>,
        <https://w3id.org/cdisc/cosmos/dss/EG/QRS_AXIS/EGSTRESU>,
        <https://w3id.org/cdisc/cosmos/dss/EG/QRS_AXIS/EGTEST>,
        <https://w3id.org/cdisc/cosmos/dss/EG/QRS_AXIS/EGTESTCD> .

<https://w3id.org/cdisc/cosmos/dss/EG/QTAG> a cosmos_sdtm:SDTMGroup ;
    dcterms:identifier "QTAG" ;
    rdf:_1 <https://w3id.org/cdisc/cosmos/dss/EG/QTAG/EGTESTCD> ;
    rdf:_10 <https://w3id.org/cdisc/cosmos/dss/EG/QTAG/EGMETHOD> ;
    rdf:_11 <https://w3id.org/cdisc/cosmos/dss/EG/QTAG/EGEVAL> ;
    rdf:_12 <https://w3id.org/cdisc/cosmos/dss/EG/QTAG/EGDTC> ;
    rdf:_13 <https://w3id.org/cdisc/cosmos/dss/EG/QTAG/EGENDTC> ;
    rdf:_2 <https://w3id.org/cdisc/cosmos/dss/EG/QTAG/EGTEST> ;
    rdf:_3 <https://w3id.org/cdisc/cosmos/dss/EG/QTAG/EGORRES> ;
    rdf:_4 <https://w3id.org/cdisc/cosmos/dss/EG/QTAG/EGORRESU> ;
    rdf:_5 <https://w3id.org/cdisc/cosmos/dss/EG/QTAG/EGSTRESC> ;
    rdf:_6 <https://w3id.org/cdisc/cosmos/dss/EG/QTAG/EGSTRESN> ;
    rdf:_7 <https://w3id.org/cdisc/cosmos/dss/EG/QTAG/EGSTRESU> ;
    rdf:_8 <https://w3id.org/cdisc/cosmos/dss/EG/QTAG/EGCAT> ;
    rdf:_9 <https://w3id.org/cdisc/cosmos/dss/EG/QTAG/EGPOS> ;
    cosmos_sdtm:biomedicalConceptId NCIT:C117783 ;
    cosmos_sdtm:domain "EG" ;
    cosmos_sdtm:packageDate "2026-05-26"^^xsd:date ;
    cosmos_sdtm:packageType <https://www.cdisc.org/cosmos/sdtm_v1.0/PackageTypeEnum#sdtm> ;
    cosmos_sdtm:sdtmigStartVersion "3-2" ;
    cosmos_sdtm:shortName "QT Interval Aggregate" ;
    cosmos_sdtm:source "EG.EGTESTCD" ;
    cosmos_sdtm:variables <https://w3id.org/cdisc/cosmos/dss/EG/QTAG/EGCAT>,
        <https://w3id.org/cdisc/cosmos/dss/EG/QTAG/EGDTC>,
        <https://w3id.org/cdisc/cosmos/dss/EG/QTAG/EGENDTC>,
        <https://w3id.org/cdisc/cosmos/dss/EG/QTAG/EGEVAL>,
        <https://w3id.org/cdisc/cosmos/dss/EG/QTAG/EGMETHOD>,
        <https://w3id.org/cdisc/cosmos/dss/EG/QTAG/EGORRES>,
        <https://w3id.org/cdisc/cosmos/dss/EG/QTAG/EGORRESU>,
        <https://w3id.org/cdisc/cosmos/dss/EG/QTAG/EGPOS>,
        <https://w3id.org/cdisc/cosmos/dss/EG/QTAG/EGSTRESC>,
        <https://w3id.org/cdisc/cosmos/dss/EG/QTAG/EGSTRESN>,
        <https://w3id.org/cdisc/cosmos/dss/EG/QTAG/EGSTRESU>,
        <https://w3id.org/cdisc/cosmos/dss/EG/QTAG/EGTEST>,
        <https://w3id.org/cdisc/cosmos/dss/EG/QTAG/EGTESTCD> .

<https://w3id.org/cdisc/cosmos/dss/EG/QTCBAG> a cosmos_sdtm:SDTMGroup ;
    dcterms:identifier "QTCBAG" ;
    rdf:_1 <https://w3id.org/cdisc/cosmos/dss/EG/QTCBAG/EGTESTCD> ;
    rdf:_10 <https://w3id.org/cdisc/cosmos/dss/EG/QTCBAG/EGMETHOD> ;
    rdf:_11 <https://w3id.org/cdisc/cosmos/dss/EG/QTCBAG/EGEVAL> ;
    rdf:_12 <https://w3id.org/cdisc/cosmos/dss/EG/QTCBAG/EGDTC> ;
    rdf:_13 <https://w3id.org/cdisc/cosmos/dss/EG/QTCBAG/EGENDTC> ;
    rdf:_2 <https://w3id.org/cdisc/cosmos/dss/EG/QTCBAG/EGTEST> ;
    rdf:_3 <https://w3id.org/cdisc/cosmos/dss/EG/QTCBAG/EGORRES> ;
    rdf:_4 <https://w3id.org/cdisc/cosmos/dss/EG/QTCBAG/EGORRESU> ;
    rdf:_5 <https://w3id.org/cdisc/cosmos/dss/EG/QTCBAG/EGSTRESC> ;
    rdf:_6 <https://w3id.org/cdisc/cosmos/dss/EG/QTCBAG/EGSTRESN> ;
    rdf:_7 <https://w3id.org/cdisc/cosmos/dss/EG/QTCBAG/EGSTRESU> ;
    rdf:_8 <https://w3id.org/cdisc/cosmos/dss/EG/QTCBAG/EGCAT> ;
    rdf:_9 <https://w3id.org/cdisc/cosmos/dss/EG/QTCBAG/EGPOS> ;
    cosmos_sdtm:biomedicalConceptId NCIT:C117784 ;
    cosmos_sdtm:domain "EG" ;
    cosmos_sdtm:packageDate "2026-05-26"^^xsd:date ;
    cosmos_sdtm:packageType <https://www.cdisc.org/cosmos/sdtm_v1.0/PackageTypeEnum#sdtm> ;
    cosmos_sdtm:sdtmigStartVersion "3-2" ;
    cosmos_sdtm:shortName "QTCB Interval Aggregate" ;
    cosmos_sdtm:source "EG.EGTESTCD" ;
    cosmos_sdtm:variables <https://w3id.org/cdisc/cosmos/dss/EG/QTCBAG/EGCAT>,
        <https://w3id.org/cdisc/cosmos/dss/EG/QTCBAG/EGDTC>,
        <https://w3id.org/cdisc/cosmos/dss/EG/QTCBAG/EGENDTC>,
        <https://w3id.org/cdisc/cosmos/dss/EG/QTCBAG/EGEVAL>,
        <https://w3id.org/cdisc/cosmos/dss/EG/QTCBAG/EGMETHOD>,
        <https://w3id.org/cdisc/cosmos/dss/EG/QTCBAG/EGORRES>,
        <https://w3id.org/cdisc/cosmos/dss/EG/QTCBAG/EGORRESU>,
        <https://w3id.org/cdisc/cosmos/dss/EG/QTCBAG/EGPOS>,
        <https://w3id.org/cdisc/cosmos/dss/EG/QTCBAG/EGSTRESC>,
        <https://w3id.org/cdisc/cosmos/dss/EG/QTCBAG/EGSTRESN>,
        <https://w3id.org/cdisc/cosmos/dss/EG/QTCBAG/EGSTRESU>,
        <https://w3id.org/cdisc/cosmos/dss/EG/QTCBAG/EGTEST>,
        <https://w3id.org/cdisc/cosmos/dss/EG/QTCBAG/EGTESTCD> .

<https://w3id.org/cdisc/cosmos/dss/EG/QTCBSB> a cosmos_sdtm:SDTMGroup ;
    dcterms:identifier "QTCBSB" ;
    rdf:_1 <https://w3id.org/cdisc/cosmos/dss/EG/QTCBSB/EGTESTCD> ;
    rdf:_10 <https://w3id.org/cdisc/cosmos/dss/EG/QTCBSB/EGMETHOD> ;
    rdf:_11 <https://w3id.org/cdisc/cosmos/dss/EG/QTCBSB/EGEVAL> ;
    rdf:_12 <https://w3id.org/cdisc/cosmos/dss/EG/QTCBSB/EGDTC> ;
    rdf:_13 <https://w3id.org/cdisc/cosmos/dss/EG/QTCBSB/EGENDTC> ;
    rdf:_2 <https://w3id.org/cdisc/cosmos/dss/EG/QTCBSB/EGTEST> ;
    rdf:_3 <https://w3id.org/cdisc/cosmos/dss/EG/QTCBSB/EGORRES> ;
    rdf:_4 <https://w3id.org/cdisc/cosmos/dss/EG/QTCBSB/EGORRESU> ;
    rdf:_5 <https://w3id.org/cdisc/cosmos/dss/EG/QTCBSB/EGSTRESC> ;
    rdf:_6 <https://w3id.org/cdisc/cosmos/dss/EG/QTCBSB/EGSTRESN> ;
    rdf:_7 <https://w3id.org/cdisc/cosmos/dss/EG/QTCBSB/EGSTRESU> ;
    rdf:_8 <https://w3id.org/cdisc/cosmos/dss/EG/QTCBSB/EGCAT> ;
    rdf:_9 <https://w3id.org/cdisc/cosmos/dss/EG/QTCBSB/EGPOS> ;
    cosmos_sdtm:biomedicalConceptId NCIT:C117785 ;
    cosmos_sdtm:domain "EG" ;
    cosmos_sdtm:packageDate "2026-05-26"^^xsd:date ;
    cosmos_sdtm:packageType <https://www.cdisc.org/cosmos/sdtm_v1.0/PackageTypeEnum#sdtm> ;
    cosmos_sdtm:sdtmigStartVersion "3-2" ;
    cosmos_sdtm:shortName "QTcB Interval, Single Beat" ;
    cosmos_sdtm:source "EG.EGTESTCD" ;
    cosmos_sdtm:variables <https://w3id.org/cdisc/cosmos/dss/EG/QTCBSB/EGCAT>,
        <https://w3id.org/cdisc/cosmos/dss/EG/QTCBSB/EGDTC>,
        <https://w3id.org/cdisc/cosmos/dss/EG/QTCBSB/EGENDTC>,
        <https://w3id.org/cdisc/cosmos/dss/EG/QTCBSB/EGEVAL>,
        <https://w3id.org/cdisc/cosmos/dss/EG/QTCBSB/EGMETHOD>,
        <https://w3id.org/cdisc/cosmos/dss/EG/QTCBSB/EGORRES>,
        <https://w3id.org/cdisc/cosmos/dss/EG/QTCBSB/EGORRESU>,
        <https://w3id.org/cdisc/cosmos/dss/EG/QTCBSB/EGPOS>,
        <https://w3id.org/cdisc/cosmos/dss/EG/QTCBSB/EGSTRESC>,
        <https://w3id.org/cdisc/cosmos/dss/EG/QTCBSB/EGSTRESN>,
        <https://w3id.org/cdisc/cosmos/dss/EG/QTCBSB/EGSTRESU>,
        <https://w3id.org/cdisc/cosmos/dss/EG/QTCBSB/EGTEST>,
        <https://w3id.org/cdisc/cosmos/dss/EG/QTCBSB/EGTESTCD> .

<https://w3id.org/cdisc/cosmos/dss/EG/QTCFAG> a cosmos_sdtm:SDTMGroup ;
    dcterms:identifier "QTCFAG" ;
    rdf:_1 <https://w3id.org/cdisc/cosmos/dss/EG/QTCFAG/EGTESTCD> ;
    rdf:_10 <https://w3id.org/cdisc/cosmos/dss/EG/QTCFAG/EGMETHOD> ;
    rdf:_11 <https://w3id.org/cdisc/cosmos/dss/EG/QTCFAG/EGEVAL> ;
    rdf:_12 <https://w3id.org/cdisc/cosmos/dss/EG/QTCFAG/EGDTC> ;
    rdf:_13 <https://w3id.org/cdisc/cosmos/dss/EG/QTCFAG/EGENDTC> ;
    rdf:_2 <https://w3id.org/cdisc/cosmos/dss/EG/QTCFAG/EGTEST> ;
    rdf:_3 <https://w3id.org/cdisc/cosmos/dss/EG/QTCFAG/EGORRES> ;
    rdf:_4 <https://w3id.org/cdisc/cosmos/dss/EG/QTCFAG/EGORRESU> ;
    rdf:_5 <https://w3id.org/cdisc/cosmos/dss/EG/QTCFAG/EGSTRESC> ;
    rdf:_6 <https://w3id.org/cdisc/cosmos/dss/EG/QTCFAG/EGSTRESN> ;
    rdf:_7 <https://w3id.org/cdisc/cosmos/dss/EG/QTCFAG/EGSTRESU> ;
    rdf:_8 <https://w3id.org/cdisc/cosmos/dss/EG/QTCFAG/EGCAT> ;
    rdf:_9 <https://w3id.org/cdisc/cosmos/dss/EG/QTCFAG/EGPOS> ;
    cosmos_sdtm:biomedicalConceptId NCIT:C117786 ;
    cosmos_sdtm:domain "EG" ;
    cosmos_sdtm:packageDate "2026-05-26"^^xsd:date ;
    cosmos_sdtm:packageType <https://www.cdisc.org/cosmos/sdtm_v1.0/PackageTypeEnum#sdtm> ;
    cosmos_sdtm:sdtmigStartVersion "3-2" ;
    cosmos_sdtm:shortName "QTCF Interval Aggregate" ;
    cosmos_sdtm:source "EG.EGTESTCD" ;
    cosmos_sdtm:variables <https://w3id.org/cdisc/cosmos/dss/EG/QTCFAG/EGCAT>,
        <https://w3id.org/cdisc/cosmos/dss/EG/QTCFAG/EGDTC>,
        <https://w3id.org/cdisc/cosmos/dss/EG/QTCFAG/EGENDTC>,
        <https://w3id.org/cdisc/cosmos/dss/EG/QTCFAG/EGEVAL>,
        <https://w3id.org/cdisc/cosmos/dss/EG/QTCFAG/EGMETHOD>,
        <https://w3id.org/cdisc/cosmos/dss/EG/QTCFAG/EGORRES>,
        <https://w3id.org/cdisc/cosmos/dss/EG/QTCFAG/EGORRESU>,
        <https://w3id.org/cdisc/cosmos/dss/EG/QTCFAG/EGPOS>,
        <https://w3id.org/cdisc/cosmos/dss/EG/QTCFAG/EGSTRESC>,
        <https://w3id.org/cdisc/cosmos/dss/EG/QTCFAG/EGSTRESN>,
        <https://w3id.org/cdisc/cosmos/dss/EG/QTCFAG/EGSTRESU>,
        <https://w3id.org/cdisc/cosmos/dss/EG/QTCFAG/EGTEST>,
        <https://w3id.org/cdisc/cosmos/dss/EG/QTCFAG/EGTESTCD> .

<https://w3id.org/cdisc/cosmos/dss/EG/QTCFSB> a cosmos_sdtm:SDTMGroup ;
    dcterms:identifier "QTCFSB" ;
    rdf:_1 <https://w3id.org/cdisc/cosmos/dss/EG/QTCFSB/EGTESTCD> ;
    rdf:_10 <https://w3id.org/cdisc/cosmos/dss/EG/QTCFSB/EGMETHOD> ;
    rdf:_11 <https://w3id.org/cdisc/cosmos/dss/EG/QTCFSB/EGEVAL> ;
    rdf:_12 <https://w3id.org/cdisc/cosmos/dss/EG/QTCFSB/EGDTC> ;
    rdf:_13 <https://w3id.org/cdisc/cosmos/dss/EG/QTCFSB/EGENDTC> ;
    rdf:_2 <https://w3id.org/cdisc/cosmos/dss/EG/QTCFSB/EGTEST> ;
    rdf:_3 <https://w3id.org/cdisc/cosmos/dss/EG/QTCFSB/EGORRES> ;
    rdf:_4 <https://w3id.org/cdisc/cosmos/dss/EG/QTCFSB/EGORRESU> ;
    rdf:_5 <https://w3id.org/cdisc/cosmos/dss/EG/QTCFSB/EGSTRESC> ;
    rdf:_6 <https://w3id.org/cdisc/cosmos/dss/EG/QTCFSB/EGSTRESN> ;
    rdf:_7 <https://w3id.org/cdisc/cosmos/dss/EG/QTCFSB/EGSTRESU> ;
    rdf:_8 <https://w3id.org/cdisc/cosmos/dss/EG/QTCFSB/EGCAT> ;
    rdf:_9 <https://w3id.org/cdisc/cosmos/dss/EG/QTCFSB/EGPOS> ;
    cosmos_sdtm:biomedicalConceptId NCIT:C117787 ;
    cosmos_sdtm:domain "EG" ;
    cosmos_sdtm:packageDate "2026-05-26"^^xsd:date ;
    cosmos_sdtm:packageType <https://www.cdisc.org/cosmos/sdtm_v1.0/PackageTypeEnum#sdtm> ;
    cosmos_sdtm:sdtmigStartVersion "3-2" ;
    cosmos_sdtm:shortName "QTcF Interval, Single Beat" ;
    cosmos_sdtm:source "EG.EGTESTCD" ;
    cosmos_sdtm:variables <https://w3id.org/cdisc/cosmos/dss/EG/QTCFSB/EGCAT>,
        <https://w3id.org/cdisc/cosmos/dss/EG/QTCFSB/EGDTC>,
        <https://w3id.org/cdisc/cosmos/dss/EG/QTCFSB/EGENDTC>,
        <https://w3id.org/cdisc/cosmos/dss/EG/QTCFSB/EGEVAL>,
        <https://w3id.org/cdisc/cosmos/dss/EG/QTCFSB/EGMETHOD>,
        <https://w3id.org/cdisc/cosmos/dss/EG/QTCFSB/EGORRES>,
        <https://w3id.org/cdisc/cosmos/dss/EG/QTCFSB/EGORRESU>,
        <https://w3id.org/cdisc/cosmos/dss/EG/QTCFSB/EGPOS>,
        <https://w3id.org/cdisc/cosmos/dss/EG/QTCFSB/EGSTRESC>,
        <https://w3id.org/cdisc/cosmos/dss/EG/QTCFSB/EGSTRESN>,
        <https://w3id.org/cdisc/cosmos/dss/EG/QTCFSB/EGSTRESU>,
        <https://w3id.org/cdisc/cosmos/dss/EG/QTCFSB/EGTEST>,
        <https://w3id.org/cdisc/cosmos/dss/EG/QTCFSB/EGTESTCD> .

<https://w3id.org/cdisc/cosmos/dss/EG/QTCUNSAG> a cosmos_sdtm:SDTMGroup ;
    dcterms:identifier "QTCUNSAG" ;
    rdf:_1 <https://w3id.org/cdisc/cosmos/dss/EG/QTCUNSAG/EGTESTCD> ;
    rdf:_10 <https://w3id.org/cdisc/cosmos/dss/EG/QTCUNSAG/EGMETHOD> ;
    rdf:_11 <https://w3id.org/cdisc/cosmos/dss/EG/QTCUNSAG/EGEVAL> ;
    rdf:_12 <https://w3id.org/cdisc/cosmos/dss/EG/QTCUNSAG/EGDTC> ;
    rdf:_13 <https://w3id.org/cdisc/cosmos/dss/EG/QTCUNSAG/EGENDTC> ;
    rdf:_2 <https://w3id.org/cdisc/cosmos/dss/EG/QTCUNSAG/EGTEST> ;
    rdf:_3 <https://w3id.org/cdisc/cosmos/dss/EG/QTCUNSAG/EGORRES> ;
    rdf:_4 <https://w3id.org/cdisc/cosmos/dss/EG/QTCUNSAG/EGORRESU> ;
    rdf:_5 <https://w3id.org/cdisc/cosmos/dss/EG/QTCUNSAG/EGSTRESC> ;
    rdf:_6 <https://w3id.org/cdisc/cosmos/dss/EG/QTCUNSAG/EGSTRESN> ;
    rdf:_7 <https://w3id.org/cdisc/cosmos/dss/EG/QTCUNSAG/EGSTRESU> ;
    rdf:_8 <https://w3id.org/cdisc/cosmos/dss/EG/QTCUNSAG/EGCAT> ;
    rdf:_9 <https://w3id.org/cdisc/cosmos/dss/EG/QTCUNSAG/EGPOS> ;
    cosmos_sdtm:biomedicalConceptId NCIT:C174285 ;
    cosmos_sdtm:domain "EG" ;
    cosmos_sdtm:packageDate "2026-05-26"^^xsd:date ;
    cosmos_sdtm:packageType <https://www.cdisc.org/cosmos/sdtm_v1.0/PackageTypeEnum#sdtm> ;
    cosmos_sdtm:sdtmigStartVersion "3-2" ;
    cosmos_sdtm:shortName "QTC Aggregate Method Unspecified" ;
    cosmos_sdtm:source "EG.EGTESTCD" ;
    cosmos_sdtm:variables <https://w3id.org/cdisc/cosmos/dss/EG/QTCUNSAG/EGCAT>,
        <https://w3id.org/cdisc/cosmos/dss/EG/QTCUNSAG/EGDTC>,
        <https://w3id.org/cdisc/cosmos/dss/EG/QTCUNSAG/EGENDTC>,
        <https://w3id.org/cdisc/cosmos/dss/EG/QTCUNSAG/EGEVAL>,
        <https://w3id.org/cdisc/cosmos/dss/EG/QTCUNSAG/EGMETHOD>,
        <https://w3id.org/cdisc/cosmos/dss/EG/QTCUNSAG/EGORRES>,
        <https://w3id.org/cdisc/cosmos/dss/EG/QTCUNSAG/EGORRESU>,
        <https://w3id.org/cdisc/cosmos/dss/EG/QTCUNSAG/EGPOS>,
        <https://w3id.org/cdisc/cosmos/dss/EG/QTCUNSAG/EGSTRESC>,
        <https://w3id.org/cdisc/cosmos/dss/EG/QTCUNSAG/EGSTRESN>,
        <https://w3id.org/cdisc/cosmos/dss/EG/QTCUNSAG/EGSTRESU>,
        <https://w3id.org/cdisc/cosmos/dss/EG/QTCUNSAG/EGTEST>,
        <https://w3id.org/cdisc/cosmos/dss/EG/QTCUNSAG/EGTESTCD> .

<https://w3id.org/cdisc/cosmos/dss/EG/QTCUNSSB> a cosmos_sdtm:SDTMGroup ;
    dcterms:identifier "QTCUNSSB" ;
    rdf:_1 <https://w3id.org/cdisc/cosmos/dss/EG/QTCUNSSB/EGTESTCD> ;
    rdf:_10 <https://w3id.org/cdisc/cosmos/dss/EG/QTCUNSSB/EGMETHOD> ;
    rdf:_11 <https://w3id.org/cdisc/cosmos/dss/EG/QTCUNSSB/EGEVAL> ;
    rdf:_12 <https://w3id.org/cdisc/cosmos/dss/EG/QTCUNSSB/EGDTC> ;
    rdf:_13 <https://w3id.org/cdisc/cosmos/dss/EG/QTCUNSSB/EGENDTC> ;
    rdf:_2 <https://w3id.org/cdisc/cosmos/dss/EG/QTCUNSSB/EGTEST> ;
    rdf:_3 <https://w3id.org/cdisc/cosmos/dss/EG/QTCUNSSB/EGORRES> ;
    rdf:_4 <https://w3id.org/cdisc/cosmos/dss/EG/QTCUNSSB/EGORRESU> ;
    rdf:_5 <https://w3id.org/cdisc/cosmos/dss/EG/QTCUNSSB/EGSTRESC> ;
    rdf:_6 <https://w3id.org/cdisc/cosmos/dss/EG/QTCUNSSB/EGSTRESN> ;
    rdf:_7 <https://w3id.org/cdisc/cosmos/dss/EG/QTCUNSSB/EGSTRESU> ;
    rdf:_8 <https://w3id.org/cdisc/cosmos/dss/EG/QTCUNSSB/EGCAT> ;
    rdf:_9 <https://w3id.org/cdisc/cosmos/dss/EG/QTCUNSSB/EGPOS> ;
    cosmos_sdtm:biomedicalConceptId NCIT:C174286 ;
    cosmos_sdtm:domain "EG" ;
    cosmos_sdtm:packageDate "2026-05-26"^^xsd:date ;
    cosmos_sdtm:packageType <https://www.cdisc.org/cosmos/sdtm_v1.0/PackageTypeEnum#sdtm> ;
    cosmos_sdtm:sdtmigStartVersion "3-2" ;
    cosmos_sdtm:shortName "QTc Corr Method Unspecified, Single Beat" ;
    cosmos_sdtm:source "EG.EGTESTCD" ;
    cosmos_sdtm:variables <https://w3id.org/cdisc/cosmos/dss/EG/QTCUNSSB/EGCAT>,
        <https://w3id.org/cdisc/cosmos/dss/EG/QTCUNSSB/EGDTC>,
        <https://w3id.org/cdisc/cosmos/dss/EG/QTCUNSSB/EGENDTC>,
        <https://w3id.org/cdisc/cosmos/dss/EG/QTCUNSSB/EGEVAL>,
        <https://w3id.org/cdisc/cosmos/dss/EG/QTCUNSSB/EGMETHOD>,
        <https://w3id.org/cdisc/cosmos/dss/EG/QTCUNSSB/EGORRES>,
        <https://w3id.org/cdisc/cosmos/dss/EG/QTCUNSSB/EGORRESU>,
        <https://w3id.org/cdisc/cosmos/dss/EG/QTCUNSSB/EGPOS>,
        <https://w3id.org/cdisc/cosmos/dss/EG/QTCUNSSB/EGSTRESC>,
        <https://w3id.org/cdisc/cosmos/dss/EG/QTCUNSSB/EGSTRESN>,
        <https://w3id.org/cdisc/cosmos/dss/EG/QTCUNSSB/EGSTRESU>,
        <https://w3id.org/cdisc/cosmos/dss/EG/QTCUNSSB/EGTEST>,
        <https://w3id.org/cdisc/cosmos/dss/EG/QTCUNSSB/EGTESTCD> .

<https://w3id.org/cdisc/cosmos/dss/EG/QTSB> a cosmos_sdtm:SDTMGroup ;
    dcterms:identifier "QTSB" ;
    rdf:_1 <https://w3id.org/cdisc/cosmos/dss/EG/QTSB/EGTESTCD> ;
    rdf:_10 <https://w3id.org/cdisc/cosmos/dss/EG/QTSB/EGMETHOD> ;
    rdf:_11 <https://w3id.org/cdisc/cosmos/dss/EG/QTSB/EGEVAL> ;
    rdf:_12 <https://w3id.org/cdisc/cosmos/dss/EG/QTSB/EGDTC> ;
    rdf:_13 <https://w3id.org/cdisc/cosmos/dss/EG/QTSB/EGENDTC> ;
    rdf:_2 <https://w3id.org/cdisc/cosmos/dss/EG/QTSB/EGTEST> ;
    rdf:_3 <https://w3id.org/cdisc/cosmos/dss/EG/QTSB/EGORRES> ;
    rdf:_4 <https://w3id.org/cdisc/cosmos/dss/EG/QTSB/EGORRESU> ;
    rdf:_5 <https://w3id.org/cdisc/cosmos/dss/EG/QTSB/EGSTRESC> ;
    rdf:_6 <https://w3id.org/cdisc/cosmos/dss/EG/QTSB/EGSTRESN> ;
    rdf:_7 <https://w3id.org/cdisc/cosmos/dss/EG/QTSB/EGSTRESU> ;
    rdf:_8 <https://w3id.org/cdisc/cosmos/dss/EG/QTSB/EGCAT> ;
    rdf:_9 <https://w3id.org/cdisc/cosmos/dss/EG/QTSB/EGPOS> ;
    cosmos_sdtm:biomedicalConceptId NCIT:C117788 ;
    cosmos_sdtm:domain "EG" ;
    cosmos_sdtm:packageDate "2026-05-26"^^xsd:date ;
    cosmos_sdtm:packageType <https://www.cdisc.org/cosmos/sdtm_v1.0/PackageTypeEnum#sdtm> ;
    cosmos_sdtm:sdtmigStartVersion "3-2" ;
    cosmos_sdtm:shortName "QT Interval, Single Beat" ;
    cosmos_sdtm:source "EG.EGTESTCD" ;
    cosmos_sdtm:variables <https://w3id.org/cdisc/cosmos/dss/EG/QTSB/EGCAT>,
        <https://w3id.org/cdisc/cosmos/dss/EG/QTSB/EGDTC>,
        <https://w3id.org/cdisc/cosmos/dss/EG/QTSB/EGENDTC>,
        <https://w3id.org/cdisc/cosmos/dss/EG/QTSB/EGEVAL>,
        <https://w3id.org/cdisc/cosmos/dss/EG/QTSB/EGMETHOD>,
        <https://w3id.org/cdisc/cosmos/dss/EG/QTSB/EGORRES>,
        <https://w3id.org/cdisc/cosmos/dss/EG/QTSB/EGORRESU>,
        <https://w3id.org/cdisc/cosmos/dss/EG/QTSB/EGPOS>,
        <https://w3id.org/cdisc/cosmos/dss/EG/QTSB/EGSTRESC>,
        <https://w3id.org/cdisc/cosmos/dss/EG/QTSB/EGSTRESN>,
        <https://w3id.org/cdisc/cosmos/dss/EG/QTSB/EGSTRESU>,
        <https://w3id.org/cdisc/cosmos/dss/EG/QTSB/EGTEST>,
        <https://w3id.org/cdisc/cosmos/dss/EG/QTSB/EGTESTCD> .

<https://w3id.org/cdisc/cosmos/dss/EG/RHYNOS> a cosmos_sdtm:SDTMGroup ;
    dcterms:identifier "RHYNOS" ;
    rdf:_1 <https://w3id.org/cdisc/cosmos/dss/EG/RHYNOS/EGTESTCD> ;
    rdf:_2 <https://w3id.org/cdisc/cosmos/dss/EG/RHYNOS/EGTEST> ;
    rdf:_3 <https://w3id.org/cdisc/cosmos/dss/EG/RHYNOS/EGORRES> ;
    rdf:_4 <https://w3id.org/cdisc/cosmos/dss/EG/RHYNOS/EGSTRESC> ;
    rdf:_5 <https://w3id.org/cdisc/cosmos/dss/EG/RHYNOS/EGCAT> ;
    rdf:_6 <https://w3id.org/cdisc/cosmos/dss/EG/RHYNOS/EGPOS> ;
    rdf:_7 <https://w3id.org/cdisc/cosmos/dss/EG/RHYNOS/EGMETHOD> ;
    rdf:_8 <https://w3id.org/cdisc/cosmos/dss/EG/RHYNOS/EGEVAL> ;
    rdf:_9 <https://w3id.org/cdisc/cosmos/dss/EG/RHYNOS/EGDTC> ;
    cosmos_sdtm:biomedicalConceptId NCIT:C111307 ;
    cosmos_sdtm:domain "EG" ;
    cosmos_sdtm:packageDate "2026-05-26"^^xsd:date ;
    cosmos_sdtm:packageType <https://www.cdisc.org/cosmos/sdtm_v1.0/PackageTypeEnum#sdtm> ;
    cosmos_sdtm:sdtmigStartVersion "3-2" ;
    cosmos_sdtm:shortName "Rhythm Not Otherwise Specified ECG Assessment" ;
    cosmos_sdtm:source "EG.EGTESTCD" ;
    cosmos_sdtm:variables <https://w3id.org/cdisc/cosmos/dss/EG/RHYNOS/EGCAT>,
        <https://w3id.org/cdisc/cosmos/dss/EG/RHYNOS/EGDTC>,
        <https://w3id.org/cdisc/cosmos/dss/EG/RHYNOS/EGEVAL>,
        <https://w3id.org/cdisc/cosmos/dss/EG/RHYNOS/EGMETHOD>,
        <https://w3id.org/cdisc/cosmos/dss/EG/RHYNOS/EGORRES>,
        <https://w3id.org/cdisc/cosmos/dss/EG/RHYNOS/EGPOS>,
        <https://w3id.org/cdisc/cosmos/dss/EG/RHYNOS/EGSTRESC>,
        <https://w3id.org/cdisc/cosmos/dss/EG/RHYNOS/EGTEST>,
        <https://w3id.org/cdisc/cosmos/dss/EG/RHYNOS/EGTESTCD> .

<https://w3id.org/cdisc/cosmos/dss/EG/RRAG> a cosmos_sdtm:SDTMGroup ;
    dcterms:identifier "RRAG" ;
    rdf:_1 <https://w3id.org/cdisc/cosmos/dss/EG/RRAG/EGTESTCD> ;
    rdf:_10 <https://w3id.org/cdisc/cosmos/dss/EG/RRAG/EGMETHOD> ;
    rdf:_11 <https://w3id.org/cdisc/cosmos/dss/EG/RRAG/EGEVAL> ;
    rdf:_12 <https://w3id.org/cdisc/cosmos/dss/EG/RRAG/EGDTC> ;
    rdf:_13 <https://w3id.org/cdisc/cosmos/dss/EG/RRAG/EGENDTC> ;
    rdf:_2 <https://w3id.org/cdisc/cosmos/dss/EG/RRAG/EGTEST> ;
    rdf:_3 <https://w3id.org/cdisc/cosmos/dss/EG/RRAG/EGORRES> ;
    rdf:_4 <https://w3id.org/cdisc/cosmos/dss/EG/RRAG/EGORRESU> ;
    rdf:_5 <https://w3id.org/cdisc/cosmos/dss/EG/RRAG/EGSTRESC> ;
    rdf:_6 <https://w3id.org/cdisc/cosmos/dss/EG/RRAG/EGSTRESN> ;
    rdf:_7 <https://w3id.org/cdisc/cosmos/dss/EG/RRAG/EGSTRESU> ;
    rdf:_8 <https://w3id.org/cdisc/cosmos/dss/EG/RRAG/EGCAT> ;
    rdf:_9 <https://w3id.org/cdisc/cosmos/dss/EG/RRAG/EGPOS> ;
    cosmos_sdtm:biomedicalConceptId NCIT:C117791 ;
    cosmos_sdtm:domain "EG" ;
    cosmos_sdtm:packageDate "2026-05-26"^^xsd:date ;
    cosmos_sdtm:packageType <https://www.cdisc.org/cosmos/sdtm_v1.0/PackageTypeEnum#sdtm> ;
    cosmos_sdtm:sdtmigStartVersion "3-2" ;
    cosmos_sdtm:shortName "RR Interval Aggregate" ;
    cosmos_sdtm:source "EG.EGTESTCD" ;
    cosmos_sdtm:variables <https://w3id.org/cdisc/cosmos/dss/EG/RRAG/EGCAT>,
        <https://w3id.org/cdisc/cosmos/dss/EG/RRAG/EGDTC>,
        <https://w3id.org/cdisc/cosmos/dss/EG/RRAG/EGENDTC>,
        <https://w3id.org/cdisc/cosmos/dss/EG/RRAG/EGEVAL>,
        <https://w3id.org/cdisc/cosmos/dss/EG/RRAG/EGMETHOD>,
        <https://w3id.org/cdisc/cosmos/dss/EG/RRAG/EGORRES>,
        <https://w3id.org/cdisc/cosmos/dss/EG/RRAG/EGORRESU>,
        <https://w3id.org/cdisc/cosmos/dss/EG/RRAG/EGPOS>,
        <https://w3id.org/cdisc/cosmos/dss/EG/RRAG/EGSTRESC>,
        <https://w3id.org/cdisc/cosmos/dss/EG/RRAG/EGSTRESN>,
        <https://w3id.org/cdisc/cosmos/dss/EG/RRAG/EGSTRESU>,
        <https://w3id.org/cdisc/cosmos/dss/EG/RRAG/EGTEST>,
        <https://w3id.org/cdisc/cosmos/dss/EG/RRAG/EGTESTCD> .

<https://w3id.org/cdisc/cosmos/dss/EG/RRSM> a cosmos_sdtm:SDTMGroup ;
    dcterms:identifier "RRSM" ;
    rdf:_1 <https://w3id.org/cdisc/cosmos/dss/EG/RRSM/EGTESTCD> ;
    rdf:_10 <https://w3id.org/cdisc/cosmos/dss/EG/RRSM/EGMETHOD> ;
    rdf:_11 <https://w3id.org/cdisc/cosmos/dss/EG/RRSM/EGEVAL> ;
    rdf:_12 <https://w3id.org/cdisc/cosmos/dss/EG/RRSM/EGDTC> ;
    rdf:_13 <https://w3id.org/cdisc/cosmos/dss/EG/RRSM/EGENDTC> ;
    rdf:_2 <https://w3id.org/cdisc/cosmos/dss/EG/RRSM/EGTEST> ;
    rdf:_3 <https://w3id.org/cdisc/cosmos/dss/EG/RRSM/EGORRES> ;
    rdf:_4 <https://w3id.org/cdisc/cosmos/dss/EG/RRSM/EGORRESU> ;
    rdf:_5 <https://w3id.org/cdisc/cosmos/dss/EG/RRSM/EGSTRESC> ;
    rdf:_6 <https://w3id.org/cdisc/cosmos/dss/EG/RRSM/EGSTRESN> ;
    rdf:_7 <https://w3id.org/cdisc/cosmos/dss/EG/RRSM/EGSTRESU> ;
    rdf:_8 <https://w3id.org/cdisc/cosmos/dss/EG/RRSM/EGCAT> ;
    rdf:_9 <https://w3id.org/cdisc/cosmos/dss/EG/RRSM/EGPOS> ;
    cosmos_sdtm:biomedicalConceptId NCIT:C117792 ;
    cosmos_sdtm:domain "EG" ;
    cosmos_sdtm:packageDate "2026-05-26"^^xsd:date ;
    cosmos_sdtm:packageType <https://www.cdisc.org/cosmos/sdtm_v1.0/PackageTypeEnum#sdtm> ;
    cosmos_sdtm:sdtmigStartVersion "3-2" ;
    cosmos_sdtm:shortName "RR Interval, Single Measurement" ;
    cosmos_sdtm:source "EG.EGTESTCD" ;
    cosmos_sdtm:variables <https://w3id.org/cdisc/cosmos/dss/EG/RRSM/EGCAT>,
        <https://w3id.org/cdisc/cosmos/dss/EG/RRSM/EGDTC>,
        <https://w3id.org/cdisc/cosmos/dss/EG/RRSM/EGENDTC>,
        <https://w3id.org/cdisc/cosmos/dss/EG/RRSM/EGEVAL>,
        <https://w3id.org/cdisc/cosmos/dss/EG/RRSM/EGMETHOD>,
        <https://w3id.org/cdisc/cosmos/dss/EG/RRSM/EGORRES>,
        <https://w3id.org/cdisc/cosmos/dss/EG/RRSM/EGORRESU>,
        <https://w3id.org/cdisc/cosmos/dss/EG/RRSM/EGPOS>,
        <https://w3id.org/cdisc/cosmos/dss/EG/RRSM/EGSTRESC>,
        <https://w3id.org/cdisc/cosmos/dss/EG/RRSM/EGSTRESN>,
        <https://w3id.org/cdisc/cosmos/dss/EG/RRSM/EGSTRESU>,
        <https://w3id.org/cdisc/cosmos/dss/EG/RRSM/EGTEST>,
        <https://w3id.org/cdisc/cosmos/dss/EG/RRSM/EGTESTCD> .

<https://w3id.org/cdisc/cosmos/dss/EG/SNRARRY> a cosmos_sdtm:SDTMGroup ;
    dcterms:identifier "SNRARRY" ;
    rdf:_1 <https://w3id.org/cdisc/cosmos/dss/EG/SNRARRY/EGTESTCD> ;
    rdf:_2 <https://w3id.org/cdisc/cosmos/dss/EG/SNRARRY/EGTEST> ;
    rdf:_3 <https://w3id.org/cdisc/cosmos/dss/EG/SNRARRY/EGORRES> ;
    rdf:_4 <https://w3id.org/cdisc/cosmos/dss/EG/SNRARRY/EGSTRESC> ;
    rdf:_5 <https://w3id.org/cdisc/cosmos/dss/EG/SNRARRY/EGCAT> ;
    rdf:_6 <https://w3id.org/cdisc/cosmos/dss/EG/SNRARRY/EGPOS> ;
    rdf:_7 <https://w3id.org/cdisc/cosmos/dss/EG/SNRARRY/EGMETHOD> ;
    rdf:_8 <https://w3id.org/cdisc/cosmos/dss/EG/SNRARRY/EGEVAL> ;
    rdf:_9 <https://w3id.org/cdisc/cosmos/dss/EG/SNRARRY/EGDTC> ;
    cosmos_sdtm:biomedicalConceptId NCIT:C111312 ;
    cosmos_sdtm:domain "EG" ;
    cosmos_sdtm:packageDate "2026-05-26"^^xsd:date ;
    cosmos_sdtm:packageType <https://www.cdisc.org/cosmos/sdtm_v1.0/PackageTypeEnum#sdtm> ;
    cosmos_sdtm:sdtmigStartVersion "3-2" ;
    cosmos_sdtm:shortName "Sinus Node Rhythm and Arrhythmia ECG Assessment" ;
    cosmos_sdtm:source "EG.EGTESTCD" ;
    cosmos_sdtm:variables <https://w3id.org/cdisc/cosmos/dss/EG/SNRARRY/EGCAT>,
        <https://w3id.org/cdisc/cosmos/dss/EG/SNRARRY/EGDTC>,
        <https://w3id.org/cdisc/cosmos/dss/EG/SNRARRY/EGEVAL>,
        <https://w3id.org/cdisc/cosmos/dss/EG/SNRARRY/EGMETHOD>,
        <https://w3id.org/cdisc/cosmos/dss/EG/SNRARRY/EGORRES>,
        <https://w3id.org/cdisc/cosmos/dss/EG/SNRARRY/EGPOS>,
        <https://w3id.org/cdisc/cosmos/dss/EG/SNRARRY/EGSTRESC>,
        <https://w3id.org/cdisc/cosmos/dss/EG/SNRARRY/EGTEST>,
        <https://w3id.org/cdisc/cosmos/dss/EG/SNRARRY/EGTESTCD> .

<https://w3id.org/cdisc/cosmos/dss/EG/SPRARRY> a cosmos_sdtm:SDTMGroup ;
    dcterms:identifier "SPRARRY" ;
    rdf:_1 <https://w3id.org/cdisc/cosmos/dss/EG/SPRARRY/EGTESTCD> ;
    rdf:_2 <https://w3id.org/cdisc/cosmos/dss/EG/SPRARRY/EGTEST> ;
    rdf:_3 <https://w3id.org/cdisc/cosmos/dss/EG/SPRARRY/EGORRES> ;
    rdf:_4 <https://w3id.org/cdisc/cosmos/dss/EG/SPRARRY/EGSTRESC> ;
    rdf:_5 <https://w3id.org/cdisc/cosmos/dss/EG/SPRARRY/EGCAT> ;
    rdf:_6 <https://w3id.org/cdisc/cosmos/dss/EG/SPRARRY/EGPOS> ;
    rdf:_7 <https://w3id.org/cdisc/cosmos/dss/EG/SPRARRY/EGMETHOD> ;
    rdf:_8 <https://w3id.org/cdisc/cosmos/dss/EG/SPRARRY/EGEVAL> ;
    rdf:_9 <https://w3id.org/cdisc/cosmos/dss/EG/SPRARRY/EGDTC> ;
    cosmos_sdtm:biomedicalConceptId NCIT:C111320 ;
    cosmos_sdtm:domain "EG" ;
    cosmos_sdtm:packageDate "2026-05-26"^^xsd:date ;
    cosmos_sdtm:packageType <https://www.cdisc.org/cosmos/sdtm_v1.0/PackageTypeEnum#sdtm> ;
    cosmos_sdtm:sdtmigStartVersion "3-2" ;
    cosmos_sdtm:shortName "Supraventricular Arrhythmia ECG Assessment" ;
    cosmos_sdtm:source "EG.EGTESTCD" ;
    cosmos_sdtm:variables <https://w3id.org/cdisc/cosmos/dss/EG/SPRARRY/EGCAT>,
        <https://w3id.org/cdisc/cosmos/dss/EG/SPRARRY/EGDTC>,
        <https://w3id.org/cdisc/cosmos/dss/EG/SPRARRY/EGEVAL>,
        <https://w3id.org/cdisc/cosmos/dss/EG/SPRARRY/EGMETHOD>,
        <https://w3id.org/cdisc/cosmos/dss/EG/SPRARRY/EGORRES>,
        <https://w3id.org/cdisc/cosmos/dss/EG/SPRARRY/EGPOS>,
        <https://w3id.org/cdisc/cosmos/dss/EG/SPRARRY/EGSTRESC>,
        <https://w3id.org/cdisc/cosmos/dss/EG/SPRARRY/EGTEST>,
        <https://w3id.org/cdisc/cosmos/dss/EG/SPRARRY/EGTESTCD> .

<https://w3id.org/cdisc/cosmos/dss/EG/SPRTARRY> a cosmos_sdtm:SDTMGroup ;
    dcterms:identifier "SPRTARRY" ;
    rdf:_1 <https://w3id.org/cdisc/cosmos/dss/EG/SPRTARRY/EGTESTCD> ;
    rdf:_2 <https://w3id.org/cdisc/cosmos/dss/EG/SPRTARRY/EGTEST> ;
    rdf:_3 <https://w3id.org/cdisc/cosmos/dss/EG/SPRTARRY/EGORRES> ;
    rdf:_4 <https://w3id.org/cdisc/cosmos/dss/EG/SPRTARRY/EGSTRESC> ;
    rdf:_5 <https://w3id.org/cdisc/cosmos/dss/EG/SPRTARRY/EGCAT> ;
    rdf:_6 <https://w3id.org/cdisc/cosmos/dss/EG/SPRTARRY/EGPOS> ;
    rdf:_7 <https://w3id.org/cdisc/cosmos/dss/EG/SPRTARRY/EGMETHOD> ;
    rdf:_8 <https://w3id.org/cdisc/cosmos/dss/EG/SPRTARRY/EGEVAL> ;
    rdf:_9 <https://w3id.org/cdisc/cosmos/dss/EG/SPRTARRY/EGDTC> ;
    cosmos_sdtm:biomedicalConceptId NCIT:C111321 ;
    cosmos_sdtm:domain "EG" ;
    cosmos_sdtm:packageDate "2026-05-26"^^xsd:date ;
    cosmos_sdtm:packageType <https://www.cdisc.org/cosmos/sdtm_v1.0/PackageTypeEnum#sdtm> ;
    cosmos_sdtm:sdtmigStartVersion "3-2" ;
    cosmos_sdtm:shortName "Supraventricular Tachyarrhythmia ECG Assessment" ;
    cosmos_sdtm:source "EG.EGTESTCD" ;
    cosmos_sdtm:variables <https://w3id.org/cdisc/cosmos/dss/EG/SPRTARRY/EGCAT>,
        <https://w3id.org/cdisc/cosmos/dss/EG/SPRTARRY/EGDTC>,
        <https://w3id.org/cdisc/cosmos/dss/EG/SPRTARRY/EGEVAL>,
        <https://w3id.org/cdisc/cosmos/dss/EG/SPRTARRY/EGMETHOD>,
        <https://w3id.org/cdisc/cosmos/dss/EG/SPRTARRY/EGORRES>,
        <https://w3id.org/cdisc/cosmos/dss/EG/SPRTARRY/EGPOS>,
        <https://w3id.org/cdisc/cosmos/dss/EG/SPRTARRY/EGSTRESC>,
        <https://w3id.org/cdisc/cosmos/dss/EG/SPRTARRY/EGTEST>,
        <https://w3id.org/cdisc/cosmos/dss/EG/SPRTARRY/EGTESTCD> .

<https://w3id.org/cdisc/cosmos/dss/EG/STSTWUW> a cosmos_sdtm:SDTMGroup ;
    dcterms:identifier "STSTWUW" ;
    rdf:_1 <https://w3id.org/cdisc/cosmos/dss/EG/STSTWUW/EGTESTCD> ;
    rdf:_2 <https://w3id.org/cdisc/cosmos/dss/EG/STSTWUW/EGTEST> ;
    rdf:_3 <https://w3id.org/cdisc/cosmos/dss/EG/STSTWUW/EGORRES> ;
    rdf:_4 <https://w3id.org/cdisc/cosmos/dss/EG/STSTWUW/EGSTRESC> ;
    rdf:_5 <https://w3id.org/cdisc/cosmos/dss/EG/STSTWUW/EGCAT> ;
    rdf:_6 <https://w3id.org/cdisc/cosmos/dss/EG/STSTWUW/EGPOS> ;
    rdf:_7 <https://w3id.org/cdisc/cosmos/dss/EG/STSTWUW/EGMETHOD> ;
    rdf:_8 <https://w3id.org/cdisc/cosmos/dss/EG/STSTWUW/EGEVAL> ;
    rdf:_9 <https://w3id.org/cdisc/cosmos/dss/EG/STSTWUW/EGDTC> ;
    cosmos_sdtm:biomedicalConceptId NCIT:C111363 ;
    cosmos_sdtm:domain "EG" ;
    cosmos_sdtm:packageDate "2026-05-26"^^xsd:date ;
    cosmos_sdtm:packageType <https://www.cdisc.org/cosmos/sdtm_v1.0/PackageTypeEnum#sdtm> ;
    cosmos_sdtm:sdtmigStartVersion "3-2" ;
    cosmos_sdtm:shortName "ST Segment, T wave, and U wave ECG Assessment" ;
    cosmos_sdtm:source "EG.EGTESTCD" ;
    cosmos_sdtm:variables <https://w3id.org/cdisc/cosmos/dss/EG/STSTWUW/EGCAT>,
        <https://w3id.org/cdisc/cosmos/dss/EG/STSTWUW/EGDTC>,
        <https://w3id.org/cdisc/cosmos/dss/EG/STSTWUW/EGEVAL>,
        <https://w3id.org/cdisc/cosmos/dss/EG/STSTWUW/EGMETHOD>,
        <https://w3id.org/cdisc/cosmos/dss/EG/STSTWUW/EGORRES>,
        <https://w3id.org/cdisc/cosmos/dss/EG/STSTWUW/EGPOS>,
        <https://w3id.org/cdisc/cosmos/dss/EG/STSTWUW/EGSTRESC>,
        <https://w3id.org/cdisc/cosmos/dss/EG/STSTWUW/EGTEST>,
        <https://w3id.org/cdisc/cosmos/dss/EG/STSTWUW/EGTESTCD> .

<https://w3id.org/cdisc/cosmos/dss/EG/TECHQUAL> a cosmos_sdtm:SDTMGroup ;
    dcterms:identifier "TECHQUAL" ;
    rdf:_1 <https://w3id.org/cdisc/cosmos/dss/EG/TECHQUAL/EGTESTCD> ;
    rdf:_2 <https://w3id.org/cdisc/cosmos/dss/EG/TECHQUAL/EGTEST> ;
    rdf:_3 <https://w3id.org/cdisc/cosmos/dss/EG/TECHQUAL/EGORRES> ;
    rdf:_4 <https://w3id.org/cdisc/cosmos/dss/EG/TECHQUAL/EGSTRESC> ;
    rdf:_5 <https://w3id.org/cdisc/cosmos/dss/EG/TECHQUAL/EGMETHOD> ;
    rdf:_6 <https://w3id.org/cdisc/cosmos/dss/EG/TECHQUAL/EGEVAL> ;
    rdf:_7 <https://w3id.org/cdisc/cosmos/dss/EG/TECHQUAL/EGDTC> ;
    cosmos_sdtm:biomedicalConceptId NCIT:C117807 ;
    cosmos_sdtm:domain "EG" ;
    cosmos_sdtm:packageDate "2026-05-26"^^xsd:date ;
    cosmos_sdtm:packageType <https://www.cdisc.org/cosmos/sdtm_v1.0/PackageTypeEnum#sdtm> ;
    cosmos_sdtm:sdtmigStartVersion "3-2" ;
    cosmos_sdtm:shortName "ECG Technical Quality" ;
    cosmos_sdtm:source "EG.EGTESTCD" ;
    cosmos_sdtm:variables <https://w3id.org/cdisc/cosmos/dss/EG/TECHQUAL/EGDTC>,
        <https://w3id.org/cdisc/cosmos/dss/EG/TECHQUAL/EGEVAL>,
        <https://w3id.org/cdisc/cosmos/dss/EG/TECHQUAL/EGMETHOD>,
        <https://w3id.org/cdisc/cosmos/dss/EG/TECHQUAL/EGORRES>,
        <https://w3id.org/cdisc/cosmos/dss/EG/TECHQUAL/EGSTRESC>,
        <https://w3id.org/cdisc/cosmos/dss/EG/TECHQUAL/EGTEST>,
        <https://w3id.org/cdisc/cosmos/dss/EG/TECHQUAL/EGTESTCD> .

<https://w3id.org/cdisc/cosmos/dss/EG/VTARRY> a cosmos_sdtm:SDTMGroup ;
    dcterms:identifier "VTARRY" ;
    rdf:_1 <https://w3id.org/cdisc/cosmos/dss/EG/VTARRY/EGTESTCD> ;
    rdf:_2 <https://w3id.org/cdisc/cosmos/dss/EG/VTARRY/EGTEST> ;
    rdf:_3 <https://w3id.org/cdisc/cosmos/dss/EG/VTARRY/EGORRES> ;
    rdf:_4 <https://w3id.org/cdisc/cosmos/dss/EG/VTARRY/EGSTRESC> ;
    rdf:_5 <https://w3id.org/cdisc/cosmos/dss/EG/VTARRY/EGCAT> ;
    rdf:_6 <https://w3id.org/cdisc/cosmos/dss/EG/VTARRY/EGPOS> ;
    rdf:_7 <https://w3id.org/cdisc/cosmos/dss/EG/VTARRY/EGMETHOD> ;
    rdf:_8 <https://w3id.org/cdisc/cosmos/dss/EG/VTARRY/EGEVAL> ;
    rdf:_9 <https://w3id.org/cdisc/cosmos/dss/EG/VTARRY/EGDTC> ;
    cosmos_sdtm:biomedicalConceptId NCIT:C111330 ;
    cosmos_sdtm:domain "EG" ;
    cosmos_sdtm:packageDate "2026-05-26"^^xsd:date ;
    cosmos_sdtm:packageType <https://www.cdisc.org/cosmos/sdtm_v1.0/PackageTypeEnum#sdtm> ;
    cosmos_sdtm:sdtmigStartVersion "3-2" ;
    cosmos_sdtm:shortName "Ventricular Arrhythmia ECG Assessment" ;
    cosmos_sdtm:source "EG.EGTESTCD" ;
    cosmos_sdtm:variables <https://w3id.org/cdisc/cosmos/dss/EG/VTARRY/EGCAT>,
        <https://w3id.org/cdisc/cosmos/dss/EG/VTARRY/EGDTC>,
        <https://w3id.org/cdisc/cosmos/dss/EG/VTARRY/EGEVAL>,
        <https://w3id.org/cdisc/cosmos/dss/EG/VTARRY/EGMETHOD>,
        <https://w3id.org/cdisc/cosmos/dss/EG/VTARRY/EGORRES>,
        <https://w3id.org/cdisc/cosmos/dss/EG/VTARRY/EGPOS>,
        <https://w3id.org/cdisc/cosmos/dss/EG/VTARRY/EGSTRESC>,
        <https://w3id.org/cdisc/cosmos/dss/EG/VTARRY/EGTEST>,
        <https://w3id.org/cdisc/cosmos/dss/EG/VTARRY/EGTESTCD> .

<https://w3id.org/cdisc/cosmos/dss/EG/VTTARRY> a cosmos_sdtm:SDTMGroup ;
    dcterms:identifier "VTTARRY" ;
    rdf:_1 <https://w3id.org/cdisc/cosmos/dss/EG/VTTARRY/EGTESTCD> ;
    rdf:_2 <https://w3id.org/cdisc/cosmos/dss/EG/VTTARRY/EGTEST> ;
    rdf:_3 <https://w3id.org/cdisc/cosmos/dss/EG/VTTARRY/EGORRES> ;
    rdf:_4 <https://w3id.org/cdisc/cosmos/dss/EG/VTTARRY/EGSTRESC> ;
    rdf:_5 <https://w3id.org/cdisc/cosmos/dss/EG/VTTARRY/EGCAT> ;
    rdf:_6 <https://w3id.org/cdisc/cosmos/dss/EG/VTTARRY/EGPOS> ;
    rdf:_7 <https://w3id.org/cdisc/cosmos/dss/EG/VTTARRY/EGMETHOD> ;
    rdf:_8 <https://w3id.org/cdisc/cosmos/dss/EG/VTTARRY/EGEVAL> ;
    rdf:_9 <https://w3id.org/cdisc/cosmos/dss/EG/VTTARRY/EGDTC> ;
    cosmos_sdtm:biomedicalConceptId NCIT:C111331 ;
    cosmos_sdtm:domain "EG" ;
    cosmos_sdtm:packageDate "2026-05-26"^^xsd:date ;
    cosmos_sdtm:packageType <https://www.cdisc.org/cosmos/sdtm_v1.0/PackageTypeEnum#sdtm> ;
    cosmos_sdtm:sdtmigStartVersion "3-2" ;
    cosmos_sdtm:shortName "Ventricular Tachyarrhythmia ECG Assessment" ;
    cosmos_sdtm:source "EG.EGTESTCD" ;
    cosmos_sdtm:variables <https://w3id.org/cdisc/cosmos/dss/EG/VTTARRY/EGCAT>,
        <https://w3id.org/cdisc/cosmos/dss/EG/VTTARRY/EGDTC>,
        <https://w3id.org/cdisc/cosmos/dss/EG/VTTARRY/EGEVAL>,
        <https://w3id.org/cdisc/cosmos/dss/EG/VTTARRY/EGMETHOD>,
        <https://w3id.org/cdisc/cosmos/dss/EG/VTTARRY/EGORRES>,
        <https://w3id.org/cdisc/cosmos/dss/EG/VTTARRY/EGPOS>,
        <https://w3id.org/cdisc/cosmos/dss/EG/VTTARRY/EGSTRESC>,
        <https://w3id.org/cdisc/cosmos/dss/EG/VTTARRY/EGTEST>,
        <https://w3id.org/cdisc/cosmos/dss/EG/VTTARRY/EGTESTCD> .

NCIT:C66742 a cosmos_sdtm:CodeList ;
    dcterms:identifier "C66742" ;
    skos:exactMatch <http://ncicb.nci.nih.gov/xml/owl/EVS/Thesaurus.owl#C66742> ;
    cosmos_sdtm:submissionValue "NY" .

<https://w3id.org/cdisc/cosmos/dss/EG/AVCOND/EGCAT/assignedTerm> a cosmos_sdtm:AssignedTerm ;
    cosmos_sdtm:value "FINDING" .

<https://w3id.org/cdisc/cosmos/dss/EG/AVCOND/EGCAT/relationship> a cosmos_sdtm:RelationShip ;
    cosmos_sdtm:linkingPhrase <https://www.cdisc.org/cosmos/sdtm_v1.0/LinkingPhraseEnum#groups%20values%20in> ;
    cosmos_sdtm:object "EGTESTCD" ;
    cosmos_sdtm:predicateTerm <https://www.cdisc.org/cosmos/sdtm_v1.0/PredicateTermEnum#GROUPS> ;
    cosmos_sdtm:subject "EGCAT" .

<https://w3id.org/cdisc/cosmos/dss/EG/AVCOND/EGDTC/relationship> a cosmos_sdtm:RelationShip ;
    cosmos_sdtm:linkingPhrase <https://www.cdisc.org/cosmos/sdtm_v1.0/LinkingPhraseEnum#is%20the%20date%20of%20occurrence%20for> ;
    cosmos_sdtm:object "EGTESTCD" ;
    cosmos_sdtm:predicateTerm <https://www.cdisc.org/cosmos/sdtm_v1.0/PredicateTermEnum#IS_TIMING_FOR> ;
    cosmos_sdtm:subject "EGDTC" .

<https://w3id.org/cdisc/cosmos/dss/EG/AVCOND/EGEVAL/relationship> a cosmos_sdtm:RelationShip ;
    cosmos_sdtm:linkingPhrase <https://www.cdisc.org/cosmos/sdtm_v1.0/LinkingPhraseEnum#is%20the%20role%20of%20the%20assessor%20who%20performed%20the%20test%20in> ;
    cosmos_sdtm:object "EGTESTCD" ;
    cosmos_sdtm:predicateTerm <https://www.cdisc.org/cosmos/sdtm_v1.0/PredicateTermEnum#PERFORMS> ;
    cosmos_sdtm:subject "EGEVAL" .

<https://w3id.org/cdisc/cosmos/dss/EG/AVCOND/EGMETHOD/relationship> a cosmos_sdtm:RelationShip ;
    cosmos_sdtm:linkingPhrase <https://www.cdisc.org/cosmos/sdtm_v1.0/LinkingPhraseEnum#is%20the%20method%20for%20the%20test%20in> ;
    cosmos_sdtm:object "EGTESTCD" ;
    cosmos_sdtm:predicateTerm <https://www.cdisc.org/cosmos/sdtm_v1.0/PredicateTermEnum#SPECIFIES> ;
    cosmos_sdtm:subject "EGMETHOD" .

<https://w3id.org/cdisc/cosmos/dss/EG/AVCOND/EGORRES/relationship> a cosmos_sdtm:RelationShip ;
    cosmos_sdtm:linkingPhrase <https://www.cdisc.org/cosmos/sdtm_v1.0/LinkingPhraseEnum#is%20the%20result%20of%20the%20test%20in> ;
    cosmos_sdtm:object "EGTESTCD" ;
    cosmos_sdtm:predicateTerm <https://www.cdisc.org/cosmos/sdtm_v1.0/PredicateTermEnum#IS_RESULT_OF> ;
    cosmos_sdtm:subject "EGORRES" .

<https://w3id.org/cdisc/cosmos/dss/EG/AVCOND/EGPOS/relationship> a cosmos_sdtm:RelationShip ;
    cosmos_sdtm:linkingPhrase <https://www.cdisc.org/cosmos/sdtm_v1.0/LinkingPhraseEnum#was%20the%20subject%20position%20during%20performance%20of%20the%20test%20in> ;
    cosmos_sdtm:object "EGTESTCD" ;
    cosmos_sdtm:predicateTerm <https://www.cdisc.org/cosmos/sdtm_v1.0/PredicateTermEnum#IS_SUBJECT_STATE_FOR> ;
    cosmos_sdtm:subject "EGPOS" .

<https://w3id.org/cdisc/cosmos/dss/EG/AVCOND/EGSTRESC/relationship> a cosmos_sdtm:RelationShip ;
    cosmos_sdtm:linkingPhrase <https://www.cdisc.org/cosmos/sdtm_v1.0/LinkingPhraseEnum#is%20the%20result%20of%20the%20test%20in> ;
    cosmos_sdtm:object "EGTESTCD" ;
    cosmos_sdtm:predicateTerm <https://www.cdisc.org/cosmos/sdtm_v1.0/PredicateTermEnum#IS_RESULT_OF> ;
    cosmos_sdtm:subject "EGSTRESC" .

<https://w3id.org/cdisc/cosmos/dss/EG/AVCOND/EGTEST/assignedTerm> a cosmos_sdtm:AssignedTerm ;
    cosmos_sdtm:conceptId NCIT:C111131 ;
    cosmos_sdtm:value "Atrioventricular Conduction" .

<https://w3id.org/cdisc/cosmos/dss/EG/AVCOND/EGTEST/relationship> a cosmos_sdtm:RelationShip ;
    cosmos_sdtm:linkingPhrase <https://www.cdisc.org/cosmos/sdtm_v1.0/LinkingPhraseEnum#decodes%20the%20value%20in> ;
    cosmos_sdtm:object "EGTESTCD" ;
    cosmos_sdtm:predicateTerm <https://www.cdisc.org/cosmos/sdtm_v1.0/PredicateTermEnum#DECODES> ;
    cosmos_sdtm:subject "EGTEST" .

<https://w3id.org/cdisc/cosmos/dss/EG/AVCOND/EGTESTCD/assignedTerm> a cosmos_sdtm:AssignedTerm ;
    cosmos_sdtm:conceptId NCIT:C111131 ;
    cosmos_sdtm:value "AVCOND" .

<https://w3id.org/cdisc/cosmos/dss/EG/AVCOND/EGTESTCD/relationship> a cosmos_sdtm:RelationShip ;
    cosmos_sdtm:linkingPhrase <https://www.cdisc.org/cosmos/sdtm_v1.0/LinkingPhraseEnum#is%20the%20code%20for%20the%20value%20in> ;
    cosmos_sdtm:object "EGTEST" ;
    cosmos_sdtm:predicateTerm <https://www.cdisc.org/cosmos/sdtm_v1.0/PredicateTermEnum#IS_DECODED_BY> ;
    cosmos_sdtm:subject "EGTESTCD" .

<https://w3id.org/cdisc/cosmos/dss/EG/AXISVOLT/EGCAT/assignedTerm> a cosmos_sdtm:AssignedTerm ;
    cosmos_sdtm:value "FINDING" .

<https://w3id.org/cdisc/cosmos/dss/EG/AXISVOLT/EGCAT/relationship> a cosmos_sdtm:RelationShip ;
    cosmos_sdtm:linkingPhrase <https://www.cdisc.org/cosmos/sdtm_v1.0/LinkingPhraseEnum#groups%20values%20in> ;
    cosmos_sdtm:object "EGTESTCD" ;
    cosmos_sdtm:predicateTerm <https://www.cdisc.org/cosmos/sdtm_v1.0/PredicateTermEnum#GROUPS> ;
    cosmos_sdtm:subject "EGCAT" .

<https://w3id.org/cdisc/cosmos/dss/EG/AXISVOLT/EGDTC/relationship> a cosmos_sdtm:RelationShip ;
    cosmos_sdtm:linkingPhrase <https://www.cdisc.org/cosmos/sdtm_v1.0/LinkingPhraseEnum#is%20the%20date%20of%20occurrence%20for> ;
    cosmos_sdtm:object "EGTESTCD" ;
    cosmos_sdtm:predicateTerm <https://www.cdisc.org/cosmos/sdtm_v1.0/PredicateTermEnum#IS_TIMING_FOR> ;
    cosmos_sdtm:subject "EGDTC" .

<https://w3id.org/cdisc/cosmos/dss/EG/AXISVOLT/EGEVAL/relationship> a cosmos_sdtm:RelationShip ;
    cosmos_sdtm:linkingPhrase <https://www.cdisc.org/cosmos/sdtm_v1.0/LinkingPhraseEnum#is%20the%20role%20of%20the%20assessor%20who%20performed%20the%20test%20in> ;
    cosmos_sdtm:object "EGTESTCD" ;
    cosmos_sdtm:predicateTerm <https://www.cdisc.org/cosmos/sdtm_v1.0/PredicateTermEnum#PERFORMS> ;
    cosmos_sdtm:subject "EGEVAL" .

<https://w3id.org/cdisc/cosmos/dss/EG/AXISVOLT/EGMETHOD/relationship> a cosmos_sdtm:RelationShip ;
    cosmos_sdtm:linkingPhrase <https://www.cdisc.org/cosmos/sdtm_v1.0/LinkingPhraseEnum#is%20the%20method%20for%20the%20test%20in> ;
    cosmos_sdtm:object "EGTESTCD" ;
    cosmos_sdtm:predicateTerm <https://www.cdisc.org/cosmos/sdtm_v1.0/PredicateTermEnum#SPECIFIES> ;
    cosmos_sdtm:subject "EGMETHOD" .

<https://w3id.org/cdisc/cosmos/dss/EG/AXISVOLT/EGORRES/relationship> a cosmos_sdtm:RelationShip ;
    cosmos_sdtm:linkingPhrase <https://www.cdisc.org/cosmos/sdtm_v1.0/LinkingPhraseEnum#is%20the%20result%20of%20the%20test%20in> ;
    cosmos_sdtm:object "EGTESTCD" ;
    cosmos_sdtm:predicateTerm <https://www.cdisc.org/cosmos/sdtm_v1.0/PredicateTermEnum#IS_RESULT_OF> ;
    cosmos_sdtm:subject "EGORRES" .

<https://w3id.org/cdisc/cosmos/dss/EG/AXISVOLT/EGPOS/relationship> a cosmos_sdtm:RelationShip ;
    cosmos_sdtm:linkingPhrase <https://www.cdisc.org/cosmos/sdtm_v1.0/LinkingPhraseEnum#was%20the%20subject%20position%20during%20performance%20of%20the%20test%20in> ;
    cosmos_sdtm:object "EGTESTCD" ;
    cosmos_sdtm:predicateTerm <https://www.cdisc.org/cosmos/sdtm_v1.0/PredicateTermEnum#IS_SUBJECT_STATE_FOR> ;
    cosmos_sdtm:subject "EGPOS" .

<https://w3id.org/cdisc/cosmos/dss/EG/AXISVOLT/EGSTRESC/relationship> a cosmos_sdtm:RelationShip ;
    cosmos_sdtm:linkingPhrase <https://www.cdisc.org/cosmos/sdtm_v1.0/LinkingPhraseEnum#is%20the%20result%20of%20the%20test%20in> ;
    cosmos_sdtm:object "EGTESTCD" ;
    cosmos_sdtm:predicateTerm <https://www.cdisc.org/cosmos/sdtm_v1.0/PredicateTermEnum#IS_RESULT_OF> ;
    cosmos_sdtm:subject "EGSTRESC" .

<https://w3id.org/cdisc/cosmos/dss/EG/AXISVOLT/EGTEST/assignedTerm> a cosmos_sdtm:AssignedTerm ;
    cosmos_sdtm:conceptId NCIT:C111132 ;
    cosmos_sdtm:value "Axis and Voltage" .

<https://w3id.org/cdisc/cosmos/dss/EG/AXISVOLT/EGTEST/relationship> a cosmos_sdtm:RelationShip ;
    cosmos_sdtm:linkingPhrase <https://www.cdisc.org/cosmos/sdtm_v1.0/LinkingPhraseEnum#decodes%20the%20value%20in> ;
    cosmos_sdtm:object "EGTESTCD" ;
    cosmos_sdtm:predicateTerm <https://www.cdisc.org/cosmos/sdtm_v1.0/PredicateTermEnum#DECODES> ;
    cosmos_sdtm:subject "EGTEST" .

<https://w3id.org/cdisc/cosmos/dss/EG/AXISVOLT/EGTESTCD/assignedTerm> a cosmos_sdtm:AssignedTerm ;
    cosmos_sdtm:conceptId NCIT:C111132 ;
    cosmos_sdtm:value "AXISVOLT" .

<https://w3id.org/cdisc/cosmos/dss/EG/AXISVOLT/EGTESTCD/relationship> a cosmos_sdtm:RelationShip ;
    cosmos_sdtm:linkingPhrase <https://www.cdisc.org/cosmos/sdtm_v1.0/LinkingPhraseEnum#is%20the%20code%20for%20the%20value%20in> ;
    cosmos_sdtm:object "EGTEST" ;
    cosmos_sdtm:predicateTerm <https://www.cdisc.org/cosmos/sdtm_v1.0/PredicateTermEnum#IS_DECODED_BY> ;
    cosmos_sdtm:subject "EGTESTCD" .

<https://w3id.org/cdisc/cosmos/dss/EG/CHYPTENL/EGCAT/assignedTerm> a cosmos_sdtm:AssignedTerm ;
    cosmos_sdtm:value "FINDING" .

<https://w3id.org/cdisc/cosmos/dss/EG/CHYPTENL/EGCAT/relationship> a cosmos_sdtm:RelationShip ;
    cosmos_sdtm:linkingPhrase <https://www.cdisc.org/cosmos/sdtm_v1.0/LinkingPhraseEnum#groups%20values%20in> ;
    cosmos_sdtm:object "EGTESTCD" ;
    cosmos_sdtm:predicateTerm <https://www.cdisc.org/cosmos/sdtm_v1.0/PredicateTermEnum#GROUPS> ;
    cosmos_sdtm:subject "EGCAT" .

<https://w3id.org/cdisc/cosmos/dss/EG/CHYPTENL/EGDTC/relationship> a cosmos_sdtm:RelationShip ;
    cosmos_sdtm:linkingPhrase <https://www.cdisc.org/cosmos/sdtm_v1.0/LinkingPhraseEnum#is%20the%20date%20of%20occurrence%20for> ;
    cosmos_sdtm:object "EGTESTCD" ;
    cosmos_sdtm:predicateTerm <https://www.cdisc.org/cosmos/sdtm_v1.0/PredicateTermEnum#IS_TIMING_FOR> ;
    cosmos_sdtm:subject "EGDTC" .

<https://w3id.org/cdisc/cosmos/dss/EG/CHYPTENL/EGEVAL/relationship> a cosmos_sdtm:RelationShip ;
    cosmos_sdtm:linkingPhrase <https://www.cdisc.org/cosmos/sdtm_v1.0/LinkingPhraseEnum#is%20the%20role%20of%20the%20assessor%20who%20performed%20the%20test%20in> ;
    cosmos_sdtm:object "EGTESTCD" ;
    cosmos_sdtm:predicateTerm <https://www.cdisc.org/cosmos/sdtm_v1.0/PredicateTermEnum#PERFORMS> ;
    cosmos_sdtm:subject "EGEVAL" .

<https://w3id.org/cdisc/cosmos/dss/EG/CHYPTENL/EGMETHOD/relationship> a cosmos_sdtm:RelationShip ;
    cosmos_sdtm:linkingPhrase <https://www.cdisc.org/cosmos/sdtm_v1.0/LinkingPhraseEnum#is%20the%20method%20for%20the%20test%20in> ;
    cosmos_sdtm:object "EGTESTCD" ;
    cosmos_sdtm:predicateTerm <https://www.cdisc.org/cosmos/sdtm_v1.0/PredicateTermEnum#SPECIFIES> ;
    cosmos_sdtm:subject "EGMETHOD" .

<https://w3id.org/cdisc/cosmos/dss/EG/CHYPTENL/EGORRES/relationship> a cosmos_sdtm:RelationShip ;
    cosmos_sdtm:linkingPhrase <https://www.cdisc.org/cosmos/sdtm_v1.0/LinkingPhraseEnum#is%20the%20result%20of%20the%20test%20in> ;
    cosmos_sdtm:object "EGTESTCD" ;
    cosmos_sdtm:predicateTerm <https://www.cdisc.org/cosmos/sdtm_v1.0/PredicateTermEnum#IS_RESULT_OF> ;
    cosmos_sdtm:subject "EGORRES" .

<https://w3id.org/cdisc/cosmos/dss/EG/CHYPTENL/EGPOS/relationship> a cosmos_sdtm:RelationShip ;
    cosmos_sdtm:linkingPhrase <https://www.cdisc.org/cosmos/sdtm_v1.0/LinkingPhraseEnum#was%20the%20subject%20position%20during%20performance%20of%20the%20test%20in> ;
    cosmos_sdtm:object "EGTESTCD" ;
    cosmos_sdtm:predicateTerm <https://www.cdisc.org/cosmos/sdtm_v1.0/PredicateTermEnum#IS_SUBJECT_STATE_FOR> ;
    cosmos_sdtm:subject "EGPOS" .

<https://w3id.org/cdisc/cosmos/dss/EG/CHYPTENL/EGSTRESC/relationship> a cosmos_sdtm:RelationShip ;
    cosmos_sdtm:linkingPhrase <https://www.cdisc.org/cosmos/sdtm_v1.0/LinkingPhraseEnum#is%20the%20result%20of%20the%20test%20in> ;
    cosmos_sdtm:object "EGTESTCD" ;
    cosmos_sdtm:predicateTerm <https://www.cdisc.org/cosmos/sdtm_v1.0/PredicateTermEnum#IS_RESULT_OF> ;
    cosmos_sdtm:subject "EGSTRESC" .

<https://w3id.org/cdisc/cosmos/dss/EG/CHYPTENL/EGTEST/assignedTerm> a cosmos_sdtm:AssignedTerm ;
    cosmos_sdtm:conceptId NCIT:C111155 ;
    cosmos_sdtm:value "Chamber Hypertrophy or Enlargement" .

<https://w3id.org/cdisc/cosmos/dss/EG/CHYPTENL/EGTEST/relationship> a cosmos_sdtm:RelationShip ;
    cosmos_sdtm:linkingPhrase <https://www.cdisc.org/cosmos/sdtm_v1.0/LinkingPhraseEnum#decodes%20the%20value%20in> ;
    cosmos_sdtm:object "EGTESTCD" ;
    cosmos_sdtm:predicateTerm <https://www.cdisc.org/cosmos/sdtm_v1.0/PredicateTermEnum#DECODES> ;
    cosmos_sdtm:subject "EGTEST" .

<https://w3id.org/cdisc/cosmos/dss/EG/CHYPTENL/EGTESTCD/assignedTerm> a cosmos_sdtm:AssignedTerm ;
    cosmos_sdtm:conceptId NCIT:C111155 ;
    cosmos_sdtm:value "CHYPTENL" .

<https://w3id.org/cdisc/cosmos/dss/EG/CHYPTENL/EGTESTCD/relationship> a cosmos_sdtm:RelationShip ;
    cosmos_sdtm:linkingPhrase <https://www.cdisc.org/cosmos/sdtm_v1.0/LinkingPhraseEnum#is%20the%20code%20for%20the%20value%20in> ;
    cosmos_sdtm:object "EGTEST" ;
    cosmos_sdtm:predicateTerm <https://www.cdisc.org/cosmos/sdtm_v1.0/PredicateTermEnum#IS_DECODED_BY> ;
    cosmos_sdtm:subject "EGTESTCD" .

<https://w3id.org/cdisc/cosmos/dss/EG/EGHRMN/EGCAT/assignedTerm> a cosmos_sdtm:AssignedTerm ;
    cosmos_sdtm:value "MEASUREMENT" .

<https://w3id.org/cdisc/cosmos/dss/EG/EGHRMN/EGCAT/relationship> a cosmos_sdtm:RelationShip ;
    cosmos_sdtm:linkingPhrase <https://www.cdisc.org/cosmos/sdtm_v1.0/LinkingPhraseEnum#groups%20values%20in> ;
    cosmos_sdtm:object "EGTESTCD" ;
    cosmos_sdtm:predicateTerm <https://www.cdisc.org/cosmos/sdtm_v1.0/PredicateTermEnum#GROUPS> ;
    cosmos_sdtm:subject "EGCAT" .

<https://w3id.org/cdisc/cosmos/dss/EG/EGHRMN/EGDTC/relationship> a cosmos_sdtm:RelationShip ;
    cosmos_sdtm:linkingPhrase <https://www.cdisc.org/cosmos/sdtm_v1.0/LinkingPhraseEnum#is%20the%20date%20of%20occurrence%20for> ;
    cosmos_sdtm:object "EGTESTCD" ;
    cosmos_sdtm:predicateTerm <https://www.cdisc.org/cosmos/sdtm_v1.0/PredicateTermEnum#IS_TIMING_FOR> ;
    cosmos_sdtm:subject "EGDTC" .

<https://w3id.org/cdisc/cosmos/dss/EG/EGHRMN/EGEVAL/relationship> a cosmos_sdtm:RelationShip ;
    cosmos_sdtm:linkingPhrase <https://www.cdisc.org/cosmos/sdtm_v1.0/LinkingPhraseEnum#is%20the%20role%20of%20the%20assessor%20who%20performed%20the%20test%20in> ;
    cosmos_sdtm:object "EGTESTCD" ;
    cosmos_sdtm:predicateTerm <https://www.cdisc.org/cosmos/sdtm_v1.0/PredicateTermEnum#PERFORMS> ;
    cosmos_sdtm:subject "EGEVAL" .

<https://w3id.org/cdisc/cosmos/dss/EG/EGHRMN/EGMETHOD/relationship> a cosmos_sdtm:RelationShip ;
    cosmos_sdtm:linkingPhrase <https://www.cdisc.org/cosmos/sdtm_v1.0/LinkingPhraseEnum#is%20the%20method%20for%20the%20test%20in> ;
    cosmos_sdtm:object "EGTESTCD" ;
    cosmos_sdtm:predicateTerm <https://www.cdisc.org/cosmos/sdtm_v1.0/PredicateTermEnum#SPECIFIES> ;
    cosmos_sdtm:subject "EGMETHOD" .

<https://w3id.org/cdisc/cosmos/dss/EG/EGHRMN/EGORRES/relationship> a cosmos_sdtm:RelationShip ;
    cosmos_sdtm:linkingPhrase <https://www.cdisc.org/cosmos/sdtm_v1.0/LinkingPhraseEnum#is%20the%20result%20of%20the%20test%20in> ;
    cosmos_sdtm:object "EGTESTCD" ;
    cosmos_sdtm:predicateTerm <https://www.cdisc.org/cosmos/sdtm_v1.0/PredicateTermEnum#IS_RESULT_OF> ;
    cosmos_sdtm:subject "EGORRES" .

<https://w3id.org/cdisc/cosmos/dss/EG/EGHRMN/EGORRESU/assignedTerm> a cosmos_sdtm:AssignedTerm ;
    cosmos_sdtm:conceptId NCIT:C49673 ;
    cosmos_sdtm:value "beats/min" .

<https://w3id.org/cdisc/cosmos/dss/EG/EGHRMN/EGORRESU/relationship> a cosmos_sdtm:RelationShip ;
    cosmos_sdtm:linkingPhrase <https://www.cdisc.org/cosmos/sdtm_v1.0/LinkingPhraseEnum#is%20the%20unit%20for%20the%20value%20in> ;
    cosmos_sdtm:object "EGORRES" ;
    cosmos_sdtm:predicateTerm <https://www.cdisc.org/cosmos/sdtm_v1.0/PredicateTermEnum#IS_UNIT_FOR> ;
    cosmos_sdtm:subject "EGORRESU" .

<https://w3id.org/cdisc/cosmos/dss/EG/EGHRMN/EGPOS/relationship> a cosmos_sdtm:RelationShip ;
    cosmos_sdtm:linkingPhrase <https://www.cdisc.org/cosmos/sdtm_v1.0/LinkingPhraseEnum#was%20the%20subject%20position%20during%20performance%20of%20the%20test%20in> ;
    cosmos_sdtm:object "EGTESTCD" ;
    cosmos_sdtm:predicateTerm <https://www.cdisc.org/cosmos/sdtm_v1.0/PredicateTermEnum#IS_SUBJECT_STATE_FOR> ;
    cosmos_sdtm:subject "EGPOS" .

<https://w3id.org/cdisc/cosmos/dss/EG/EGHRMN/EGSTRESC/relationship> a cosmos_sdtm:RelationShip ;
    cosmos_sdtm:linkingPhrase <https://www.cdisc.org/cosmos/sdtm_v1.0/LinkingPhraseEnum#is%20the%20result%20of%20the%20test%20in> ;
    cosmos_sdtm:object "EGTESTCD" ;
    cosmos_sdtm:predicateTerm <https://www.cdisc.org/cosmos/sdtm_v1.0/PredicateTermEnum#IS_RESULT_OF> ;
    cosmos_sdtm:subject "EGSTRESC" .

<https://w3id.org/cdisc/cosmos/dss/EG/EGHRMN/EGSTRESN/relationship> a cosmos_sdtm:RelationShip ;
    cosmos_sdtm:linkingPhrase <https://www.cdisc.org/cosmos/sdtm_v1.0/LinkingPhraseEnum#is%20the%20result%20of%20the%20test%20in> ;
    cosmos_sdtm:object "EGTESTCD" ;
    cosmos_sdtm:predicateTerm <https://www.cdisc.org/cosmos/sdtm_v1.0/PredicateTermEnum#IS_RESULT_OF> ;
    cosmos_sdtm:subject "EGSTRESN" .

<https://w3id.org/cdisc/cosmos/dss/EG/EGHRMN/EGSTRESU/assignedTerm> a cosmos_sdtm:AssignedTerm ;
    cosmos_sdtm:conceptId NCIT:C49673 ;
    cosmos_sdtm:value "beats/min" .

<https://w3id.org/cdisc/cosmos/dss/EG/EGHRMN/EGSTRESU/relationship> a cosmos_sdtm:RelationShip ;
    cosmos_sdtm:linkingPhrase <https://www.cdisc.org/cosmos/sdtm_v1.0/LinkingPhraseEnum#is%20the%20unit%20for%20the%20value%20in> ;
    cosmos_sdtm:object "EGSTRESN" ;
    cosmos_sdtm:predicateTerm <https://www.cdisc.org/cosmos/sdtm_v1.0/PredicateTermEnum#IS_UNIT_FOR> ;
    cosmos_sdtm:subject "EGSTRESU" .

<https://w3id.org/cdisc/cosmos/dss/EG/EGHRMN/EGTEST/assignedTerm> a cosmos_sdtm:AssignedTerm ;
    cosmos_sdtm:conceptId NCIT:C119259 ;
    cosmos_sdtm:value "ECG Mean Heart Rate" .

<https://w3id.org/cdisc/cosmos/dss/EG/EGHRMN/EGTEST/relationship> a cosmos_sdtm:RelationShip ;
    cosmos_sdtm:linkingPhrase <https://www.cdisc.org/cosmos/sdtm_v1.0/LinkingPhraseEnum#decodes%20the%20value%20in> ;
    cosmos_sdtm:object "EGTESTCD" ;
    cosmos_sdtm:predicateTerm <https://www.cdisc.org/cosmos/sdtm_v1.0/PredicateTermEnum#DECODES> ;
    cosmos_sdtm:subject "EGTEST" .

<https://w3id.org/cdisc/cosmos/dss/EG/EGHRMN/EGTESTCD/assignedTerm> a cosmos_sdtm:AssignedTerm ;
    cosmos_sdtm:conceptId NCIT:C119259 ;
    cosmos_sdtm:value "EGHRMN" .

<https://w3id.org/cdisc/cosmos/dss/EG/EGHRMN/EGTESTCD/relationship> a cosmos_sdtm:RelationShip ;
    cosmos_sdtm:linkingPhrase <https://www.cdisc.org/cosmos/sdtm_v1.0/LinkingPhraseEnum#is%20the%20code%20for%20the%20value%20in> ;
    cosmos_sdtm:object "EGTEST" ;
    cosmos_sdtm:predicateTerm <https://www.cdisc.org/cosmos/sdtm_v1.0/PredicateTermEnum#IS_DECODED_BY> ;
    cosmos_sdtm:subject "EGTESTCD" .

<https://w3id.org/cdisc/cosmos/dss/EG/EGINTP/EGCAT/assignedTerm> a cosmos_sdtm:AssignedTerm ;
    cosmos_sdtm:value "INTERPRETATION" .

<https://w3id.org/cdisc/cosmos/dss/EG/EGINTP/EGCAT/relationship> a cosmos_sdtm:RelationShip ;
    cosmos_sdtm:linkingPhrase <https://www.cdisc.org/cosmos/sdtm_v1.0/LinkingPhraseEnum#groups%20values%20in> ;
    cosmos_sdtm:object "EGTESTCD" ;
    cosmos_sdtm:predicateTerm <https://www.cdisc.org/cosmos/sdtm_v1.0/PredicateTermEnum#GROUPS> ;
    cosmos_sdtm:subject "EGCAT" .

<https://w3id.org/cdisc/cosmos/dss/EG/EGINTP/EGCLSIG/relationship> a cosmos_sdtm:RelationShip ;
    cosmos_sdtm:linkingPhrase <https://www.cdisc.org/cosmos/sdtm_v1.0/LinkingPhraseEnum#is%20the%20clinical%20significance%20interpretation%20for> ;
    cosmos_sdtm:object "EGORRES" ;
    cosmos_sdtm:predicateTerm <https://www.cdisc.org/cosmos/sdtm_v1.0/PredicateTermEnum#IS_ATTRIBUTE_FOR> ;
    cosmos_sdtm:subject "EGCLSIG" .

<https://w3id.org/cdisc/cosmos/dss/EG/EGINTP/EGDTC/relationship> a cosmos_sdtm:RelationShip ;
    cosmos_sdtm:linkingPhrase <https://www.cdisc.org/cosmos/sdtm_v1.0/LinkingPhraseEnum#is%20the%20date%20of%20occurrence%20for> ;
    cosmos_sdtm:object "EGTESTCD" ;
    cosmos_sdtm:predicateTerm <https://www.cdisc.org/cosmos/sdtm_v1.0/PredicateTermEnum#IS_TIMING_FOR> ;
    cosmos_sdtm:subject "EGDTC" .

<https://w3id.org/cdisc/cosmos/dss/EG/EGINTP/EGEVAL/relationship> a cosmos_sdtm:RelationShip ;
    cosmos_sdtm:linkingPhrase <https://www.cdisc.org/cosmos/sdtm_v1.0/LinkingPhraseEnum#is%20the%20role%20of%20the%20assessor%20who%20performed%20the%20test%20in> ;
    cosmos_sdtm:object "EGTESTCD" ;
    cosmos_sdtm:predicateTerm <https://www.cdisc.org/cosmos/sdtm_v1.0/PredicateTermEnum#PERFORMS> ;
    cosmos_sdtm:subject "EGEVAL" .

<https://w3id.org/cdisc/cosmos/dss/EG/EGINTP/EGMETHOD/relationship> a cosmos_sdtm:RelationShip ;
    cosmos_sdtm:linkingPhrase <https://www.cdisc.org/cosmos/sdtm_v1.0/LinkingPhraseEnum#is%20the%20method%20for%20the%20test%20in> ;
    cosmos_sdtm:object "EGTESTCD" ;
    cosmos_sdtm:predicateTerm <https://www.cdisc.org/cosmos/sdtm_v1.0/PredicateTermEnum#SPECIFIES> ;
    cosmos_sdtm:subject "EGMETHOD" .

<https://w3id.org/cdisc/cosmos/dss/EG/EGINTP/EGORRES/relationship> a cosmos_sdtm:RelationShip ;
    cosmos_sdtm:linkingPhrase <https://www.cdisc.org/cosmos/sdtm_v1.0/LinkingPhraseEnum#is%20the%20result%20of%20the%20test%20in> ;
    cosmos_sdtm:object "EGTESTCD" ;
    cosmos_sdtm:predicateTerm <https://www.cdisc.org/cosmos/sdtm_v1.0/PredicateTermEnum#IS_RESULT_OF> ;
    cosmos_sdtm:subject "EGORRES" .

<https://w3id.org/cdisc/cosmos/dss/EG/EGINTP/EGSTRESC/relationship> a cosmos_sdtm:RelationShip ;
    cosmos_sdtm:linkingPhrase <https://www.cdisc.org/cosmos/sdtm_v1.0/LinkingPhraseEnum#is%20the%20result%20of%20the%20test%20in> ;
    cosmos_sdtm:object "EGTESTCD" ;
    cosmos_sdtm:predicateTerm <https://www.cdisc.org/cosmos/sdtm_v1.0/PredicateTermEnum#IS_RESULT_OF> ;
    cosmos_sdtm:subject "EGSTRESC" .

<https://w3id.org/cdisc/cosmos/dss/EG/EGINTP/EGTEST/assignedTerm> a cosmos_sdtm:AssignedTerm ;
    cosmos_sdtm:conceptId NCIT:C41255 ;
    cosmos_sdtm:value "Interpretation" .

<https://w3id.org/cdisc/cosmos/dss/EG/EGINTP/EGTEST/relationship> a cosmos_sdtm:RelationShip ;
    cosmos_sdtm:linkingPhrase <https://www.cdisc.org/cosmos/sdtm_v1.0/LinkingPhraseEnum#decodes%20the%20value%20in> ;
    cosmos_sdtm:object "EGTESTCD" ;
    cosmos_sdtm:predicateTerm <https://www.cdisc.org/cosmos/sdtm_v1.0/PredicateTermEnum#DECODES> ;
    cosmos_sdtm:subject "EGTEST" .

<https://w3id.org/cdisc/cosmos/dss/EG/EGINTP/EGTESTCD/assignedTerm> a cosmos_sdtm:AssignedTerm ;
    cosmos_sdtm:conceptId NCIT:C41255 ;
    cosmos_sdtm:value "INTP" .

<https://w3id.org/cdisc/cosmos/dss/EG/EGINTP/EGTESTCD/relationship> a cosmos_sdtm:RelationShip ;
    cosmos_sdtm:linkingPhrase <https://www.cdisc.org/cosmos/sdtm_v1.0/LinkingPhraseEnum#is%20the%20code%20for%20the%20value%20in> ;
    cosmos_sdtm:object "EGTEST" ;
    cosmos_sdtm:predicateTerm <https://www.cdisc.org/cosmos/sdtm_v1.0/PredicateTermEnum#IS_DECODED_BY> ;
    cosmos_sdtm:subject "EGTESTCD" .

<https://w3id.org/cdisc/cosmos/dss/EG/IVTIACD/EGCAT/assignedTerm> a cosmos_sdtm:AssignedTerm ;
    cosmos_sdtm:value "FINDING" .

<https://w3id.org/cdisc/cosmos/dss/EG/IVTIACD/EGCAT/relationship> a cosmos_sdtm:RelationShip ;
    cosmos_sdtm:linkingPhrase <https://www.cdisc.org/cosmos/sdtm_v1.0/LinkingPhraseEnum#groups%20values%20in> ;
    cosmos_sdtm:object "EGTESTCD" ;
    cosmos_sdtm:predicateTerm <https://www.cdisc.org/cosmos/sdtm_v1.0/PredicateTermEnum#GROUPS> ;
    cosmos_sdtm:subject "EGCAT" .

<https://w3id.org/cdisc/cosmos/dss/EG/IVTIACD/EGDTC/relationship> a cosmos_sdtm:RelationShip ;
    cosmos_sdtm:linkingPhrase <https://www.cdisc.org/cosmos/sdtm_v1.0/LinkingPhraseEnum#is%20the%20date%20of%20occurrence%20for> ;
    cosmos_sdtm:object "EGTESTCD" ;
    cosmos_sdtm:predicateTerm <https://www.cdisc.org/cosmos/sdtm_v1.0/PredicateTermEnum#IS_TIMING_FOR> ;
    cosmos_sdtm:subject "EGDTC" .

<https://w3id.org/cdisc/cosmos/dss/EG/IVTIACD/EGEVAL/relationship> a cosmos_sdtm:RelationShip ;
    cosmos_sdtm:linkingPhrase <https://www.cdisc.org/cosmos/sdtm_v1.0/LinkingPhraseEnum#is%20the%20role%20of%20the%20assessor%20who%20performed%20the%20test%20in> ;
    cosmos_sdtm:object "EGTESTCD" ;
    cosmos_sdtm:predicateTerm <https://www.cdisc.org/cosmos/sdtm_v1.0/PredicateTermEnum#PERFORMS> ;
    cosmos_sdtm:subject "EGEVAL" .

<https://w3id.org/cdisc/cosmos/dss/EG/IVTIACD/EGMETHOD/relationship> a cosmos_sdtm:RelationShip ;
    cosmos_sdtm:linkingPhrase <https://www.cdisc.org/cosmos/sdtm_v1.0/LinkingPhraseEnum#is%20the%20method%20for%20the%20test%20in> ;
    cosmos_sdtm:object "EGTESTCD" ;
    cosmos_sdtm:predicateTerm <https://www.cdisc.org/cosmos/sdtm_v1.0/PredicateTermEnum#SPECIFIES> ;
    cosmos_sdtm:subject "EGMETHOD" .

<https://w3id.org/cdisc/cosmos/dss/EG/IVTIACD/EGORRES/relationship> a cosmos_sdtm:RelationShip ;
    cosmos_sdtm:linkingPhrase <https://www.cdisc.org/cosmos/sdtm_v1.0/LinkingPhraseEnum#is%20the%20result%20of%20the%20test%20in> ;
    cosmos_sdtm:object "EGTESTCD" ;
    cosmos_sdtm:predicateTerm <https://www.cdisc.org/cosmos/sdtm_v1.0/PredicateTermEnum#IS_RESULT_OF> ;
    cosmos_sdtm:subject "EGORRES" .

<https://w3id.org/cdisc/cosmos/dss/EG/IVTIACD/EGPOS/relationship> a cosmos_sdtm:RelationShip ;
    cosmos_sdtm:linkingPhrase <https://www.cdisc.org/cosmos/sdtm_v1.0/LinkingPhraseEnum#was%20the%20subject%20position%20during%20performance%20of%20the%20test%20in> ;
    cosmos_sdtm:object "EGTESTCD" ;
    cosmos_sdtm:predicateTerm <https://www.cdisc.org/cosmos/sdtm_v1.0/PredicateTermEnum#IS_SUBJECT_STATE_FOR> ;
    cosmos_sdtm:subject "EGPOS" .

<https://w3id.org/cdisc/cosmos/dss/EG/IVTIACD/EGSTRESC/relationship> a cosmos_sdtm:RelationShip ;
    cosmos_sdtm:linkingPhrase <https://www.cdisc.org/cosmos/sdtm_v1.0/LinkingPhraseEnum#is%20the%20result%20of%20the%20test%20in> ;
    cosmos_sdtm:object "EGTESTCD" ;
    cosmos_sdtm:predicateTerm <https://www.cdisc.org/cosmos/sdtm_v1.0/PredicateTermEnum#IS_RESULT_OF> ;
    cosmos_sdtm:subject "EGSTRESC" .

<https://w3id.org/cdisc/cosmos/dss/EG/IVTIACD/EGTEST/assignedTerm> a cosmos_sdtm:AssignedTerm ;
    cosmos_sdtm:conceptId NCIT:C111238 ;
    cosmos_sdtm:value "Intraventricular-Intraatrial Conduction" .

<https://w3id.org/cdisc/cosmos/dss/EG/IVTIACD/EGTEST/relationship> a cosmos_sdtm:RelationShip ;
    cosmos_sdtm:linkingPhrase <https://www.cdisc.org/cosmos/sdtm_v1.0/LinkingPhraseEnum#decodes%20the%20value%20in> ;
    cosmos_sdtm:object "EGTESTCD" ;
    cosmos_sdtm:predicateTerm <https://www.cdisc.org/cosmos/sdtm_v1.0/PredicateTermEnum#DECODES> ;
    cosmos_sdtm:subject "EGTEST" .

<https://w3id.org/cdisc/cosmos/dss/EG/IVTIACD/EGTESTCD/assignedTerm> a cosmos_sdtm:AssignedTerm ;
    cosmos_sdtm:conceptId NCIT:C111238 ;
    cosmos_sdtm:value "IVTIACD" .

<https://w3id.org/cdisc/cosmos/dss/EG/IVTIACD/EGTESTCD/relationship> a cosmos_sdtm:RelationShip ;
    cosmos_sdtm:linkingPhrase <https://www.cdisc.org/cosmos/sdtm_v1.0/LinkingPhraseEnum#is%20the%20code%20for%20the%20value%20in> ;
    cosmos_sdtm:object "EGTEST" ;
    cosmos_sdtm:predicateTerm <https://www.cdisc.org/cosmos/sdtm_v1.0/PredicateTermEnum#IS_DECODED_BY> ;
    cosmos_sdtm:subject "EGTESTCD" .

<https://w3id.org/cdisc/cosmos/dss/EG/MI/EGCAT/assignedTerm> a cosmos_sdtm:AssignedTerm ;
    cosmos_sdtm:value "FINDING" .

<https://w3id.org/cdisc/cosmos/dss/EG/MI/EGCAT/relationship> a cosmos_sdtm:RelationShip ;
    cosmos_sdtm:linkingPhrase <https://www.cdisc.org/cosmos/sdtm_v1.0/LinkingPhraseEnum#groups%20values%20in> ;
    cosmos_sdtm:object "EGTESTCD" ;
    cosmos_sdtm:predicateTerm <https://www.cdisc.org/cosmos/sdtm_v1.0/PredicateTermEnum#GROUPS> ;
    cosmos_sdtm:subject "EGCAT" .

<https://w3id.org/cdisc/cosmos/dss/EG/MI/EGDTC/relationship> a cosmos_sdtm:RelationShip ;
    cosmos_sdtm:linkingPhrase <https://www.cdisc.org/cosmos/sdtm_v1.0/LinkingPhraseEnum#is%20the%20date%20of%20occurrence%20for> ;
    cosmos_sdtm:object "EGTESTCD" ;
    cosmos_sdtm:predicateTerm <https://www.cdisc.org/cosmos/sdtm_v1.0/PredicateTermEnum#IS_TIMING_FOR> ;
    cosmos_sdtm:subject "EGDTC" .

<https://w3id.org/cdisc/cosmos/dss/EG/MI/EGEVAL/relationship> a cosmos_sdtm:RelationShip ;
    cosmos_sdtm:linkingPhrase <https://www.cdisc.org/cosmos/sdtm_v1.0/LinkingPhraseEnum#is%20the%20role%20of%20the%20assessor%20who%20performed%20the%20test%20in> ;
    cosmos_sdtm:object "EGTESTCD" ;
    cosmos_sdtm:predicateTerm <https://www.cdisc.org/cosmos/sdtm_v1.0/PredicateTermEnum#PERFORMS> ;
    cosmos_sdtm:subject "EGEVAL" .

<https://w3id.org/cdisc/cosmos/dss/EG/MI/EGMETHOD/relationship> a cosmos_sdtm:RelationShip ;
    cosmos_sdtm:linkingPhrase <https://www.cdisc.org/cosmos/sdtm_v1.0/LinkingPhraseEnum#is%20the%20method%20for%20the%20test%20in> ;
    cosmos_sdtm:object "EGTESTCD" ;
    cosmos_sdtm:predicateTerm <https://www.cdisc.org/cosmos/sdtm_v1.0/PredicateTermEnum#SPECIFIES> ;
    cosmos_sdtm:subject "EGMETHOD" .

<https://w3id.org/cdisc/cosmos/dss/EG/MI/EGORRES/relationship> a cosmos_sdtm:RelationShip ;
    cosmos_sdtm:linkingPhrase <https://www.cdisc.org/cosmos/sdtm_v1.0/LinkingPhraseEnum#is%20the%20result%20of%20the%20test%20in> ;
    cosmos_sdtm:object "EGTESTCD" ;
    cosmos_sdtm:predicateTerm <https://www.cdisc.org/cosmos/sdtm_v1.0/PredicateTermEnum#IS_RESULT_OF> ;
    cosmos_sdtm:subject "EGORRES" .

<https://w3id.org/cdisc/cosmos/dss/EG/MI/EGPOS/relationship> a cosmos_sdtm:RelationShip ;
    cosmos_sdtm:linkingPhrase <https://www.cdisc.org/cosmos/sdtm_v1.0/LinkingPhraseEnum#was%20the%20subject%20position%20during%20performance%20of%20the%20test%20in> ;
    cosmos_sdtm:object "EGTESTCD" ;
    cosmos_sdtm:predicateTerm <https://www.cdisc.org/cosmos/sdtm_v1.0/PredicateTermEnum#IS_SUBJECT_STATE_FOR> ;
    cosmos_sdtm:subject "EGPOS" .

<https://w3id.org/cdisc/cosmos/dss/EG/MI/EGSTRESC/relationship> a cosmos_sdtm:RelationShip ;
    cosmos_sdtm:linkingPhrase <https://www.cdisc.org/cosmos/sdtm_v1.0/LinkingPhraseEnum#is%20the%20result%20of%20the%20test%20in> ;
    cosmos_sdtm:object "EGTESTCD" ;
    cosmos_sdtm:predicateTerm <https://www.cdisc.org/cosmos/sdtm_v1.0/PredicateTermEnum#IS_RESULT_OF> ;
    cosmos_sdtm:subject "EGSTRESC" .

<https://w3id.org/cdisc/cosmos/dss/EG/MI/EGTEST/assignedTerm> a cosmos_sdtm:AssignedTerm ;
    cosmos_sdtm:conceptId NCIT:C111280 ;
    cosmos_sdtm:value "Myocardial Infarction" .

<https://w3id.org/cdisc/cosmos/dss/EG/MI/EGTEST/relationship> a cosmos_sdtm:RelationShip ;
    cosmos_sdtm:linkingPhrase <https://www.cdisc.org/cosmos/sdtm_v1.0/LinkingPhraseEnum#decodes%20the%20value%20in> ;
    cosmos_sdtm:object "EGTESTCD" ;
    cosmos_sdtm:predicateTerm <https://www.cdisc.org/cosmos/sdtm_v1.0/PredicateTermEnum#DECODES> ;
    cosmos_sdtm:subject "EGTEST" .

<https://w3id.org/cdisc/cosmos/dss/EG/MI/EGTESTCD/assignedTerm> a cosmos_sdtm:AssignedTerm ;
    cosmos_sdtm:conceptId NCIT:C111280 ;
    cosmos_sdtm:value "MI" .

<https://w3id.org/cdisc/cosmos/dss/EG/MI/EGTESTCD/relationship> a cosmos_sdtm:RelationShip ;
    cosmos_sdtm:linkingPhrase <https://www.cdisc.org/cosmos/sdtm_v1.0/LinkingPhraseEnum#is%20the%20code%20for%20the%20value%20in> ;
    cosmos_sdtm:object "EGTEST" ;
    cosmos_sdtm:predicateTerm <https://www.cdisc.org/cosmos/sdtm_v1.0/PredicateTermEnum#IS_DECODED_BY> ;
    cosmos_sdtm:subject "EGTESTCD" .

<https://w3id.org/cdisc/cosmos/dss/EG/PACEMAKR/EGCAT/assignedTerm> a cosmos_sdtm:AssignedTerm ;
    cosmos_sdtm:value "FINDING" .

<https://w3id.org/cdisc/cosmos/dss/EG/PACEMAKR/EGCAT/relationship> a cosmos_sdtm:RelationShip ;
    cosmos_sdtm:linkingPhrase <https://www.cdisc.org/cosmos/sdtm_v1.0/LinkingPhraseEnum#groups%20values%20in> ;
    cosmos_sdtm:object "EGTESTCD" ;
    cosmos_sdtm:predicateTerm <https://www.cdisc.org/cosmos/sdtm_v1.0/PredicateTermEnum#GROUPS> ;
    cosmos_sdtm:subject "EGCAT" .

<https://w3id.org/cdisc/cosmos/dss/EG/PACEMAKR/EGDTC/relationship> a cosmos_sdtm:RelationShip ;
    cosmos_sdtm:linkingPhrase <https://www.cdisc.org/cosmos/sdtm_v1.0/LinkingPhraseEnum#is%20the%20date%20of%20occurrence%20for> ;
    cosmos_sdtm:object "EGTESTCD" ;
    cosmos_sdtm:predicateTerm <https://www.cdisc.org/cosmos/sdtm_v1.0/PredicateTermEnum#IS_TIMING_FOR> ;
    cosmos_sdtm:subject "EGDTC" .

<https://w3id.org/cdisc/cosmos/dss/EG/PACEMAKR/EGEVAL/relationship> a cosmos_sdtm:RelationShip ;
    cosmos_sdtm:linkingPhrase <https://www.cdisc.org/cosmos/sdtm_v1.0/LinkingPhraseEnum#is%20the%20role%20of%20the%20assessor%20who%20performed%20the%20test%20in> ;
    cosmos_sdtm:object "EGTESTCD" ;
    cosmos_sdtm:predicateTerm <https://www.cdisc.org/cosmos/sdtm_v1.0/PredicateTermEnum#PERFORMS> ;
    cosmos_sdtm:subject "EGEVAL" .

<https://w3id.org/cdisc/cosmos/dss/EG/PACEMAKR/EGMETHOD/relationship> a cosmos_sdtm:RelationShip ;
    cosmos_sdtm:linkingPhrase <https://www.cdisc.org/cosmos/sdtm_v1.0/LinkingPhraseEnum#is%20the%20method%20for%20the%20test%20in> ;
    cosmos_sdtm:object "EGTESTCD" ;
    cosmos_sdtm:predicateTerm <https://www.cdisc.org/cosmos/sdtm_v1.0/PredicateTermEnum#SPECIFIES> ;
    cosmos_sdtm:subject "EGMETHOD" .

<https://w3id.org/cdisc/cosmos/dss/EG/PACEMAKR/EGORRES/relationship> a cosmos_sdtm:RelationShip ;
    cosmos_sdtm:linkingPhrase <https://www.cdisc.org/cosmos/sdtm_v1.0/LinkingPhraseEnum#is%20the%20result%20of%20the%20test%20in> ;
    cosmos_sdtm:object "EGTESTCD" ;
    cosmos_sdtm:predicateTerm <https://www.cdisc.org/cosmos/sdtm_v1.0/PredicateTermEnum#IS_RESULT_OF> ;
    cosmos_sdtm:subject "EGORRES" .

<https://w3id.org/cdisc/cosmos/dss/EG/PACEMAKR/EGPOS/relationship> a cosmos_sdtm:RelationShip ;
    cosmos_sdtm:linkingPhrase <https://www.cdisc.org/cosmos/sdtm_v1.0/LinkingPhraseEnum#was%20the%20subject%20position%20during%20performance%20of%20the%20test%20in> ;
    cosmos_sdtm:object "EGTESTCD" ;
    cosmos_sdtm:predicateTerm <https://www.cdisc.org/cosmos/sdtm_v1.0/PredicateTermEnum#IS_SUBJECT_STATE_FOR> ;
    cosmos_sdtm:subject "EGPOS" .

<https://w3id.org/cdisc/cosmos/dss/EG/PACEMAKR/EGSTRESC/relationship> a cosmos_sdtm:RelationShip ;
    cosmos_sdtm:linkingPhrase <https://www.cdisc.org/cosmos/sdtm_v1.0/LinkingPhraseEnum#is%20the%20result%20of%20the%20test%20in> ;
    cosmos_sdtm:object "EGTESTCD" ;
    cosmos_sdtm:predicateTerm <https://www.cdisc.org/cosmos/sdtm_v1.0/PredicateTermEnum#IS_RESULT_OF> ;
    cosmos_sdtm:subject "EGSTRESC" .

<https://w3id.org/cdisc/cosmos/dss/EG/PACEMAKR/EGTEST/assignedTerm> a cosmos_sdtm:AssignedTerm ;
    cosmos_sdtm:conceptId NCIT:C111285 ;
    cosmos_sdtm:value "Pacemaker" .

<https://w3id.org/cdisc/cosmos/dss/EG/PACEMAKR/EGTEST/relationship> a cosmos_sdtm:RelationShip ;
    cosmos_sdtm:linkingPhrase <https://www.cdisc.org/cosmos/sdtm_v1.0/LinkingPhraseEnum#decodes%20the%20value%20in> ;
    cosmos_sdtm:object "EGTESTCD" ;
    cosmos_sdtm:predicateTerm <https://www.cdisc.org/cosmos/sdtm_v1.0/PredicateTermEnum#DECODES> ;
    cosmos_sdtm:subject "EGTEST" .

<https://w3id.org/cdisc/cosmos/dss/EG/PACEMAKR/EGTESTCD/assignedTerm> a cosmos_sdtm:AssignedTerm ;
    cosmos_sdtm:conceptId NCIT:C111285 ;
    cosmos_sdtm:value "PACEMAKR" .

<https://w3id.org/cdisc/cosmos/dss/EG/PACEMAKR/EGTESTCD/relationship> a cosmos_sdtm:RelationShip ;
    cosmos_sdtm:linkingPhrase <https://www.cdisc.org/cosmos/sdtm_v1.0/LinkingPhraseEnum#is%20the%20code%20for%20the%20value%20in> ;
    cosmos_sdtm:object "EGTEST" ;
    cosmos_sdtm:predicateTerm <https://www.cdisc.org/cosmos/sdtm_v1.0/PredicateTermEnum#IS_DECODED_BY> ;
    cosmos_sdtm:subject "EGTESTCD" .

<https://w3id.org/cdisc/cosmos/dss/EG/PPSM/EGCAT/assignedTerm> a cosmos_sdtm:AssignedTerm ;
    cosmos_sdtm:value "INTERVAL" .

<https://w3id.org/cdisc/cosmos/dss/EG/PPSM/EGCAT/relationship> a cosmos_sdtm:RelationShip ;
    cosmos_sdtm:linkingPhrase <https://www.cdisc.org/cosmos/sdtm_v1.0/LinkingPhraseEnum#groups%20values%20in> ;
    cosmos_sdtm:object "EGTESTCD" ;
    cosmos_sdtm:predicateTerm <https://www.cdisc.org/cosmos/sdtm_v1.0/PredicateTermEnum#GROUPS> ;
    cosmos_sdtm:subject "EGCAT" .

<https://w3id.org/cdisc/cosmos/dss/EG/PPSM/EGDTC/relationship> a cosmos_sdtm:RelationShip ;
    cosmos_sdtm:linkingPhrase <https://www.cdisc.org/cosmos/sdtm_v1.0/LinkingPhraseEnum#is%20the%20date%20of%20occurrence%20for> ;
    cosmos_sdtm:object "EGTESTCD" ;
    cosmos_sdtm:predicateTerm <https://www.cdisc.org/cosmos/sdtm_v1.0/PredicateTermEnum#IS_TIMING_FOR> ;
    cosmos_sdtm:subject "EGDTC" .

<https://w3id.org/cdisc/cosmos/dss/EG/PPSM/EGENDTC/relationship> a cosmos_sdtm:RelationShip ;
    cosmos_sdtm:linkingPhrase <https://www.cdisc.org/cosmos/sdtm_v1.0/LinkingPhraseEnum#is%20the%20end%20date%20for> ;
    cosmos_sdtm:object "EGTESTCD" ;
    cosmos_sdtm:predicateTerm <https://www.cdisc.org/cosmos/sdtm_v1.0/PredicateTermEnum#IS_TIMING_FOR> ;
    cosmos_sdtm:subject "EGENDTC" .

<https://w3id.org/cdisc/cosmos/dss/EG/PPSM/EGEVAL/relationship> a cosmos_sdtm:RelationShip ;
    cosmos_sdtm:linkingPhrase <https://www.cdisc.org/cosmos/sdtm_v1.0/LinkingPhraseEnum#is%20the%20role%20of%20the%20assessor%20who%20performed%20the%20test%20in> ;
    cosmos_sdtm:object "EGTESTCD" ;
    cosmos_sdtm:predicateTerm <https://www.cdisc.org/cosmos/sdtm_v1.0/PredicateTermEnum#PERFORMS> ;
    cosmos_sdtm:subject "EGEVAL" .

<https://w3id.org/cdisc/cosmos/dss/EG/PPSM/EGMETHOD/relationship> a cosmos_sdtm:RelationShip ;
    cosmos_sdtm:linkingPhrase <https://www.cdisc.org/cosmos/sdtm_v1.0/LinkingPhraseEnum#is%20the%20method%20for%20the%20test%20in> ;
    cosmos_sdtm:object "EGTESTCD" ;
    cosmos_sdtm:predicateTerm <https://www.cdisc.org/cosmos/sdtm_v1.0/PredicateTermEnum#SPECIFIES> ;
    cosmos_sdtm:subject "EGMETHOD" .

<https://w3id.org/cdisc/cosmos/dss/EG/PPSM/EGORRES/relationship> a cosmos_sdtm:RelationShip ;
    cosmos_sdtm:linkingPhrase <https://www.cdisc.org/cosmos/sdtm_v1.0/LinkingPhraseEnum#is%20the%20result%20of%20the%20test%20in> ;
    cosmos_sdtm:object "EGTESTCD" ;
    cosmos_sdtm:predicateTerm <https://www.cdisc.org/cosmos/sdtm_v1.0/PredicateTermEnum#IS_RESULT_OF> ;
    cosmos_sdtm:subject "EGORRES" .

<https://w3id.org/cdisc/cosmos/dss/EG/PPSM/EGORRESU/relationship> a cosmos_sdtm:RelationShip ;
    cosmos_sdtm:linkingPhrase <https://www.cdisc.org/cosmos/sdtm_v1.0/LinkingPhraseEnum#is%20the%20unit%20for%20the%20value%20in> ;
    cosmos_sdtm:object "EGORRES" ;
    cosmos_sdtm:predicateTerm <https://www.cdisc.org/cosmos/sdtm_v1.0/PredicateTermEnum#IS_UNIT_FOR> ;
    cosmos_sdtm:subject "EGORRESU" .

<https://w3id.org/cdisc/cosmos/dss/EG/PPSM/EGPOS/relationship> a cosmos_sdtm:RelationShip ;
    cosmos_sdtm:linkingPhrase <https://www.cdisc.org/cosmos/sdtm_v1.0/LinkingPhraseEnum#was%20the%20subject%20position%20during%20performance%20of%20the%20test%20in> ;
    cosmos_sdtm:object "EGTESTCD" ;
    cosmos_sdtm:predicateTerm <https://www.cdisc.org/cosmos/sdtm_v1.0/PredicateTermEnum#IS_SUBJECT_STATE_FOR> ;
    cosmos_sdtm:subject "EGPOS" .

<https://w3id.org/cdisc/cosmos/dss/EG/PPSM/EGSTRESC/relationship> a cosmos_sdtm:RelationShip ;
    cosmos_sdtm:linkingPhrase <https://www.cdisc.org/cosmos/sdtm_v1.0/LinkingPhraseEnum#is%20the%20result%20of%20the%20test%20in> ;
    cosmos_sdtm:object "EGTESTCD" ;
    cosmos_sdtm:predicateTerm <https://www.cdisc.org/cosmos/sdtm_v1.0/PredicateTermEnum#IS_RESULT_OF> ;
    cosmos_sdtm:subject "EGSTRESC" .

<https://w3id.org/cdisc/cosmos/dss/EG/PPSM/EGSTRESN/relationship> a cosmos_sdtm:RelationShip ;
    cosmos_sdtm:linkingPhrase <https://www.cdisc.org/cosmos/sdtm_v1.0/LinkingPhraseEnum#is%20the%20result%20of%20the%20test%20in> ;
    cosmos_sdtm:object "EGTESTCD" ;
    cosmos_sdtm:predicateTerm <https://www.cdisc.org/cosmos/sdtm_v1.0/PredicateTermEnum#IS_RESULT_OF> ;
    cosmos_sdtm:subject "EGSTRESN" .

<https://w3id.org/cdisc/cosmos/dss/EG/PPSM/EGSTRESU/assignedTerm> a cosmos_sdtm:AssignedTerm ;
    cosmos_sdtm:conceptId NCIT:C41140 ;
    cosmos_sdtm:value "ms" .

<https://w3id.org/cdisc/cosmos/dss/EG/PPSM/EGSTRESU/relationship> a cosmos_sdtm:RelationShip ;
    cosmos_sdtm:linkingPhrase <https://www.cdisc.org/cosmos/sdtm_v1.0/LinkingPhraseEnum#is%20the%20unit%20for%20the%20value%20in> ;
    cosmos_sdtm:object "EGSTRESN" ;
    cosmos_sdtm:predicateTerm <https://www.cdisc.org/cosmos/sdtm_v1.0/PredicateTermEnum#IS_UNIT_FOR> ;
    cosmos_sdtm:subject "EGSTRESU" .

<https://w3id.org/cdisc/cosmos/dss/EG/PPSM/EGTEST/assignedTerm> a cosmos_sdtm:AssignedTerm ;
    cosmos_sdtm:conceptId NCIT:C117772 ;
    cosmos_sdtm:value "PP Interval, Single Measurement" .

<https://w3id.org/cdisc/cosmos/dss/EG/PPSM/EGTEST/relationship> a cosmos_sdtm:RelationShip ;
    cosmos_sdtm:linkingPhrase <https://www.cdisc.org/cosmos/sdtm_v1.0/LinkingPhraseEnum#decodes%20the%20value%20in> ;
    cosmos_sdtm:object "EGTESTCD" ;
    cosmos_sdtm:predicateTerm <https://www.cdisc.org/cosmos/sdtm_v1.0/PredicateTermEnum#DECODES> ;
    cosmos_sdtm:subject "EGTEST" .

<https://w3id.org/cdisc/cosmos/dss/EG/PPSM/EGTESTCD/assignedTerm> a cosmos_sdtm:AssignedTerm ;
    cosmos_sdtm:conceptId NCIT:C117772 ;
    cosmos_sdtm:value "PPSM" .

<https://w3id.org/cdisc/cosmos/dss/EG/PPSM/EGTESTCD/relationship> a cosmos_sdtm:RelationShip ;
    cosmos_sdtm:linkingPhrase <https://www.cdisc.org/cosmos/sdtm_v1.0/LinkingPhraseEnum#is%20the%20code%20for%20the%20value%20in> ;
    cosmos_sdtm:object "EGTEST" ;
    cosmos_sdtm:predicateTerm <https://www.cdisc.org/cosmos/sdtm_v1.0/PredicateTermEnum#IS_DECODED_BY> ;
    cosmos_sdtm:subject "EGTESTCD" .

<https://w3id.org/cdisc/cosmos/dss/EG/PRAG/EGCAT/assignedTerm> a cosmos_sdtm:AssignedTerm ;
    cosmos_sdtm:value "INTERVAL" .

<https://w3id.org/cdisc/cosmos/dss/EG/PRAG/EGCAT/relationship> a cosmos_sdtm:RelationShip ;
    cosmos_sdtm:linkingPhrase <https://www.cdisc.org/cosmos/sdtm_v1.0/LinkingPhraseEnum#groups%20values%20in> ;
    cosmos_sdtm:object "EGTESTCD" ;
    cosmos_sdtm:predicateTerm <https://www.cdisc.org/cosmos/sdtm_v1.0/PredicateTermEnum#GROUPS> ;
    cosmos_sdtm:subject "EGCAT" .

<https://w3id.org/cdisc/cosmos/dss/EG/PRAG/EGDTC/relationship> a cosmos_sdtm:RelationShip ;
    cosmos_sdtm:linkingPhrase <https://www.cdisc.org/cosmos/sdtm_v1.0/LinkingPhraseEnum#is%20the%20date%20of%20occurrence%20for> ;
    cosmos_sdtm:object "EGTESTCD" ;
    cosmos_sdtm:predicateTerm <https://www.cdisc.org/cosmos/sdtm_v1.0/PredicateTermEnum#IS_TIMING_FOR> ;
    cosmos_sdtm:subject "EGDTC" .

<https://w3id.org/cdisc/cosmos/dss/EG/PRAG/EGENDTC/relationship> a cosmos_sdtm:RelationShip ;
    cosmos_sdtm:linkingPhrase <https://www.cdisc.org/cosmos/sdtm_v1.0/LinkingPhraseEnum#is%20the%20end%20date%20for> ;
    cosmos_sdtm:object "EGTESTCD" ;
    cosmos_sdtm:predicateTerm <https://www.cdisc.org/cosmos/sdtm_v1.0/PredicateTermEnum#IS_TIMING_FOR> ;
    cosmos_sdtm:subject "EGENDTC" .

<https://w3id.org/cdisc/cosmos/dss/EG/PRAG/EGEVAL/relationship> a cosmos_sdtm:RelationShip ;
    cosmos_sdtm:linkingPhrase <https://www.cdisc.org/cosmos/sdtm_v1.0/LinkingPhraseEnum#is%20the%20role%20of%20the%20assessor%20who%20performed%20the%20test%20in> ;
    cosmos_sdtm:object "EGTESTCD" ;
    cosmos_sdtm:predicateTerm <https://www.cdisc.org/cosmos/sdtm_v1.0/PredicateTermEnum#PERFORMS> ;
    cosmos_sdtm:subject "EGEVAL" .

<https://w3id.org/cdisc/cosmos/dss/EG/PRAG/EGMETHOD/relationship> a cosmos_sdtm:RelationShip ;
    cosmos_sdtm:linkingPhrase <https://www.cdisc.org/cosmos/sdtm_v1.0/LinkingPhraseEnum#is%20the%20method%20for%20the%20test%20in> ;
    cosmos_sdtm:object "EGTESTCD" ;
    cosmos_sdtm:predicateTerm <https://www.cdisc.org/cosmos/sdtm_v1.0/PredicateTermEnum#SPECIFIES> ;
    cosmos_sdtm:subject "EGMETHOD" .

<https://w3id.org/cdisc/cosmos/dss/EG/PRAG/EGORRES/relationship> a cosmos_sdtm:RelationShip ;
    cosmos_sdtm:linkingPhrase <https://www.cdisc.org/cosmos/sdtm_v1.0/LinkingPhraseEnum#is%20the%20result%20of%20the%20test%20in> ;
    cosmos_sdtm:object "EGTESTCD" ;
    cosmos_sdtm:predicateTerm <https://www.cdisc.org/cosmos/sdtm_v1.0/PredicateTermEnum#IS_RESULT_OF> ;
    cosmos_sdtm:subject "EGORRES" .

<https://w3id.org/cdisc/cosmos/dss/EG/PRAG/EGORRESU/relationship> a cosmos_sdtm:RelationShip ;
    cosmos_sdtm:linkingPhrase <https://www.cdisc.org/cosmos/sdtm_v1.0/LinkingPhraseEnum#is%20the%20unit%20for%20the%20value%20in> ;
    cosmos_sdtm:object "EGORRES" ;
    cosmos_sdtm:predicateTerm <https://www.cdisc.org/cosmos/sdtm_v1.0/PredicateTermEnum#IS_UNIT_FOR> ;
    cosmos_sdtm:subject "EGORRESU" .

<https://w3id.org/cdisc/cosmos/dss/EG/PRAG/EGPOS/relationship> a cosmos_sdtm:RelationShip ;
    cosmos_sdtm:linkingPhrase <https://www.cdisc.org/cosmos/sdtm_v1.0/LinkingPhraseEnum#was%20the%20subject%20position%20during%20performance%20of%20the%20test%20in> ;
    cosmos_sdtm:object "EGTESTCD" ;
    cosmos_sdtm:predicateTerm <https://www.cdisc.org/cosmos/sdtm_v1.0/PredicateTermEnum#IS_SUBJECT_STATE_FOR> ;
    cosmos_sdtm:subject "EGPOS" .

<https://w3id.org/cdisc/cosmos/dss/EG/PRAG/EGSTRESC/relationship> a cosmos_sdtm:RelationShip ;
    cosmos_sdtm:linkingPhrase <https://www.cdisc.org/cosmos/sdtm_v1.0/LinkingPhraseEnum#is%20the%20result%20of%20the%20test%20in> ;
    cosmos_sdtm:object "EGTESTCD" ;
    cosmos_sdtm:predicateTerm <https://www.cdisc.org/cosmos/sdtm_v1.0/PredicateTermEnum#IS_RESULT_OF> ;
    cosmos_sdtm:subject "EGSTRESC" .

<https://w3id.org/cdisc/cosmos/dss/EG/PRAG/EGSTRESN/relationship> a cosmos_sdtm:RelationShip ;
    cosmos_sdtm:linkingPhrase <https://www.cdisc.org/cosmos/sdtm_v1.0/LinkingPhraseEnum#is%20the%20result%20of%20the%20test%20in> ;
    cosmos_sdtm:object "EGTESTCD" ;
    cosmos_sdtm:predicateTerm <https://www.cdisc.org/cosmos/sdtm_v1.0/PredicateTermEnum#IS_RESULT_OF> ;
    cosmos_sdtm:subject "EGSTRESN" .

<https://w3id.org/cdisc/cosmos/dss/EG/PRAG/EGSTRESU/assignedTerm> a cosmos_sdtm:AssignedTerm ;
    cosmos_sdtm:conceptId NCIT:C41140 ;
    cosmos_sdtm:value "ms" .

<https://w3id.org/cdisc/cosmos/dss/EG/PRAG/EGSTRESU/relationship> a cosmos_sdtm:RelationShip ;
    cosmos_sdtm:linkingPhrase <https://www.cdisc.org/cosmos/sdtm_v1.0/LinkingPhraseEnum#is%20the%20unit%20for%20the%20value%20in> ;
    cosmos_sdtm:object "EGSTRESN" ;
    cosmos_sdtm:predicateTerm <https://www.cdisc.org/cosmos/sdtm_v1.0/PredicateTermEnum#IS_UNIT_FOR> ;
    cosmos_sdtm:subject "EGSTRESU" .

<https://w3id.org/cdisc/cosmos/dss/EG/PRAG/EGTEST/assignedTerm> a cosmos_sdtm:AssignedTerm ;
    cosmos_sdtm:conceptId NCIT:C117773 ;
    cosmos_sdtm:value "PR Interval, Aggregate" .

<https://w3id.org/cdisc/cosmos/dss/EG/PRAG/EGTEST/relationship> a cosmos_sdtm:RelationShip ;
    cosmos_sdtm:linkingPhrase <https://www.cdisc.org/cosmos/sdtm_v1.0/LinkingPhraseEnum#decodes%20the%20value%20in> ;
    cosmos_sdtm:object "EGTESTCD" ;
    cosmos_sdtm:predicateTerm <https://www.cdisc.org/cosmos/sdtm_v1.0/PredicateTermEnum#DECODES> ;
    cosmos_sdtm:subject "EGTEST" .

<https://w3id.org/cdisc/cosmos/dss/EG/PRAG/EGTESTCD/assignedTerm> a cosmos_sdtm:AssignedTerm ;
    cosmos_sdtm:conceptId NCIT:C117773 ;
    cosmos_sdtm:value "PRAG" .

<https://w3id.org/cdisc/cosmos/dss/EG/PRAG/EGTESTCD/relationship> a cosmos_sdtm:RelationShip ;
    cosmos_sdtm:linkingPhrase <https://www.cdisc.org/cosmos/sdtm_v1.0/LinkingPhraseEnum#is%20the%20code%20for%20the%20value%20in> ;
    cosmos_sdtm:object "EGTEST" ;
    cosmos_sdtm:predicateTerm <https://www.cdisc.org/cosmos/sdtm_v1.0/PredicateTermEnum#IS_DECODED_BY> ;
    cosmos_sdtm:subject "EGTESTCD" .

<https://w3id.org/cdisc/cosmos/dss/EG/PRSB/EGCAT/assignedTerm> a cosmos_sdtm:AssignedTerm ;
    cosmos_sdtm:value "INTERVAL" .

<https://w3id.org/cdisc/cosmos/dss/EG/PRSB/EGCAT/relationship> a cosmos_sdtm:RelationShip ;
    cosmos_sdtm:linkingPhrase <https://www.cdisc.org/cosmos/sdtm_v1.0/LinkingPhraseEnum#groups%20values%20in> ;
    cosmos_sdtm:object "EGTESTCD" ;
    cosmos_sdtm:predicateTerm <https://www.cdisc.org/cosmos/sdtm_v1.0/PredicateTermEnum#GROUPS> ;
    cosmos_sdtm:subject "EGCAT" .

<https://w3id.org/cdisc/cosmos/dss/EG/PRSB/EGDTC/relationship> a cosmos_sdtm:RelationShip ;
    cosmos_sdtm:linkingPhrase <https://www.cdisc.org/cosmos/sdtm_v1.0/LinkingPhraseEnum#is%20the%20date%20of%20occurrence%20for> ;
    cosmos_sdtm:object "EGTESTCD" ;
    cosmos_sdtm:predicateTerm <https://www.cdisc.org/cosmos/sdtm_v1.0/PredicateTermEnum#IS_TIMING_FOR> ;
    cosmos_sdtm:subject "EGDTC" .

<https://w3id.org/cdisc/cosmos/dss/EG/PRSB/EGENDTC/relationship> a cosmos_sdtm:RelationShip ;
    cosmos_sdtm:linkingPhrase <https://www.cdisc.org/cosmos/sdtm_v1.0/LinkingPhraseEnum#is%20the%20end%20date%20for> ;
    cosmos_sdtm:object "EGTESTCD" ;
    cosmos_sdtm:predicateTerm <https://www.cdisc.org/cosmos/sdtm_v1.0/PredicateTermEnum#IS_TIMING_FOR> ;
    cosmos_sdtm:subject "EGENDTC" .

<https://w3id.org/cdisc/cosmos/dss/EG/PRSB/EGEVAL/relationship> a cosmos_sdtm:RelationShip ;
    cosmos_sdtm:linkingPhrase <https://www.cdisc.org/cosmos/sdtm_v1.0/LinkingPhraseEnum#is%20the%20role%20of%20the%20assessor%20who%20performed%20the%20test%20in> ;
    cosmos_sdtm:object "EGTESTCD" ;
    cosmos_sdtm:predicateTerm <https://www.cdisc.org/cosmos/sdtm_v1.0/PredicateTermEnum#PERFORMS> ;
    cosmos_sdtm:subject "EGEVAL" .

<https://w3id.org/cdisc/cosmos/dss/EG/PRSB/EGMETHOD/relationship> a cosmos_sdtm:RelationShip ;
    cosmos_sdtm:linkingPhrase <https://www.cdisc.org/cosmos/sdtm_v1.0/LinkingPhraseEnum#is%20the%20method%20for%20the%20test%20in> ;
    cosmos_sdtm:object "EGTESTCD" ;
    cosmos_sdtm:predicateTerm <https://www.cdisc.org/cosmos/sdtm_v1.0/PredicateTermEnum#SPECIFIES> ;
    cosmos_sdtm:subject "EGMETHOD" .

<https://w3id.org/cdisc/cosmos/dss/EG/PRSB/EGORRES/relationship> a cosmos_sdtm:RelationShip ;
    cosmos_sdtm:linkingPhrase <https://www.cdisc.org/cosmos/sdtm_v1.0/LinkingPhraseEnum#is%20the%20result%20of%20the%20test%20in> ;
    cosmos_sdtm:object "EGTESTCD" ;
    cosmos_sdtm:predicateTerm <https://www.cdisc.org/cosmos/sdtm_v1.0/PredicateTermEnum#IS_RESULT_OF> ;
    cosmos_sdtm:subject "EGORRES" .

<https://w3id.org/cdisc/cosmos/dss/EG/PRSB/EGORRESU/relationship> a cosmos_sdtm:RelationShip ;
    cosmos_sdtm:linkingPhrase <https://www.cdisc.org/cosmos/sdtm_v1.0/LinkingPhraseEnum#is%20the%20unit%20for%20the%20value%20in> ;
    cosmos_sdtm:object "EGORRES" ;
    cosmos_sdtm:predicateTerm <https://www.cdisc.org/cosmos/sdtm_v1.0/PredicateTermEnum#IS_UNIT_FOR> ;
    cosmos_sdtm:subject "EGORRESU" .

<https://w3id.org/cdisc/cosmos/dss/EG/PRSB/EGPOS/relationship> a cosmos_sdtm:RelationShip ;
    cosmos_sdtm:linkingPhrase <https://www.cdisc.org/cosmos/sdtm_v1.0/LinkingPhraseEnum#was%20the%20subject%20position%20during%20performance%20of%20the%20test%20in> ;
    cosmos_sdtm:object "EGTESTCD" ;
    cosmos_sdtm:predicateTerm <https://www.cdisc.org/cosmos/sdtm_v1.0/PredicateTermEnum#IS_SUBJECT_STATE_FOR> ;
    cosmos_sdtm:subject "EGPOS" .

<https://w3id.org/cdisc/cosmos/dss/EG/PRSB/EGSTRESC/relationship> a cosmos_sdtm:RelationShip ;
    cosmos_sdtm:linkingPhrase <https://www.cdisc.org/cosmos/sdtm_v1.0/LinkingPhraseEnum#is%20the%20result%20of%20the%20test%20in> ;
    cosmos_sdtm:object "EGTESTCD" ;
    cosmos_sdtm:predicateTerm <https://www.cdisc.org/cosmos/sdtm_v1.0/PredicateTermEnum#IS_RESULT_OF> ;
    cosmos_sdtm:subject "EGSTRESC" .

<https://w3id.org/cdisc/cosmos/dss/EG/PRSB/EGSTRESN/relationship> a cosmos_sdtm:RelationShip ;
    cosmos_sdtm:linkingPhrase <https://www.cdisc.org/cosmos/sdtm_v1.0/LinkingPhraseEnum#is%20the%20result%20of%20the%20test%20in> ;
    cosmos_sdtm:object "EGTESTCD" ;
    cosmos_sdtm:predicateTerm <https://www.cdisc.org/cosmos/sdtm_v1.0/PredicateTermEnum#IS_RESULT_OF> ;
    cosmos_sdtm:subject "EGSTRESN" .

<https://w3id.org/cdisc/cosmos/dss/EG/PRSB/EGSTRESU/assignedTerm> a cosmos_sdtm:AssignedTerm ;
    cosmos_sdtm:conceptId NCIT:C41140 ;
    cosmos_sdtm:value "ms" .

<https://w3id.org/cdisc/cosmos/dss/EG/PRSB/EGSTRESU/relationship> a cosmos_sdtm:RelationShip ;
    cosmos_sdtm:linkingPhrase <https://www.cdisc.org/cosmos/sdtm_v1.0/LinkingPhraseEnum#is%20the%20unit%20for%20the%20value%20in> ;
    cosmos_sdtm:object "EGSTRESN" ;
    cosmos_sdtm:predicateTerm <https://www.cdisc.org/cosmos/sdtm_v1.0/PredicateTermEnum#IS_UNIT_FOR> ;
    cosmos_sdtm:subject "EGSTRESU" .

<https://w3id.org/cdisc/cosmos/dss/EG/PRSB/EGTEST/assignedTerm> a cosmos_sdtm:AssignedTerm ;
    cosmos_sdtm:conceptId NCIT:C117774 ;
    cosmos_sdtm:value "PR Interval, Single Beat" .

<https://w3id.org/cdisc/cosmos/dss/EG/PRSB/EGTEST/relationship> a cosmos_sdtm:RelationShip ;
    cosmos_sdtm:linkingPhrase <https://www.cdisc.org/cosmos/sdtm_v1.0/LinkingPhraseEnum#decodes%20the%20value%20in> ;
    cosmos_sdtm:object "EGTESTCD" ;
    cosmos_sdtm:predicateTerm <https://www.cdisc.org/cosmos/sdtm_v1.0/PredicateTermEnum#DECODES> ;
    cosmos_sdtm:subject "EGTEST" .

<https://w3id.org/cdisc/cosmos/dss/EG/PRSB/EGTESTCD/assignedTerm> a cosmos_sdtm:AssignedTerm ;
    cosmos_sdtm:conceptId NCIT:C117774 ;
    cosmos_sdtm:value "PRSB" .

<https://w3id.org/cdisc/cosmos/dss/EG/PRSB/EGTESTCD/relationship> a cosmos_sdtm:RelationShip ;
    cosmos_sdtm:linkingPhrase <https://www.cdisc.org/cosmos/sdtm_v1.0/LinkingPhraseEnum#is%20the%20code%20for%20the%20value%20in> ;
    cosmos_sdtm:object "EGTEST" ;
    cosmos_sdtm:predicateTerm <https://www.cdisc.org/cosmos/sdtm_v1.0/PredicateTermEnum#IS_DECODED_BY> ;
    cosmos_sdtm:subject "EGTESTCD" .

<https://w3id.org/cdisc/cosmos/dss/EG/PWDURSB/EGCAT/assignedTerm> a cosmos_sdtm:AssignedTerm ;
    cosmos_sdtm:value "INTERVAL" .

<https://w3id.org/cdisc/cosmos/dss/EG/PWDURSB/EGCAT/relationship> a cosmos_sdtm:RelationShip ;
    cosmos_sdtm:linkingPhrase <https://www.cdisc.org/cosmos/sdtm_v1.0/LinkingPhraseEnum#groups%20values%20in> ;
    cosmos_sdtm:object "EGTESTCD" ;
    cosmos_sdtm:predicateTerm <https://www.cdisc.org/cosmos/sdtm_v1.0/PredicateTermEnum#GROUPS> ;
    cosmos_sdtm:subject "EGCAT" .

<https://w3id.org/cdisc/cosmos/dss/EG/PWDURSB/EGDTC/relationship> a cosmos_sdtm:RelationShip ;
    cosmos_sdtm:linkingPhrase <https://www.cdisc.org/cosmos/sdtm_v1.0/LinkingPhraseEnum#is%20the%20date%20of%20occurrence%20for> ;
    cosmos_sdtm:object "EGTESTCD" ;
    cosmos_sdtm:predicateTerm <https://www.cdisc.org/cosmos/sdtm_v1.0/PredicateTermEnum#IS_TIMING_FOR> ;
    cosmos_sdtm:subject "EGDTC" .

<https://w3id.org/cdisc/cosmos/dss/EG/PWDURSB/EGENDTC/relationship> a cosmos_sdtm:RelationShip ;
    cosmos_sdtm:linkingPhrase <https://www.cdisc.org/cosmos/sdtm_v1.0/LinkingPhraseEnum#is%20the%20end%20date%20for> ;
    cosmos_sdtm:object "EGTESTCD" ;
    cosmos_sdtm:predicateTerm <https://www.cdisc.org/cosmos/sdtm_v1.0/PredicateTermEnum#IS_TIMING_FOR> ;
    cosmos_sdtm:subject "EGENDTC" .

<https://w3id.org/cdisc/cosmos/dss/EG/PWDURSB/EGEVAL/relationship> a cosmos_sdtm:RelationShip ;
    cosmos_sdtm:linkingPhrase <https://www.cdisc.org/cosmos/sdtm_v1.0/LinkingPhraseEnum#is%20the%20role%20of%20the%20assessor%20who%20performed%20the%20test%20in> ;
    cosmos_sdtm:object "EGTESTCD" ;
    cosmos_sdtm:predicateTerm <https://www.cdisc.org/cosmos/sdtm_v1.0/PredicateTermEnum#PERFORMS> ;
    cosmos_sdtm:subject "EGEVAL" .

<https://w3id.org/cdisc/cosmos/dss/EG/PWDURSB/EGMETHOD/relationship> a cosmos_sdtm:RelationShip ;
    cosmos_sdtm:linkingPhrase <https://www.cdisc.org/cosmos/sdtm_v1.0/LinkingPhraseEnum#is%20the%20method%20for%20the%20test%20in> ;
    cosmos_sdtm:object "EGTESTCD" ;
    cosmos_sdtm:predicateTerm <https://www.cdisc.org/cosmos/sdtm_v1.0/PredicateTermEnum#SPECIFIES> ;
    cosmos_sdtm:subject "EGMETHOD" .

<https://w3id.org/cdisc/cosmos/dss/EG/PWDURSB/EGORRES/relationship> a cosmos_sdtm:RelationShip ;
    cosmos_sdtm:linkingPhrase <https://www.cdisc.org/cosmos/sdtm_v1.0/LinkingPhraseEnum#is%20the%20result%20of%20the%20test%20in> ;
    cosmos_sdtm:object "EGTESTCD" ;
    cosmos_sdtm:predicateTerm <https://www.cdisc.org/cosmos/sdtm_v1.0/PredicateTermEnum#IS_RESULT_OF> ;
    cosmos_sdtm:subject "EGORRES" .

<https://w3id.org/cdisc/cosmos/dss/EG/PWDURSB/EGORRESU/relationship> a cosmos_sdtm:RelationShip ;
    cosmos_sdtm:linkingPhrase <https://www.cdisc.org/cosmos/sdtm_v1.0/LinkingPhraseEnum#is%20the%20unit%20for%20the%20value%20in> ;
    cosmos_sdtm:object "EGORRES" ;
    cosmos_sdtm:predicateTerm <https://www.cdisc.org/cosmos/sdtm_v1.0/PredicateTermEnum#IS_UNIT_FOR> ;
    cosmos_sdtm:subject "EGORRESU" .

<https://w3id.org/cdisc/cosmos/dss/EG/PWDURSB/EGPOS/relationship> a cosmos_sdtm:RelationShip ;
    cosmos_sdtm:linkingPhrase <https://www.cdisc.org/cosmos/sdtm_v1.0/LinkingPhraseEnum#was%20the%20subject%20position%20during%20performance%20of%20the%20test%20in> ;
    cosmos_sdtm:object "EGTESTCD" ;
    cosmos_sdtm:predicateTerm <https://www.cdisc.org/cosmos/sdtm_v1.0/PredicateTermEnum#IS_SUBJECT_STATE_FOR> ;
    cosmos_sdtm:subject "EGPOS" .

<https://w3id.org/cdisc/cosmos/dss/EG/PWDURSB/EGSTRESC/relationship> a cosmos_sdtm:RelationShip ;
    cosmos_sdtm:linkingPhrase <https://www.cdisc.org/cosmos/sdtm_v1.0/LinkingPhraseEnum#is%20the%20result%20of%20the%20test%20in> ;
    cosmos_sdtm:object "EGTESTCD" ;
    cosmos_sdtm:predicateTerm <https://www.cdisc.org/cosmos/sdtm_v1.0/PredicateTermEnum#IS_RESULT_OF> ;
    cosmos_sdtm:subject "EGSTRESC" .

<https://w3id.org/cdisc/cosmos/dss/EG/PWDURSB/EGSTRESN/relationship> a cosmos_sdtm:RelationShip ;
    cosmos_sdtm:linkingPhrase <https://www.cdisc.org/cosmos/sdtm_v1.0/LinkingPhraseEnum#is%20the%20result%20of%20the%20test%20in> ;
    cosmos_sdtm:object "EGTESTCD" ;
    cosmos_sdtm:predicateTerm <https://www.cdisc.org/cosmos/sdtm_v1.0/PredicateTermEnum#IS_RESULT_OF> ;
    cosmos_sdtm:subject "EGSTRESN" .

<https://w3id.org/cdisc/cosmos/dss/EG/PWDURSB/EGSTRESU/assignedTerm> a cosmos_sdtm:AssignedTerm ;
    cosmos_sdtm:conceptId NCIT:C41140 ;
    cosmos_sdtm:value "ms" .

<https://w3id.org/cdisc/cosmos/dss/EG/PWDURSB/EGSTRESU/relationship> a cosmos_sdtm:RelationShip ;
    cosmos_sdtm:linkingPhrase <https://www.cdisc.org/cosmos/sdtm_v1.0/LinkingPhraseEnum#is%20the%20unit%20for%20the%20value%20in> ;
    cosmos_sdtm:object "EGSTRESN" ;
    cosmos_sdtm:predicateTerm <https://www.cdisc.org/cosmos/sdtm_v1.0/PredicateTermEnum#IS_UNIT_FOR> ;
    cosmos_sdtm:subject "EGSTRESU" .

<https://w3id.org/cdisc/cosmos/dss/EG/PWDURSB/EGTEST/assignedTerm> a cosmos_sdtm:AssignedTerm ;
    cosmos_sdtm:conceptId NCIT:C117776 ;
    cosmos_sdtm:value "P Wave Duration, Single Beat" .

<https://w3id.org/cdisc/cosmos/dss/EG/PWDURSB/EGTEST/relationship> a cosmos_sdtm:RelationShip ;
    cosmos_sdtm:linkingPhrase <https://www.cdisc.org/cosmos/sdtm_v1.0/LinkingPhraseEnum#decodes%20the%20value%20in> ;
    cosmos_sdtm:object "EGTESTCD" ;
    cosmos_sdtm:predicateTerm <https://www.cdisc.org/cosmos/sdtm_v1.0/PredicateTermEnum#DECODES> ;
    cosmos_sdtm:subject "EGTEST" .

<https://w3id.org/cdisc/cosmos/dss/EG/PWDURSB/EGTESTCD/assignedTerm> a cosmos_sdtm:AssignedTerm ;
    cosmos_sdtm:conceptId NCIT:C117776 ;
    cosmos_sdtm:value "PWDURSB" .

<https://w3id.org/cdisc/cosmos/dss/EG/PWDURSB/EGTESTCD/relationship> a cosmos_sdtm:RelationShip ;
    cosmos_sdtm:linkingPhrase <https://www.cdisc.org/cosmos/sdtm_v1.0/LinkingPhraseEnum#is%20the%20code%20for%20the%20value%20in> ;
    cosmos_sdtm:object "EGTEST" ;
    cosmos_sdtm:predicateTerm <https://www.cdisc.org/cosmos/sdtm_v1.0/PredicateTermEnum#IS_DECODED_BY> ;
    cosmos_sdtm:subject "EGTESTCD" .

<https://w3id.org/cdisc/cosmos/dss/EG/QRSAG/EGCAT/assignedTerm> a cosmos_sdtm:AssignedTerm ;
    cosmos_sdtm:value "INTERVAL" .

<https://w3id.org/cdisc/cosmos/dss/EG/QRSAG/EGCAT/relationship> a cosmos_sdtm:RelationShip ;
    cosmos_sdtm:linkingPhrase <https://www.cdisc.org/cosmos/sdtm_v1.0/LinkingPhraseEnum#groups%20values%20in> ;
    cosmos_sdtm:object "EGTESTCD" ;
    cosmos_sdtm:predicateTerm <https://www.cdisc.org/cosmos/sdtm_v1.0/PredicateTermEnum#GROUPS> ;
    cosmos_sdtm:subject "EGCAT" .

<https://w3id.org/cdisc/cosmos/dss/EG/QRSAG/EGDTC/relationship> a cosmos_sdtm:RelationShip ;
    cosmos_sdtm:linkingPhrase <https://www.cdisc.org/cosmos/sdtm_v1.0/LinkingPhraseEnum#is%20the%20date%20of%20occurrence%20for> ;
    cosmos_sdtm:object "EGTESTCD" ;
    cosmos_sdtm:predicateTerm <https://www.cdisc.org/cosmos/sdtm_v1.0/PredicateTermEnum#IS_TIMING_FOR> ;
    cosmos_sdtm:subject "EGDTC" .

<https://w3id.org/cdisc/cosmos/dss/EG/QRSAG/EGENDTC/relationship> a cosmos_sdtm:RelationShip ;
    cosmos_sdtm:linkingPhrase <https://www.cdisc.org/cosmos/sdtm_v1.0/LinkingPhraseEnum#is%20the%20end%20date%20for> ;
    cosmos_sdtm:object "EGTESTCD" ;
    cosmos_sdtm:predicateTerm <https://www.cdisc.org/cosmos/sdtm_v1.0/PredicateTermEnum#IS_TIMING_FOR> ;
    cosmos_sdtm:subject "EGENDTC" .

<https://w3id.org/cdisc/cosmos/dss/EG/QRSAG/EGEVAL/relationship> a cosmos_sdtm:RelationShip ;
    cosmos_sdtm:linkingPhrase <https://www.cdisc.org/cosmos/sdtm_v1.0/LinkingPhraseEnum#is%20the%20role%20of%20the%20assessor%20who%20performed%20the%20test%20in> ;
    cosmos_sdtm:object "EGTESTCD" ;
    cosmos_sdtm:predicateTerm <https://www.cdisc.org/cosmos/sdtm_v1.0/PredicateTermEnum#PERFORMS> ;
    cosmos_sdtm:subject "EGEVAL" .

<https://w3id.org/cdisc/cosmos/dss/EG/QRSAG/EGMETHOD/relationship> a cosmos_sdtm:RelationShip ;
    cosmos_sdtm:linkingPhrase <https://www.cdisc.org/cosmos/sdtm_v1.0/LinkingPhraseEnum#is%20the%20method%20for%20the%20test%20in> ;
    cosmos_sdtm:object "EGTESTCD" ;
    cosmos_sdtm:predicateTerm <https://www.cdisc.org/cosmos/sdtm_v1.0/PredicateTermEnum#SPECIFIES> ;
    cosmos_sdtm:subject "EGMETHOD" .

<https://w3id.org/cdisc/cosmos/dss/EG/QRSAG/EGORRES/relationship> a cosmos_sdtm:RelationShip ;
    cosmos_sdtm:linkingPhrase <https://www.cdisc.org/cosmos/sdtm_v1.0/LinkingPhraseEnum#is%20the%20result%20of%20the%20test%20in> ;
    cosmos_sdtm:object "EGTESTCD" ;
    cosmos_sdtm:predicateTerm <https://www.cdisc.org/cosmos/sdtm_v1.0/PredicateTermEnum#IS_RESULT_OF> ;
    cosmos_sdtm:subject "EGORRES" .

<https://w3id.org/cdisc/cosmos/dss/EG/QRSAG/EGORRESU/relationship> a cosmos_sdtm:RelationShip ;
    cosmos_sdtm:linkingPhrase <https://www.cdisc.org/cosmos/sdtm_v1.0/LinkingPhraseEnum#is%20the%20unit%20for%20the%20value%20in> ;
    cosmos_sdtm:object "EGORRES" ;
    cosmos_sdtm:predicateTerm <https://www.cdisc.org/cosmos/sdtm_v1.0/PredicateTermEnum#IS_UNIT_FOR> ;
    cosmos_sdtm:subject "EGORRESU" .

<https://w3id.org/cdisc/cosmos/dss/EG/QRSAG/EGPOS/relationship> a cosmos_sdtm:RelationShip ;
    cosmos_sdtm:linkingPhrase <https://www.cdisc.org/cosmos/sdtm_v1.0/LinkingPhraseEnum#was%20the%20subject%20position%20during%20performance%20of%20the%20test%20in> ;
    cosmos_sdtm:object "EGTESTCD" ;
    cosmos_sdtm:predicateTerm <https://www.cdisc.org/cosmos/sdtm_v1.0/PredicateTermEnum#IS_SUBJECT_STATE_FOR> ;
    cosmos_sdtm:subject "EGPOS" .

<https://w3id.org/cdisc/cosmos/dss/EG/QRSAG/EGSTRESC/relationship> a cosmos_sdtm:RelationShip ;
    cosmos_sdtm:linkingPhrase <https://www.cdisc.org/cosmos/sdtm_v1.0/LinkingPhraseEnum#is%20the%20result%20of%20the%20test%20in> ;
    cosmos_sdtm:object "EGTESTCD" ;
    cosmos_sdtm:predicateTerm <https://www.cdisc.org/cosmos/sdtm_v1.0/PredicateTermEnum#IS_RESULT_OF> ;
    cosmos_sdtm:subject "EGSTRESC" .

<https://w3id.org/cdisc/cosmos/dss/EG/QRSAG/EGSTRESN/relationship> a cosmos_sdtm:RelationShip ;
    cosmos_sdtm:linkingPhrase <https://www.cdisc.org/cosmos/sdtm_v1.0/LinkingPhraseEnum#is%20the%20result%20of%20the%20test%20in> ;
    cosmos_sdtm:object "EGTESTCD" ;
    cosmos_sdtm:predicateTerm <https://www.cdisc.org/cosmos/sdtm_v1.0/PredicateTermEnum#IS_RESULT_OF> ;
    cosmos_sdtm:subject "EGSTRESN" .

<https://w3id.org/cdisc/cosmos/dss/EG/QRSAG/EGSTRESU/assignedTerm> a cosmos_sdtm:AssignedTerm ;
    cosmos_sdtm:conceptId NCIT:C41140 ;
    cosmos_sdtm:value "ms" .

<https://w3id.org/cdisc/cosmos/dss/EG/QRSAG/EGSTRESU/relationship> a cosmos_sdtm:RelationShip ;
    cosmos_sdtm:linkingPhrase <https://www.cdisc.org/cosmos/sdtm_v1.0/LinkingPhraseEnum#is%20the%20unit%20for%20the%20value%20in> ;
    cosmos_sdtm:object "EGSTRESN" ;
    cosmos_sdtm:predicateTerm <https://www.cdisc.org/cosmos/sdtm_v1.0/PredicateTermEnum#IS_UNIT_FOR> ;
    cosmos_sdtm:subject "EGSTRESU" .

<https://w3id.org/cdisc/cosmos/dss/EG/QRSAG/EGTEST/assignedTerm> a cosmos_sdtm:AssignedTerm ;
    cosmos_sdtm:conceptId NCIT:C117779 ;
    cosmos_sdtm:value "QRS Duration, Aggregate" .

<https://w3id.org/cdisc/cosmos/dss/EG/QRSAG/EGTEST/relationship> a cosmos_sdtm:RelationShip ;
    cosmos_sdtm:linkingPhrase <https://www.cdisc.org/cosmos/sdtm_v1.0/LinkingPhraseEnum#decodes%20the%20value%20in> ;
    cosmos_sdtm:object "EGTESTCD" ;
    cosmos_sdtm:predicateTerm <https://www.cdisc.org/cosmos/sdtm_v1.0/PredicateTermEnum#DECODES> ;
    cosmos_sdtm:subject "EGTEST" .

<https://w3id.org/cdisc/cosmos/dss/EG/QRSAG/EGTESTCD/assignedTerm> a cosmos_sdtm:AssignedTerm ;
    cosmos_sdtm:conceptId NCIT:C117779 ;
    cosmos_sdtm:value "QRSAG" .

<https://w3id.org/cdisc/cosmos/dss/EG/QRSAG/EGTESTCD/relationship> a cosmos_sdtm:RelationShip ;
    cosmos_sdtm:linkingPhrase <https://www.cdisc.org/cosmos/sdtm_v1.0/LinkingPhraseEnum#is%20the%20code%20for%20the%20value%20in> ;
    cosmos_sdtm:object "EGTEST" ;
    cosmos_sdtm:predicateTerm <https://www.cdisc.org/cosmos/sdtm_v1.0/PredicateTermEnum#IS_DECODED_BY> ;
    cosmos_sdtm:subject "EGTESTCD" .

<https://w3id.org/cdisc/cosmos/dss/EG/QRSSB/EGCAT/assignedTerm> a cosmos_sdtm:AssignedTerm ;
    cosmos_sdtm:value "INTERVAL" .

<https://w3id.org/cdisc/cosmos/dss/EG/QRSSB/EGCAT/relationship> a cosmos_sdtm:RelationShip ;
    cosmos_sdtm:linkingPhrase <https://www.cdisc.org/cosmos/sdtm_v1.0/LinkingPhraseEnum#groups%20values%20in> ;
    cosmos_sdtm:object "EGTESTCD" ;
    cosmos_sdtm:predicateTerm <https://www.cdisc.org/cosmos/sdtm_v1.0/PredicateTermEnum#GROUPS> ;
    cosmos_sdtm:subject "EGCAT" .

<https://w3id.org/cdisc/cosmos/dss/EG/QRSSB/EGDTC/relationship> a cosmos_sdtm:RelationShip ;
    cosmos_sdtm:linkingPhrase <https://www.cdisc.org/cosmos/sdtm_v1.0/LinkingPhraseEnum#is%20the%20date%20of%20occurrence%20for> ;
    cosmos_sdtm:object "EGTESTCD" ;
    cosmos_sdtm:predicateTerm <https://www.cdisc.org/cosmos/sdtm_v1.0/PredicateTermEnum#IS_TIMING_FOR> ;
    cosmos_sdtm:subject "EGDTC" .

<https://w3id.org/cdisc/cosmos/dss/EG/QRSSB/EGENDTC/relationship> a cosmos_sdtm:RelationShip ;
    cosmos_sdtm:linkingPhrase <https://www.cdisc.org/cosmos/sdtm_v1.0/LinkingPhraseEnum#is%20the%20end%20date%20for> ;
    cosmos_sdtm:object "EGTESTCD" ;
    cosmos_sdtm:predicateTerm <https://www.cdisc.org/cosmos/sdtm_v1.0/PredicateTermEnum#IS_TIMING_FOR> ;
    cosmos_sdtm:subject "EGENDTC" .

<https://w3id.org/cdisc/cosmos/dss/EG/QRSSB/EGEVAL/relationship> a cosmos_sdtm:RelationShip ;
    cosmos_sdtm:linkingPhrase <https://www.cdisc.org/cosmos/sdtm_v1.0/LinkingPhraseEnum#is%20the%20role%20of%20the%20assessor%20who%20performed%20the%20test%20in> ;
    cosmos_sdtm:object "EGTESTCD" ;
    cosmos_sdtm:predicateTerm <https://www.cdisc.org/cosmos/sdtm_v1.0/PredicateTermEnum#PERFORMS> ;
    cosmos_sdtm:subject "EGEVAL" .

<https://w3id.org/cdisc/cosmos/dss/EG/QRSSB/EGMETHOD/relationship> a cosmos_sdtm:RelationShip ;
    cosmos_sdtm:linkingPhrase <https://www.cdisc.org/cosmos/sdtm_v1.0/LinkingPhraseEnum#is%20the%20method%20for%20the%20test%20in> ;
    cosmos_sdtm:object "EGTESTCD" ;
    cosmos_sdtm:predicateTerm <https://www.cdisc.org/cosmos/sdtm_v1.0/PredicateTermEnum#SPECIFIES> ;
    cosmos_sdtm:subject "EGMETHOD" .

<https://w3id.org/cdisc/cosmos/dss/EG/QRSSB/EGORRES/relationship> a cosmos_sdtm:RelationShip ;
    cosmos_sdtm:linkingPhrase <https://www.cdisc.org/cosmos/sdtm_v1.0/LinkingPhraseEnum#is%20the%20result%20of%20the%20test%20in> ;
    cosmos_sdtm:object "EGTESTCD" ;
    cosmos_sdtm:predicateTerm <https://www.cdisc.org/cosmos/sdtm_v1.0/PredicateTermEnum#IS_RESULT_OF> ;
    cosmos_sdtm:subject "EGORRES" .

<https://w3id.org/cdisc/cosmos/dss/EG/QRSSB/EGORRESU/relationship> a cosmos_sdtm:RelationShip ;
    cosmos_sdtm:linkingPhrase <https://www.cdisc.org/cosmos/sdtm_v1.0/LinkingPhraseEnum#is%20the%20unit%20for%20the%20value%20in> ;
    cosmos_sdtm:object "EGORRES" ;
    cosmos_sdtm:predicateTerm <https://www.cdisc.org/cosmos/sdtm_v1.0/PredicateTermEnum#IS_UNIT_FOR> ;
    cosmos_sdtm:subject "EGORRESU" .

<https://w3id.org/cdisc/cosmos/dss/EG/QRSSB/EGPOS/relationship> a cosmos_sdtm:RelationShip ;
    cosmos_sdtm:linkingPhrase <https://www.cdisc.org/cosmos/sdtm_v1.0/LinkingPhraseEnum#was%20the%20subject%20position%20during%20performance%20of%20the%20test%20in> ;
    cosmos_sdtm:object "EGTESTCD" ;
    cosmos_sdtm:predicateTerm <https://www.cdisc.org/cosmos/sdtm_v1.0/PredicateTermEnum#IS_SUBJECT_STATE_FOR> ;
    cosmos_sdtm:subject "EGPOS" .

<https://w3id.org/cdisc/cosmos/dss/EG/QRSSB/EGSTRESC/relationship> a cosmos_sdtm:RelationShip ;
    cosmos_sdtm:linkingPhrase <https://www.cdisc.org/cosmos/sdtm_v1.0/LinkingPhraseEnum#is%20the%20result%20of%20the%20test%20in> ;
    cosmos_sdtm:object "EGTESTCD" ;
    cosmos_sdtm:predicateTerm <https://www.cdisc.org/cosmos/sdtm_v1.0/PredicateTermEnum#IS_RESULT_OF> ;
    cosmos_sdtm:subject "EGSTRESC" .

<https://w3id.org/cdisc/cosmos/dss/EG/QRSSB/EGSTRESN/relationship> a cosmos_sdtm:RelationShip ;
    cosmos_sdtm:linkingPhrase <https://www.cdisc.org/cosmos/sdtm_v1.0/LinkingPhraseEnum#is%20the%20result%20of%20the%20test%20in> ;
    cosmos_sdtm:object "EGTESTCD" ;
    cosmos_sdtm:predicateTerm <https://www.cdisc.org/cosmos/sdtm_v1.0/PredicateTermEnum#IS_RESULT_OF> ;
    cosmos_sdtm:subject "EGSTRESN" .

<https://w3id.org/cdisc/cosmos/dss/EG/QRSSB/EGSTRESU/assignedTerm> a cosmos_sdtm:AssignedTerm ;
    cosmos_sdtm:conceptId NCIT:C41140 ;
    cosmos_sdtm:value "ms" .

<https://w3id.org/cdisc/cosmos/dss/EG/QRSSB/EGSTRESU/relationship> a cosmos_sdtm:RelationShip ;
    cosmos_sdtm:linkingPhrase <https://www.cdisc.org/cosmos/sdtm_v1.0/LinkingPhraseEnum#is%20the%20unit%20for%20the%20value%20in> ;
    cosmos_sdtm:object "EGSTRESN" ;
    cosmos_sdtm:predicateTerm <https://www.cdisc.org/cosmos/sdtm_v1.0/PredicateTermEnum#IS_UNIT_FOR> ;
    cosmos_sdtm:subject "EGSTRESU" .

<https://w3id.org/cdisc/cosmos/dss/EG/QRSSB/EGTEST/assignedTerm> a cosmos_sdtm:AssignedTerm ;
    cosmos_sdtm:conceptId NCIT:C117780 ;
    cosmos_sdtm:value "QRS Duration, Single Beat" .

<https://w3id.org/cdisc/cosmos/dss/EG/QRSSB/EGTEST/relationship> a cosmos_sdtm:RelationShip ;
    cosmos_sdtm:linkingPhrase <https://www.cdisc.org/cosmos/sdtm_v1.0/LinkingPhraseEnum#decodes%20the%20value%20in> ;
    cosmos_sdtm:object "EGTESTCD" ;
    cosmos_sdtm:predicateTerm <https://www.cdisc.org/cosmos/sdtm_v1.0/PredicateTermEnum#DECODES> ;
    cosmos_sdtm:subject "EGTEST" .

<https://w3id.org/cdisc/cosmos/dss/EG/QRSSB/EGTESTCD/assignedTerm> a cosmos_sdtm:AssignedTerm ;
    cosmos_sdtm:conceptId NCIT:C117780 ;
    cosmos_sdtm:value "QRSSB" .

<https://w3id.org/cdisc/cosmos/dss/EG/QRSSB/EGTESTCD/relationship> a cosmos_sdtm:RelationShip ;
    cosmos_sdtm:linkingPhrase <https://www.cdisc.org/cosmos/sdtm_v1.0/LinkingPhraseEnum#is%20the%20code%20for%20the%20value%20in> ;
    cosmos_sdtm:object "EGTEST" ;
    cosmos_sdtm:predicateTerm <https://www.cdisc.org/cosmos/sdtm_v1.0/PredicateTermEnum#IS_DECODED_BY> ;
    cosmos_sdtm:subject "EGTESTCD" .

<https://w3id.org/cdisc/cosmos/dss/EG/QRS_AXIS/EGCAT/assignedTerm> a cosmos_sdtm:AssignedTerm ;
    cosmos_sdtm:value "MEASUREMENT" .

<https://w3id.org/cdisc/cosmos/dss/EG/QRS_AXIS/EGCAT/relationship> a cosmos_sdtm:RelationShip ;
    cosmos_sdtm:linkingPhrase <https://www.cdisc.org/cosmos/sdtm_v1.0/LinkingPhraseEnum#groups%20values%20in> ;
    cosmos_sdtm:object "EGTESTCD" ;
    cosmos_sdtm:predicateTerm <https://www.cdisc.org/cosmos/sdtm_v1.0/PredicateTermEnum#GROUPS> ;
    cosmos_sdtm:subject "EGCAT" .

<https://w3id.org/cdisc/cosmos/dss/EG/QRS_AXIS/EGDTC/relationship> a cosmos_sdtm:RelationShip ;
    cosmos_sdtm:linkingPhrase <https://www.cdisc.org/cosmos/sdtm_v1.0/LinkingPhraseEnum#is%20the%20date%20of%20occurrence%20for> ;
    cosmos_sdtm:object "EGTESTCD" ;
    cosmos_sdtm:predicateTerm <https://www.cdisc.org/cosmos/sdtm_v1.0/PredicateTermEnum#IS_TIMING_FOR> ;
    cosmos_sdtm:subject "EGDTC" .

<https://w3id.org/cdisc/cosmos/dss/EG/QRS_AXIS/EGEVAL/relationship> a cosmos_sdtm:RelationShip ;
    cosmos_sdtm:linkingPhrase <https://www.cdisc.org/cosmos/sdtm_v1.0/LinkingPhraseEnum#is%20the%20role%20of%20the%20assessor%20who%20performed%20the%20test%20in> ;
    cosmos_sdtm:object "EGTESTCD" ;
    cosmos_sdtm:predicateTerm <https://www.cdisc.org/cosmos/sdtm_v1.0/PredicateTermEnum#PERFORMS> ;
    cosmos_sdtm:subject "EGEVAL" .

<https://w3id.org/cdisc/cosmos/dss/EG/QRS_AXIS/EGMETHOD/relationship> a cosmos_sdtm:RelationShip ;
    cosmos_sdtm:linkingPhrase <https://www.cdisc.org/cosmos/sdtm_v1.0/LinkingPhraseEnum#is%20the%20method%20for%20the%20test%20in> ;
    cosmos_sdtm:object "EGTESTCD" ;
    cosmos_sdtm:predicateTerm <https://www.cdisc.org/cosmos/sdtm_v1.0/PredicateTermEnum#SPECIFIES> ;
    cosmos_sdtm:subject "EGMETHOD" .

<https://w3id.org/cdisc/cosmos/dss/EG/QRS_AXIS/EGORRES/relationship> a cosmos_sdtm:RelationShip ;
    cosmos_sdtm:linkingPhrase <https://www.cdisc.org/cosmos/sdtm_v1.0/LinkingPhraseEnum#is%20the%20result%20of%20the%20test%20in> ;
    cosmos_sdtm:object "EGTESTCD" ;
    cosmos_sdtm:predicateTerm <https://www.cdisc.org/cosmos/sdtm_v1.0/PredicateTermEnum#IS_RESULT_OF> ;
    cosmos_sdtm:subject "EGORRES" .

<https://w3id.org/cdisc/cosmos/dss/EG/QRS_AXIS/EGORRESU/assignedTerm> a cosmos_sdtm:AssignedTerm ;
    cosmos_sdtm:conceptId NCIT:C68667 ;
    cosmos_sdtm:value "deg" .

<https://w3id.org/cdisc/cosmos/dss/EG/QRS_AXIS/EGORRESU/relationship> a cosmos_sdtm:RelationShip ;
    cosmos_sdtm:linkingPhrase <https://www.cdisc.org/cosmos/sdtm_v1.0/LinkingPhraseEnum#is%20the%20unit%20for%20the%20value%20in> ;
    cosmos_sdtm:object "EGORRES" ;
    cosmos_sdtm:predicateTerm <https://www.cdisc.org/cosmos/sdtm_v1.0/PredicateTermEnum#IS_UNIT_FOR> ;
    cosmos_sdtm:subject "EGORRESU" .

<https://w3id.org/cdisc/cosmos/dss/EG/QRS_AXIS/EGPOS/relationship> a cosmos_sdtm:RelationShip ;
    cosmos_sdtm:linkingPhrase <https://www.cdisc.org/cosmos/sdtm_v1.0/LinkingPhraseEnum#was%20the%20subject%20position%20during%20performance%20of%20the%20test%20in> ;
    cosmos_sdtm:object "EGTESTCD" ;
    cosmos_sdtm:predicateTerm <https://www.cdisc.org/cosmos/sdtm_v1.0/PredicateTermEnum#IS_SUBJECT_STATE_FOR> ;
    cosmos_sdtm:subject "EGPOS" .

<https://w3id.org/cdisc/cosmos/dss/EG/QRS_AXIS/EGSTRESC/relationship> a cosmos_sdtm:RelationShip ;
    cosmos_sdtm:linkingPhrase <https://www.cdisc.org/cosmos/sdtm_v1.0/LinkingPhraseEnum#is%20the%20result%20of%20the%20test%20in> ;
    cosmos_sdtm:object "EGTESTCD" ;
    cosmos_sdtm:predicateTerm <https://www.cdisc.org/cosmos/sdtm_v1.0/PredicateTermEnum#IS_RESULT_OF> ;
    cosmos_sdtm:subject "EGSTRESC" .

<https://w3id.org/cdisc/cosmos/dss/EG/QRS_AXIS/EGSTRESN/relationship> a cosmos_sdtm:RelationShip ;
    cosmos_sdtm:linkingPhrase <https://www.cdisc.org/cosmos/sdtm_v1.0/LinkingPhraseEnum#is%20the%20result%20of%20the%20test%20in> ;
    cosmos_sdtm:object "EGTESTCD" ;
    cosmos_sdtm:predicateTerm <https://www.cdisc.org/cosmos/sdtm_v1.0/PredicateTermEnum#IS_RESULT_OF> ;
    cosmos_sdtm:subject "EGSTRESN" .

<https://w3id.org/cdisc/cosmos/dss/EG/QRS_AXIS/EGSTRESU/assignedTerm> a cosmos_sdtm:AssignedTerm ;
    cosmos_sdtm:conceptId NCIT:C68667 ;
    cosmos_sdtm:value "deg" .

<https://w3id.org/cdisc/cosmos/dss/EG/QRS_AXIS/EGSTRESU/relationship> a cosmos_sdtm:RelationShip ;
    cosmos_sdtm:linkingPhrase <https://www.cdisc.org/cosmos/sdtm_v1.0/LinkingPhraseEnum#is%20the%20unit%20for%20the%20value%20in> ;
    cosmos_sdtm:object "EGSTRESN" ;
    cosmos_sdtm:predicateTerm <https://www.cdisc.org/cosmos/sdtm_v1.0/PredicateTermEnum#IS_UNIT_FOR> ;
    cosmos_sdtm:subject "EGSTRESU" .

<https://w3id.org/cdisc/cosmos/dss/EG/QRS_AXIS/EGTEST/assignedTerm> a cosmos_sdtm:AssignedTerm ;
    cosmos_sdtm:conceptId NCIT:C118165 ;
    cosmos_sdtm:value "QRS Axis" .

<https://w3id.org/cdisc/cosmos/dss/EG/QRS_AXIS/EGTEST/relationship> a cosmos_sdtm:RelationShip ;
    cosmos_sdtm:linkingPhrase <https://www.cdisc.org/cosmos/sdtm_v1.0/LinkingPhraseEnum#decodes%20the%20value%20in> ;
    cosmos_sdtm:object "EGTESTCD" ;
    cosmos_sdtm:predicateTerm <https://www.cdisc.org/cosmos/sdtm_v1.0/PredicateTermEnum#DECODES> ;
    cosmos_sdtm:subject "EGTEST" .

<https://w3id.org/cdisc/cosmos/dss/EG/QRS_AXIS/EGTESTCD/assignedTerm> a cosmos_sdtm:AssignedTerm ;
    cosmos_sdtm:conceptId NCIT:C118165 ;
    cosmos_sdtm:value "QRS_AXIS" .

<https://w3id.org/cdisc/cosmos/dss/EG/QRS_AXIS/EGTESTCD/relationship> a cosmos_sdtm:RelationShip ;
    cosmos_sdtm:linkingPhrase <https://www.cdisc.org/cosmos/sdtm_v1.0/LinkingPhraseEnum#is%20the%20code%20for%20the%20value%20in> ;
    cosmos_sdtm:object "EGTEST" ;
    cosmos_sdtm:predicateTerm <https://www.cdisc.org/cosmos/sdtm_v1.0/PredicateTermEnum#IS_DECODED_BY> ;
    cosmos_sdtm:subject "EGTESTCD" .

<https://w3id.org/cdisc/cosmos/dss/EG/QTAG/EGCAT/assignedTerm> a cosmos_sdtm:AssignedTerm ;
    cosmos_sdtm:value "INTERVAL" .

<https://w3id.org/cdisc/cosmos/dss/EG/QTAG/EGCAT/relationship> a cosmos_sdtm:RelationShip ;
    cosmos_sdtm:linkingPhrase <https://www.cdisc.org/cosmos/sdtm_v1.0/LinkingPhraseEnum#groups%20values%20in> ;
    cosmos_sdtm:object "EGTESTCD" ;
    cosmos_sdtm:predicateTerm <https://www.cdisc.org/cosmos/sdtm_v1.0/PredicateTermEnum#GROUPS> ;
    cosmos_sdtm:subject "EGCAT" .

<https://w3id.org/cdisc/cosmos/dss/EG/QTAG/EGDTC/relationship> a cosmos_sdtm:RelationShip ;
    cosmos_sdtm:linkingPhrase <https://www.cdisc.org/cosmos/sdtm_v1.0/LinkingPhraseEnum#is%20the%20date%20of%20occurrence%20for> ;
    cosmos_sdtm:object "EGTESTCD" ;
    cosmos_sdtm:predicateTerm <https://www.cdisc.org/cosmos/sdtm_v1.0/PredicateTermEnum#IS_TIMING_FOR> ;
    cosmos_sdtm:subject "EGDTC" .

<https://w3id.org/cdisc/cosmos/dss/EG/QTAG/EGENDTC/relationship> a cosmos_sdtm:RelationShip ;
    cosmos_sdtm:linkingPhrase <https://www.cdisc.org/cosmos/sdtm_v1.0/LinkingPhraseEnum#is%20the%20end%20date%20for> ;
    cosmos_sdtm:object "EGTESTCD" ;
    cosmos_sdtm:predicateTerm <https://www.cdisc.org/cosmos/sdtm_v1.0/PredicateTermEnum#IS_TIMING_FOR> ;
    cosmos_sdtm:subject "EGENDTC" .

<https://w3id.org/cdisc/cosmos/dss/EG/QTAG/EGEVAL/relationship> a cosmos_sdtm:RelationShip ;
    cosmos_sdtm:linkingPhrase <https://www.cdisc.org/cosmos/sdtm_v1.0/LinkingPhraseEnum#is%20the%20role%20of%20the%20assessor%20who%20performed%20the%20test%20in> ;
    cosmos_sdtm:object "EGTESTCD" ;
    cosmos_sdtm:predicateTerm <https://www.cdisc.org/cosmos/sdtm_v1.0/PredicateTermEnum#PERFORMS> ;
    cosmos_sdtm:subject "EGEVAL" .

<https://w3id.org/cdisc/cosmos/dss/EG/QTAG/EGMETHOD/relationship> a cosmos_sdtm:RelationShip ;
    cosmos_sdtm:linkingPhrase <https://www.cdisc.org/cosmos/sdtm_v1.0/LinkingPhraseEnum#is%20the%20method%20for%20the%20test%20in> ;
    cosmos_sdtm:object "EGTESTCD" ;
    cosmos_sdtm:predicateTerm <https://www.cdisc.org/cosmos/sdtm_v1.0/PredicateTermEnum#SPECIFIES> ;
    cosmos_sdtm:subject "EGMETHOD" .

<https://w3id.org/cdisc/cosmos/dss/EG/QTAG/EGORRES/relationship> a cosmos_sdtm:RelationShip ;
    cosmos_sdtm:linkingPhrase <https://www.cdisc.org/cosmos/sdtm_v1.0/LinkingPhraseEnum#is%20the%20result%20of%20the%20test%20in> ;
    cosmos_sdtm:object "EGTESTCD" ;
    cosmos_sdtm:predicateTerm <https://www.cdisc.org/cosmos/sdtm_v1.0/PredicateTermEnum#IS_RESULT_OF> ;
    cosmos_sdtm:subject "EGORRES" .

<https://w3id.org/cdisc/cosmos/dss/EG/QTAG/EGORRESU/relationship> a cosmos_sdtm:RelationShip ;
    cosmos_sdtm:linkingPhrase <https://www.cdisc.org/cosmos/sdtm_v1.0/LinkingPhraseEnum#is%20the%20unit%20for%20the%20value%20in> ;
    cosmos_sdtm:object "EGORRES" ;
    cosmos_sdtm:predicateTerm <https://www.cdisc.org/cosmos/sdtm_v1.0/PredicateTermEnum#IS_UNIT_FOR> ;
    cosmos_sdtm:subject "EGORRESU" .

<https://w3id.org/cdisc/cosmos/dss/EG/QTAG/EGPOS/relationship> a cosmos_sdtm:RelationShip ;
    cosmos_sdtm:linkingPhrase <https://www.cdisc.org/cosmos/sdtm_v1.0/LinkingPhraseEnum#was%20the%20subject%20position%20during%20performance%20of%20the%20test%20in> ;
    cosmos_sdtm:object "EGTESTCD" ;
    cosmos_sdtm:predicateTerm <https://www.cdisc.org/cosmos/sdtm_v1.0/PredicateTermEnum#IS_SUBJECT_STATE_FOR> ;
    cosmos_sdtm:subject "EGPOS" .

<https://w3id.org/cdisc/cosmos/dss/EG/QTAG/EGSTRESC/relationship> a cosmos_sdtm:RelationShip ;
    cosmos_sdtm:linkingPhrase <https://www.cdisc.org/cosmos/sdtm_v1.0/LinkingPhraseEnum#is%20the%20result%20of%20the%20test%20in> ;
    cosmos_sdtm:object "EGTESTCD" ;
    cosmos_sdtm:predicateTerm <https://www.cdisc.org/cosmos/sdtm_v1.0/PredicateTermEnum#IS_RESULT_OF> ;
    cosmos_sdtm:subject "EGSTRESC" .

<https://w3id.org/cdisc/cosmos/dss/EG/QTAG/EGSTRESN/relationship> a cosmos_sdtm:RelationShip ;
    cosmos_sdtm:linkingPhrase <https://www.cdisc.org/cosmos/sdtm_v1.0/LinkingPhraseEnum#is%20the%20result%20of%20the%20test%20in> ;
    cosmos_sdtm:object "EGTESTCD" ;
    cosmos_sdtm:predicateTerm <https://www.cdisc.org/cosmos/sdtm_v1.0/PredicateTermEnum#IS_RESULT_OF> ;
    cosmos_sdtm:subject "EGSTRESN" .

<https://w3id.org/cdisc/cosmos/dss/EG/QTAG/EGSTRESU/assignedTerm> a cosmos_sdtm:AssignedTerm ;
    cosmos_sdtm:conceptId NCIT:C41140 ;
    cosmos_sdtm:value "ms" .

<https://w3id.org/cdisc/cosmos/dss/EG/QTAG/EGSTRESU/relationship> a cosmos_sdtm:RelationShip ;
    cosmos_sdtm:linkingPhrase <https://www.cdisc.org/cosmos/sdtm_v1.0/LinkingPhraseEnum#is%20the%20unit%20for%20the%20value%20in> ;
    cosmos_sdtm:object "EGSTRESN" ;
    cosmos_sdtm:predicateTerm <https://www.cdisc.org/cosmos/sdtm_v1.0/PredicateTermEnum#IS_UNIT_FOR> ;
    cosmos_sdtm:subject "EGSTRESU" .

<https://w3id.org/cdisc/cosmos/dss/EG/QTAG/EGTEST/assignedTerm> a cosmos_sdtm:AssignedTerm ;
    cosmos_sdtm:conceptId NCIT:C117783 ;
    cosmos_sdtm:value "QT Interval, Aggregate" .

<https://w3id.org/cdisc/cosmos/dss/EG/QTAG/EGTEST/relationship> a cosmos_sdtm:RelationShip ;
    cosmos_sdtm:linkingPhrase <https://www.cdisc.org/cosmos/sdtm_v1.0/LinkingPhraseEnum#decodes%20the%20value%20in> ;
    cosmos_sdtm:object "EGTESTCD" ;
    cosmos_sdtm:predicateTerm <https://www.cdisc.org/cosmos/sdtm_v1.0/PredicateTermEnum#DECODES> ;
    cosmos_sdtm:subject "EGTEST" .

<https://w3id.org/cdisc/cosmos/dss/EG/QTAG/EGTESTCD/assignedTerm> a cosmos_sdtm:AssignedTerm ;
    cosmos_sdtm:conceptId NCIT:C117783 ;
    cosmos_sdtm:value "QTAG" .

<https://w3id.org/cdisc/cosmos/dss/EG/QTAG/EGTESTCD/relationship> a cosmos_sdtm:RelationShip ;
    cosmos_sdtm:linkingPhrase <https://www.cdisc.org/cosmos/sdtm_v1.0/LinkingPhraseEnum#is%20the%20code%20for%20the%20value%20in> ;
    cosmos_sdtm:object "EGTEST" ;
    cosmos_sdtm:predicateTerm <https://www.cdisc.org/cosmos/sdtm_v1.0/PredicateTermEnum#IS_DECODED_BY> ;
    cosmos_sdtm:subject "EGTESTCD" .

<https://w3id.org/cdisc/cosmos/dss/EG/QTCBAG/EGCAT/assignedTerm> a cosmos_sdtm:AssignedTerm ;
    cosmos_sdtm:value "INTERVAL" .

<https://w3id.org/cdisc/cosmos/dss/EG/QTCBAG/EGCAT/relationship> a cosmos_sdtm:RelationShip ;
    cosmos_sdtm:linkingPhrase <https://www.cdisc.org/cosmos/sdtm_v1.0/LinkingPhraseEnum#groups%20values%20in> ;
    cosmos_sdtm:object "EGTESTCD" ;
    cosmos_sdtm:predicateTerm <https://www.cdisc.org/cosmos/sdtm_v1.0/PredicateTermEnum#GROUPS> ;
    cosmos_sdtm:subject "EGCAT" .

<https://w3id.org/cdisc/cosmos/dss/EG/QTCBAG/EGDTC/relationship> a cosmos_sdtm:RelationShip ;
    cosmos_sdtm:linkingPhrase <https://www.cdisc.org/cosmos/sdtm_v1.0/LinkingPhraseEnum#is%20the%20date%20of%20occurrence%20for> ;
    cosmos_sdtm:object "EGTESTCD" ;
    cosmos_sdtm:predicateTerm <https://www.cdisc.org/cosmos/sdtm_v1.0/PredicateTermEnum#IS_TIMING_FOR> ;
    cosmos_sdtm:subject "EGDTC" .

<https://w3id.org/cdisc/cosmos/dss/EG/QTCBAG/EGENDTC/relationship> a cosmos_sdtm:RelationShip ;
    cosmos_sdtm:linkingPhrase <https://www.cdisc.org/cosmos/sdtm_v1.0/LinkingPhraseEnum#is%20the%20end%20date%20for> ;
    cosmos_sdtm:object "EGTESTCD" ;
    cosmos_sdtm:predicateTerm <https://www.cdisc.org/cosmos/sdtm_v1.0/PredicateTermEnum#IS_TIMING_FOR> ;
    cosmos_sdtm:subject "EGENDTC" .

<https://w3id.org/cdisc/cosmos/dss/EG/QTCBAG/EGEVAL/relationship> a cosmos_sdtm:RelationShip ;
    cosmos_sdtm:linkingPhrase <https://www.cdisc.org/cosmos/sdtm_v1.0/LinkingPhraseEnum#is%20the%20role%20of%20the%20assessor%20who%20performed%20the%20test%20in> ;
    cosmos_sdtm:object "EGTESTCD" ;
    cosmos_sdtm:predicateTerm <https://www.cdisc.org/cosmos/sdtm_v1.0/PredicateTermEnum#PERFORMS> ;
    cosmos_sdtm:subject "EGEVAL" .

<https://w3id.org/cdisc/cosmos/dss/EG/QTCBAG/EGMETHOD/relationship> a cosmos_sdtm:RelationShip ;
    cosmos_sdtm:linkingPhrase <https://www.cdisc.org/cosmos/sdtm_v1.0/LinkingPhraseEnum#is%20the%20method%20for%20the%20test%20in> ;
    cosmos_sdtm:object "EGTESTCD" ;
    cosmos_sdtm:predicateTerm <https://www.cdisc.org/cosmos/sdtm_v1.0/PredicateTermEnum#SPECIFIES> ;
    cosmos_sdtm:subject "EGMETHOD" .

<https://w3id.org/cdisc/cosmos/dss/EG/QTCBAG/EGORRES/relationship> a cosmos_sdtm:RelationShip ;
    cosmos_sdtm:linkingPhrase <https://www.cdisc.org/cosmos/sdtm_v1.0/LinkingPhraseEnum#is%20the%20result%20of%20the%20test%20in> ;
    cosmos_sdtm:object "EGTESTCD" ;
    cosmos_sdtm:predicateTerm <https://www.cdisc.org/cosmos/sdtm_v1.0/PredicateTermEnum#IS_RESULT_OF> ;
    cosmos_sdtm:subject "EGORRES" .

<https://w3id.org/cdisc/cosmos/dss/EG/QTCBAG/EGORRESU/relationship> a cosmos_sdtm:RelationShip ;
    cosmos_sdtm:linkingPhrase <https://www.cdisc.org/cosmos/sdtm_v1.0/LinkingPhraseEnum#is%20the%20unit%20for%20the%20value%20in> ;
    cosmos_sdtm:object "EGORRES" ;
    cosmos_sdtm:predicateTerm <https://www.cdisc.org/cosmos/sdtm_v1.0/PredicateTermEnum#IS_UNIT_FOR> ;
    cosmos_sdtm:subject "EGORRESU" .

<https://w3id.org/cdisc/cosmos/dss/EG/QTCBAG/EGPOS/relationship> a cosmos_sdtm:RelationShip ;
    cosmos_sdtm:linkingPhrase <https://www.cdisc.org/cosmos/sdtm_v1.0/LinkingPhraseEnum#was%20the%20subject%20position%20during%20performance%20of%20the%20test%20in> ;
    cosmos_sdtm:object "EGTESTCD" ;
    cosmos_sdtm:predicateTerm <https://www.cdisc.org/cosmos/sdtm_v1.0/PredicateTermEnum#IS_SUBJECT_STATE_FOR> ;
    cosmos_sdtm:subject "EGPOS" .

<https://w3id.org/cdisc/cosmos/dss/EG/QTCBAG/EGSTRESC/relationship> a cosmos_sdtm:RelationShip ;
    cosmos_sdtm:linkingPhrase <https://www.cdisc.org/cosmos/sdtm_v1.0/LinkingPhraseEnum#is%20the%20result%20of%20the%20test%20in> ;
    cosmos_sdtm:object "EGTESTCD" ;
    cosmos_sdtm:predicateTerm <https://www.cdisc.org/cosmos/sdtm_v1.0/PredicateTermEnum#IS_RESULT_OF> ;
    cosmos_sdtm:subject "EGSTRESC" .

<https://w3id.org/cdisc/cosmos/dss/EG/QTCBAG/EGSTRESN/relationship> a cosmos_sdtm:RelationShip ;
    cosmos_sdtm:linkingPhrase <https://www.cdisc.org/cosmos/sdtm_v1.0/LinkingPhraseEnum#is%20the%20result%20of%20the%20test%20in> ;
    cosmos_sdtm:object "EGTESTCD" ;
    cosmos_sdtm:predicateTerm <https://www.cdisc.org/cosmos/sdtm_v1.0/PredicateTermEnum#IS_RESULT_OF> ;
    cosmos_sdtm:subject "EGSTRESN" .

<https://w3id.org/cdisc/cosmos/dss/EG/QTCBAG/EGSTRESU/assignedTerm> a cosmos_sdtm:AssignedTerm ;
    cosmos_sdtm:conceptId NCIT:C41140 ;
    cosmos_sdtm:value "ms" .

<https://w3id.org/cdisc/cosmos/dss/EG/QTCBAG/EGSTRESU/relationship> a cosmos_sdtm:RelationShip ;
    cosmos_sdtm:linkingPhrase <https://www.cdisc.org/cosmos/sdtm_v1.0/LinkingPhraseEnum#is%20the%20unit%20for%20the%20value%20in> ;
    cosmos_sdtm:object "EGSTRESN" ;
    cosmos_sdtm:predicateTerm <https://www.cdisc.org/cosmos/sdtm_v1.0/PredicateTermEnum#IS_UNIT_FOR> ;
    cosmos_sdtm:subject "EGSTRESU" .

<https://w3id.org/cdisc/cosmos/dss/EG/QTCBAG/EGTEST/assignedTerm> a cosmos_sdtm:AssignedTerm ;
    cosmos_sdtm:conceptId NCIT:C117784 ;
    cosmos_sdtm:value "QTcB Interval, Aggregate" .

<https://w3id.org/cdisc/cosmos/dss/EG/QTCBAG/EGTEST/relationship> a cosmos_sdtm:RelationShip ;
    cosmos_sdtm:linkingPhrase <https://www.cdisc.org/cosmos/sdtm_v1.0/LinkingPhraseEnum#decodes%20the%20value%20in> ;
    cosmos_sdtm:object "EGTESTCD" ;
    cosmos_sdtm:predicateTerm <https://www.cdisc.org/cosmos/sdtm_v1.0/PredicateTermEnum#DECODES> ;
    cosmos_sdtm:subject "EGTEST" .

<https://w3id.org/cdisc/cosmos/dss/EG/QTCBAG/EGTESTCD/assignedTerm> a cosmos_sdtm:AssignedTerm ;
    cosmos_sdtm:conceptId NCIT:C117784 ;
    cosmos_sdtm:value "QTCBAG" .

<https://w3id.org/cdisc/cosmos/dss/EG/QTCBAG/EGTESTCD/relationship> a cosmos_sdtm:RelationShip ;
    cosmos_sdtm:linkingPhrase <https://www.cdisc.org/cosmos/sdtm_v1.0/LinkingPhraseEnum#is%20the%20code%20for%20the%20value%20in> ;
    cosmos_sdtm:object "EGTEST" ;
    cosmos_sdtm:predicateTerm <https://www.cdisc.org/cosmos/sdtm_v1.0/PredicateTermEnum#IS_DECODED_BY> ;
    cosmos_sdtm:subject "EGTESTCD" .

<https://w3id.org/cdisc/cosmos/dss/EG/QTCBSB/EGCAT/assignedTerm> a cosmos_sdtm:AssignedTerm ;
    cosmos_sdtm:value "INTERVAL" .

<https://w3id.org/cdisc/cosmos/dss/EG/QTCBSB/EGCAT/relationship> a cosmos_sdtm:RelationShip ;
    cosmos_sdtm:linkingPhrase <https://www.cdisc.org/cosmos/sdtm_v1.0/LinkingPhraseEnum#groups%20values%20in> ;
    cosmos_sdtm:object "EGTESTCD" ;
    cosmos_sdtm:predicateTerm <https://www.cdisc.org/cosmos/sdtm_v1.0/PredicateTermEnum#GROUPS> ;
    cosmos_sdtm:subject "EGCAT" .

<https://w3id.org/cdisc/cosmos/dss/EG/QTCBSB/EGDTC/relationship> a cosmos_sdtm:RelationShip ;
    cosmos_sdtm:linkingPhrase <https://www.cdisc.org/cosmos/sdtm_v1.0/LinkingPhraseEnum#is%20the%20date%20of%20occurrence%20for> ;
    cosmos_sdtm:object "EGTESTCD" ;
    cosmos_sdtm:predicateTerm <https://www.cdisc.org/cosmos/sdtm_v1.0/PredicateTermEnum#IS_TIMING_FOR> ;
    cosmos_sdtm:subject "EGDTC" .

<https://w3id.org/cdisc/cosmos/dss/EG/QTCBSB/EGENDTC/relationship> a cosmos_sdtm:RelationShip ;
    cosmos_sdtm:linkingPhrase <https://www.cdisc.org/cosmos/sdtm_v1.0/LinkingPhraseEnum#is%20the%20end%20date%20for> ;
    cosmos_sdtm:object "EGTESTCD" ;
    cosmos_sdtm:predicateTerm <https://www.cdisc.org/cosmos/sdtm_v1.0/PredicateTermEnum#IS_TIMING_FOR> ;
    cosmos_sdtm:subject "EGENDTC" .

<https://w3id.org/cdisc/cosmos/dss/EG/QTCBSB/EGEVAL/relationship> a cosmos_sdtm:RelationShip ;
    cosmos_sdtm:linkingPhrase <https://www.cdisc.org/cosmos/sdtm_v1.0/LinkingPhraseEnum#is%20the%20role%20of%20the%20assessor%20who%20performed%20the%20test%20in> ;
    cosmos_sdtm:object "EGTESTCD" ;
    cosmos_sdtm:predicateTerm <https://www.cdisc.org/cosmos/sdtm_v1.0/PredicateTermEnum#PERFORMS> ;
    cosmos_sdtm:subject "EGEVAL" .

<https://w3id.org/cdisc/cosmos/dss/EG/QTCBSB/EGMETHOD/relationship> a cosmos_sdtm:RelationShip ;
    cosmos_sdtm:linkingPhrase <https://www.cdisc.org/cosmos/sdtm_v1.0/LinkingPhraseEnum#is%20the%20method%20for%20the%20test%20in> ;
    cosmos_sdtm:object "EGTESTCD" ;
    cosmos_sdtm:predicateTerm <https://www.cdisc.org/cosmos/sdtm_v1.0/PredicateTermEnum#SPECIFIES> ;
    cosmos_sdtm:subject "EGMETHOD" .

<https://w3id.org/cdisc/cosmos/dss/EG/QTCBSB/EGORRES/relationship> a cosmos_sdtm:RelationShip ;
    cosmos_sdtm:linkingPhrase <https://www.cdisc.org/cosmos/sdtm_v1.0/LinkingPhraseEnum#is%20the%20result%20of%20the%20test%20in> ;
    cosmos_sdtm:object "EGTESTCD" ;
    cosmos_sdtm:predicateTerm <https://www.cdisc.org/cosmos/sdtm_v1.0/PredicateTermEnum#IS_RESULT_OF> ;
    cosmos_sdtm:subject "EGORRES" .

<https://w3id.org/cdisc/cosmos/dss/EG/QTCBSB/EGORRESU/relationship> a cosmos_sdtm:RelationShip ;
    cosmos_sdtm:linkingPhrase <https://www.cdisc.org/cosmos/sdtm_v1.0/LinkingPhraseEnum#is%20the%20unit%20for%20the%20value%20in> ;
    cosmos_sdtm:object "EGORRES" ;
    cosmos_sdtm:predicateTerm <https://www.cdisc.org/cosmos/sdtm_v1.0/PredicateTermEnum#IS_UNIT_FOR> ;
    cosmos_sdtm:subject "EGORRESU" .

<https://w3id.org/cdisc/cosmos/dss/EG/QTCBSB/EGPOS/relationship> a cosmos_sdtm:RelationShip ;
    cosmos_sdtm:linkingPhrase <https://www.cdisc.org/cosmos/sdtm_v1.0/LinkingPhraseEnum#was%20the%20subject%20position%20during%20performance%20of%20the%20test%20in> ;
    cosmos_sdtm:object "EGTESTCD" ;
    cosmos_sdtm:predicateTerm <https://www.cdisc.org/cosmos/sdtm_v1.0/PredicateTermEnum#IS_SUBJECT_STATE_FOR> ;
    cosmos_sdtm:subject "EGPOS" .

<https://w3id.org/cdisc/cosmos/dss/EG/QTCBSB/EGSTRESC/relationship> a cosmos_sdtm:RelationShip ;
    cosmos_sdtm:linkingPhrase <https://www.cdisc.org/cosmos/sdtm_v1.0/LinkingPhraseEnum#is%20the%20result%20of%20the%20test%20in> ;
    cosmos_sdtm:object "EGTESTCD" ;
    cosmos_sdtm:predicateTerm <https://www.cdisc.org/cosmos/sdtm_v1.0/PredicateTermEnum#IS_RESULT_OF> ;
    cosmos_sdtm:subject "EGSTRESC" .

<https://w3id.org/cdisc/cosmos/dss/EG/QTCBSB/EGSTRESN/relationship> a cosmos_sdtm:RelationShip ;
    cosmos_sdtm:linkingPhrase <https://www.cdisc.org/cosmos/sdtm_v1.0/LinkingPhraseEnum#is%20the%20result%20of%20the%20test%20in> ;
    cosmos_sdtm:object "EGTESTCD" ;
    cosmos_sdtm:predicateTerm <https://www.cdisc.org/cosmos/sdtm_v1.0/PredicateTermEnum#IS_RESULT_OF> ;
    cosmos_sdtm:subject "EGSTRESN" .

<https://w3id.org/cdisc/cosmos/dss/EG/QTCBSB/EGSTRESU/assignedTerm> a cosmos_sdtm:AssignedTerm ;
    cosmos_sdtm:conceptId NCIT:C41140 ;
    cosmos_sdtm:value "ms" .

<https://w3id.org/cdisc/cosmos/dss/EG/QTCBSB/EGSTRESU/relationship> a cosmos_sdtm:RelationShip ;
    cosmos_sdtm:linkingPhrase <https://www.cdisc.org/cosmos/sdtm_v1.0/LinkingPhraseEnum#is%20the%20unit%20for%20the%20value%20in> ;
    cosmos_sdtm:object "EGSTRESN" ;
    cosmos_sdtm:predicateTerm <https://www.cdisc.org/cosmos/sdtm_v1.0/PredicateTermEnum#IS_UNIT_FOR> ;
    cosmos_sdtm:subject "EGSTRESU" .

<https://w3id.org/cdisc/cosmos/dss/EG/QTCBSB/EGTEST/assignedTerm> a cosmos_sdtm:AssignedTerm ;
    cosmos_sdtm:conceptId NCIT:C117785 ;
    cosmos_sdtm:value "QTcB Interval, Single Beat" .

<https://w3id.org/cdisc/cosmos/dss/EG/QTCBSB/EGTEST/relationship> a cosmos_sdtm:RelationShip ;
    cosmos_sdtm:linkingPhrase <https://www.cdisc.org/cosmos/sdtm_v1.0/LinkingPhraseEnum#decodes%20the%20value%20in> ;
    cosmos_sdtm:object "EGTESTCD" ;
    cosmos_sdtm:predicateTerm <https://www.cdisc.org/cosmos/sdtm_v1.0/PredicateTermEnum#DECODES> ;
    cosmos_sdtm:subject "EGTEST" .

<https://w3id.org/cdisc/cosmos/dss/EG/QTCBSB/EGTESTCD/assignedTerm> a cosmos_sdtm:AssignedTerm ;
    cosmos_sdtm:conceptId NCIT:C117785 ;
    cosmos_sdtm:value "QTCBSB" .

<https://w3id.org/cdisc/cosmos/dss/EG/QTCBSB/EGTESTCD/relationship> a cosmos_sdtm:RelationShip ;
    cosmos_sdtm:linkingPhrase <https://www.cdisc.org/cosmos/sdtm_v1.0/LinkingPhraseEnum#is%20the%20code%20for%20the%20value%20in> ;
    cosmos_sdtm:object "EGTEST" ;
    cosmos_sdtm:predicateTerm <https://www.cdisc.org/cosmos/sdtm_v1.0/PredicateTermEnum#IS_DECODED_BY> ;
    cosmos_sdtm:subject "EGTESTCD" .

<https://w3id.org/cdisc/cosmos/dss/EG/QTCFAG/EGCAT/assignedTerm> a cosmos_sdtm:AssignedTerm ;
    cosmos_sdtm:value "INTERVAL" .

<https://w3id.org/cdisc/cosmos/dss/EG/QTCFAG/EGCAT/relationship> a cosmos_sdtm:RelationShip ;
    cosmos_sdtm:linkingPhrase <https://www.cdisc.org/cosmos/sdtm_v1.0/LinkingPhraseEnum#groups%20values%20in> ;
    cosmos_sdtm:object "EGTESTCD" ;
    cosmos_sdtm:predicateTerm <https://www.cdisc.org/cosmos/sdtm_v1.0/PredicateTermEnum#GROUPS> ;
    cosmos_sdtm:subject "EGCAT" .

<https://w3id.org/cdisc/cosmos/dss/EG/QTCFAG/EGDTC/relationship> a cosmos_sdtm:RelationShip ;
    cosmos_sdtm:linkingPhrase <https://www.cdisc.org/cosmos/sdtm_v1.0/LinkingPhraseEnum#is%20the%20date%20of%20occurrence%20for> ;
    cosmos_sdtm:object "EGTESTCD" ;
    cosmos_sdtm:predicateTerm <https://www.cdisc.org/cosmos/sdtm_v1.0/PredicateTermEnum#IS_TIMING_FOR> ;
    cosmos_sdtm:subject "EGDTC" .

<https://w3id.org/cdisc/cosmos/dss/EG/QTCFAG/EGENDTC/relationship> a cosmos_sdtm:RelationShip ;
    cosmos_sdtm:linkingPhrase <https://www.cdisc.org/cosmos/sdtm_v1.0/LinkingPhraseEnum#is%20the%20end%20date%20for> ;
    cosmos_sdtm:object "EGTESTCD" ;
    cosmos_sdtm:predicateTerm <https://www.cdisc.org/cosmos/sdtm_v1.0/PredicateTermEnum#IS_TIMING_FOR> ;
    cosmos_sdtm:subject "EGENDTC" .

<https://w3id.org/cdisc/cosmos/dss/EG/QTCFAG/EGEVAL/relationship> a cosmos_sdtm:RelationShip ;
    cosmos_sdtm:linkingPhrase <https://www.cdisc.org/cosmos/sdtm_v1.0/LinkingPhraseEnum#is%20the%20role%20of%20the%20assessor%20who%20performed%20the%20test%20in> ;
    cosmos_sdtm:object "EGTESTCD" ;
    cosmos_sdtm:predicateTerm <https://www.cdisc.org/cosmos/sdtm_v1.0/PredicateTermEnum#PERFORMS> ;
    cosmos_sdtm:subject "EGEVAL" .

<https://w3id.org/cdisc/cosmos/dss/EG/QTCFAG/EGMETHOD/relationship> a cosmos_sdtm:RelationShip ;
    cosmos_sdtm:linkingPhrase <https://www.cdisc.org/cosmos/sdtm_v1.0/LinkingPhraseEnum#is%20the%20method%20for%20the%20test%20in> ;
    cosmos_sdtm:object "EGTESTCD" ;
    cosmos_sdtm:predicateTerm <https://www.cdisc.org/cosmos/sdtm_v1.0/PredicateTermEnum#SPECIFIES> ;
    cosmos_sdtm:subject "EGMETHOD" .

<https://w3id.org/cdisc/cosmos/dss/EG/QTCFAG/EGORRES/relationship> a cosmos_sdtm:RelationShip ;
    cosmos_sdtm:linkingPhrase <https://www.cdisc.org/cosmos/sdtm_v1.0/LinkingPhraseEnum#is%20the%20result%20of%20the%20test%20in> ;
    cosmos_sdtm:object "EGTESTCD" ;
    cosmos_sdtm:predicateTerm <https://www.cdisc.org/cosmos/sdtm_v1.0/PredicateTermEnum#IS_RESULT_OF> ;
    cosmos_sdtm:subject "EGORRES" .

<https://w3id.org/cdisc/cosmos/dss/EG/QTCFAG/EGORRESU/relationship> a cosmos_sdtm:RelationShip ;
    cosmos_sdtm:linkingPhrase <https://www.cdisc.org/cosmos/sdtm_v1.0/LinkingPhraseEnum#is%20the%20unit%20for%20the%20value%20in> ;
    cosmos_sdtm:object "EGORRES" ;
    cosmos_sdtm:predicateTerm <https://www.cdisc.org/cosmos/sdtm_v1.0/PredicateTermEnum#IS_UNIT_FOR> ;
    cosmos_sdtm:subject "EGORRESU" .

<https://w3id.org/cdisc/cosmos/dss/EG/QTCFAG/EGPOS/relationship> a cosmos_sdtm:RelationShip ;
    cosmos_sdtm:linkingPhrase <https://www.cdisc.org/cosmos/sdtm_v1.0/LinkingPhraseEnum#was%20the%20subject%20position%20during%20performance%20of%20the%20test%20in> ;
    cosmos_sdtm:object "EGTESTCD" ;
    cosmos_sdtm:predicateTerm <https://www.cdisc.org/cosmos/sdtm_v1.0/PredicateTermEnum#IS_SUBJECT_STATE_FOR> ;
    cosmos_sdtm:subject "EGPOS" .

<https://w3id.org/cdisc/cosmos/dss/EG/QTCFAG/EGSTRESC/relationship> a cosmos_sdtm:RelationShip ;
    cosmos_sdtm:linkingPhrase <https://www.cdisc.org/cosmos/sdtm_v1.0/LinkingPhraseEnum#is%20the%20result%20of%20the%20test%20in> ;
    cosmos_sdtm:object "EGTESTCD" ;
    cosmos_sdtm:predicateTerm <https://www.cdisc.org/cosmos/sdtm_v1.0/PredicateTermEnum#IS_RESULT_OF> ;
    cosmos_sdtm:subject "EGSTRESC" .

<https://w3id.org/cdisc/cosmos/dss/EG/QTCFAG/EGSTRESN/relationship> a cosmos_sdtm:RelationShip ;
    cosmos_sdtm:linkingPhrase <https://www.cdisc.org/cosmos/sdtm_v1.0/LinkingPhraseEnum#is%20the%20result%20of%20the%20test%20in> ;
    cosmos_sdtm:object "EGTESTCD" ;
    cosmos_sdtm:predicateTerm <https://www.cdisc.org/cosmos/sdtm_v1.0/PredicateTermEnum#IS_RESULT_OF> ;
    cosmos_sdtm:subject "EGSTRESN" .

<https://w3id.org/cdisc/cosmos/dss/EG/QTCFAG/EGSTRESU/assignedTerm> a cosmos_sdtm:AssignedTerm ;
    cosmos_sdtm:conceptId NCIT:C41140 ;
    cosmos_sdtm:value "ms" .

<https://w3id.org/cdisc/cosmos/dss/EG/QTCFAG/EGSTRESU/relationship> a cosmos_sdtm:RelationShip ;
    cosmos_sdtm:linkingPhrase <https://www.cdisc.org/cosmos/sdtm_v1.0/LinkingPhraseEnum#is%20the%20unit%20for%20the%20value%20in> ;
    cosmos_sdtm:object "EGSTRESN" ;
    cosmos_sdtm:predicateTerm <https://www.cdisc.org/cosmos/sdtm_v1.0/PredicateTermEnum#IS_UNIT_FOR> ;
    cosmos_sdtm:subject "EGSTRESU" .

<https://w3id.org/cdisc/cosmos/dss/EG/QTCFAG/EGTEST/assignedTerm> a cosmos_sdtm:AssignedTerm ;
    cosmos_sdtm:conceptId NCIT:C117786 ;
    cosmos_sdtm:value "QTcF Interval, Aggregate" .

<https://w3id.org/cdisc/cosmos/dss/EG/QTCFAG/EGTEST/relationship> a cosmos_sdtm:RelationShip ;
    cosmos_sdtm:linkingPhrase <https://www.cdisc.org/cosmos/sdtm_v1.0/LinkingPhraseEnum#decodes%20the%20value%20in> ;
    cosmos_sdtm:object "EGTESTCD" ;
    cosmos_sdtm:predicateTerm <https://www.cdisc.org/cosmos/sdtm_v1.0/PredicateTermEnum#DECODES> ;
    cosmos_sdtm:subject "EGTEST" .

<https://w3id.org/cdisc/cosmos/dss/EG/QTCFAG/EGTESTCD/assignedTerm> a cosmos_sdtm:AssignedTerm ;
    cosmos_sdtm:conceptId NCIT:C117786 ;
    cosmos_sdtm:value "QTCFAG" .

<https://w3id.org/cdisc/cosmos/dss/EG/QTCFAG/EGTESTCD/relationship> a cosmos_sdtm:RelationShip ;
    cosmos_sdtm:linkingPhrase <https://www.cdisc.org/cosmos/sdtm_v1.0/LinkingPhraseEnum#is%20the%20code%20for%20the%20value%20in> ;
    cosmos_sdtm:object "EGTEST" ;
    cosmos_sdtm:predicateTerm <https://www.cdisc.org/cosmos/sdtm_v1.0/PredicateTermEnum#IS_DECODED_BY> ;
    cosmos_sdtm:subject "EGTESTCD" .

<https://w3id.org/cdisc/cosmos/dss/EG/QTCFSB/EGCAT/assignedTerm> a cosmos_sdtm:AssignedTerm ;
    cosmos_sdtm:value "INTERVAL" .

<https://w3id.org/cdisc/cosmos/dss/EG/QTCFSB/EGCAT/relationship> a cosmos_sdtm:RelationShip ;
    cosmos_sdtm:linkingPhrase <https://www.cdisc.org/cosmos/sdtm_v1.0/LinkingPhraseEnum#groups%20values%20in> ;
    cosmos_sdtm:object "EGTESTCD" ;
    cosmos_sdtm:predicateTerm <https://www.cdisc.org/cosmos/sdtm_v1.0/PredicateTermEnum#GROUPS> ;
    cosmos_sdtm:subject "EGCAT" .

<https://w3id.org/cdisc/cosmos/dss/EG/QTCFSB/EGDTC/relationship> a cosmos_sdtm:RelationShip ;
    cosmos_sdtm:linkingPhrase <https://www.cdisc.org/cosmos/sdtm_v1.0/LinkingPhraseEnum#is%20the%20date%20of%20occurrence%20for> ;
    cosmos_sdtm:object "EGTESTCD" ;
    cosmos_sdtm:predicateTerm <https://www.cdisc.org/cosmos/sdtm_v1.0/PredicateTermEnum#IS_TIMING_FOR> ;
    cosmos_sdtm:subject "EGDTC" .

<https://w3id.org/cdisc/cosmos/dss/EG/QTCFSB/EGENDTC/relationship> a cosmos_sdtm:RelationShip ;
    cosmos_sdtm:linkingPhrase <https://www.cdisc.org/cosmos/sdtm_v1.0/LinkingPhraseEnum#is%20the%20end%20date%20for> ;
    cosmos_sdtm:object "EGTESTCD" ;
    cosmos_sdtm:predicateTerm <https://www.cdisc.org/cosmos/sdtm_v1.0/PredicateTermEnum#IS_TIMING_FOR> ;
    cosmos_sdtm:subject "EGENDTC" .

<https://w3id.org/cdisc/cosmos/dss/EG/QTCFSB/EGEVAL/relationship> a cosmos_sdtm:RelationShip ;
    cosmos_sdtm:linkingPhrase <https://www.cdisc.org/cosmos/sdtm_v1.0/LinkingPhraseEnum#is%20the%20role%20of%20the%20assessor%20who%20performed%20the%20test%20in> ;
    cosmos_sdtm:object "EGTESTCD" ;
    cosmos_sdtm:predicateTerm <https://www.cdisc.org/cosmos/sdtm_v1.0/PredicateTermEnum#PERFORMS> ;
    cosmos_sdtm:subject "EGEVAL" .

<https://w3id.org/cdisc/cosmos/dss/EG/QTCFSB/EGMETHOD/relationship> a cosmos_sdtm:RelationShip ;
    cosmos_sdtm:linkingPhrase <https://www.cdisc.org/cosmos/sdtm_v1.0/LinkingPhraseEnum#is%20the%20method%20for%20the%20test%20in> ;
    cosmos_sdtm:object "EGTESTCD" ;
    cosmos_sdtm:predicateTerm <https://www.cdisc.org/cosmos/sdtm_v1.0/PredicateTermEnum#SPECIFIES> ;
    cosmos_sdtm:subject "EGMETHOD" .

<https://w3id.org/cdisc/cosmos/dss/EG/QTCFSB/EGORRES/relationship> a cosmos_sdtm:RelationShip ;
    cosmos_sdtm:linkingPhrase <https://www.cdisc.org/cosmos/sdtm_v1.0/LinkingPhraseEnum#is%20the%20result%20of%20the%20test%20in> ;
    cosmos_sdtm:object "EGTESTCD" ;
    cosmos_sdtm:predicateTerm <https://www.cdisc.org/cosmos/sdtm_v1.0/PredicateTermEnum#IS_RESULT_OF> ;
    cosmos_sdtm:subject "EGORRES" .

<https://w3id.org/cdisc/cosmos/dss/EG/QTCFSB/EGORRESU/relationship> a cosmos_sdtm:RelationShip ;
    cosmos_sdtm:linkingPhrase <https://www.cdisc.org/cosmos/sdtm_v1.0/LinkingPhraseEnum#is%20the%20unit%20for%20the%20value%20in> ;
    cosmos_sdtm:object "EGORRES" ;
    cosmos_sdtm:predicateTerm <https://www.cdisc.org/cosmos/sdtm_v1.0/PredicateTermEnum#IS_UNIT_FOR> ;
    cosmos_sdtm:subject "EGORRESU" .

<https://w3id.org/cdisc/cosmos/dss/EG/QTCFSB/EGPOS/relationship> a cosmos_sdtm:RelationShip ;
    cosmos_sdtm:linkingPhrase <https://www.cdisc.org/cosmos/sdtm_v1.0/LinkingPhraseEnum#was%20the%20subject%20position%20during%20performance%20of%20the%20test%20in> ;
    cosmos_sdtm:object "EGTESTCD" ;
    cosmos_sdtm:predicateTerm <https://www.cdisc.org/cosmos/sdtm_v1.0/PredicateTermEnum#IS_SUBJECT_STATE_FOR> ;
    cosmos_sdtm:subject "EGPOS" .

<https://w3id.org/cdisc/cosmos/dss/EG/QTCFSB/EGSTRESC/relationship> a cosmos_sdtm:RelationShip ;
    cosmos_sdtm:linkingPhrase <https://www.cdisc.org/cosmos/sdtm_v1.0/LinkingPhraseEnum#is%20the%20result%20of%20the%20test%20in> ;
    cosmos_sdtm:object "EGTESTCD" ;
    cosmos_sdtm:predicateTerm <https://www.cdisc.org/cosmos/sdtm_v1.0/PredicateTermEnum#IS_RESULT_OF> ;
    cosmos_sdtm:subject "EGSTRESC" .

<https://w3id.org/cdisc/cosmos/dss/EG/QTCFSB/EGSTRESN/relationship> a cosmos_sdtm:RelationShip ;
    cosmos_sdtm:linkingPhrase <https://www.cdisc.org/cosmos/sdtm_v1.0/LinkingPhraseEnum#is%20the%20result%20of%20the%20test%20in> ;
    cosmos_sdtm:object "EGTESTCD" ;
    cosmos_sdtm:predicateTerm <https://www.cdisc.org/cosmos/sdtm_v1.0/PredicateTermEnum#IS_RESULT_OF> ;
    cosmos_sdtm:subject "EGSTRESN" .

<https://w3id.org/cdisc/cosmos/dss/EG/QTCFSB/EGSTRESU/assignedTerm> a cosmos_sdtm:AssignedTerm ;
    cosmos_sdtm:conceptId NCIT:C41140 ;
    cosmos_sdtm:value "ms" .

<https://w3id.org/cdisc/cosmos/dss/EG/QTCFSB/EGSTRESU/relationship> a cosmos_sdtm:RelationShip ;
    cosmos_sdtm:linkingPhrase <https://www.cdisc.org/cosmos/sdtm_v1.0/LinkingPhraseEnum#is%20the%20unit%20for%20the%20value%20in> ;
    cosmos_sdtm:object "EGSTRESN" ;
    cosmos_sdtm:predicateTerm <https://www.cdisc.org/cosmos/sdtm_v1.0/PredicateTermEnum#IS_UNIT_FOR> ;
    cosmos_sdtm:subject "EGSTRESU" .

<https://w3id.org/cdisc/cosmos/dss/EG/QTCFSB/EGTEST/assignedTerm> a cosmos_sdtm:AssignedTerm ;
    cosmos_sdtm:conceptId NCIT:C117787 ;
    cosmos_sdtm:value "QTcF Interval, Single Beat" .

<https://w3id.org/cdisc/cosmos/dss/EG/QTCFSB/EGTEST/relationship> a cosmos_sdtm:RelationShip ;
    cosmos_sdtm:linkingPhrase <https://www.cdisc.org/cosmos/sdtm_v1.0/LinkingPhraseEnum#decodes%20the%20value%20in> ;
    cosmos_sdtm:object "EGTESTCD" ;
    cosmos_sdtm:predicateTerm <https://www.cdisc.org/cosmos/sdtm_v1.0/PredicateTermEnum#DECODES> ;
    cosmos_sdtm:subject "EGTEST" .

<https://w3id.org/cdisc/cosmos/dss/EG/QTCFSB/EGTESTCD/assignedTerm> a cosmos_sdtm:AssignedTerm ;
    cosmos_sdtm:conceptId NCIT:C117787 ;
    cosmos_sdtm:value "QTCFSB" .

<https://w3id.org/cdisc/cosmos/dss/EG/QTCFSB/EGTESTCD/relationship> a cosmos_sdtm:RelationShip ;
    cosmos_sdtm:linkingPhrase <https://www.cdisc.org/cosmos/sdtm_v1.0/LinkingPhraseEnum#is%20the%20code%20for%20the%20value%20in> ;
    cosmos_sdtm:object "EGTEST" ;
    cosmos_sdtm:predicateTerm <https://www.cdisc.org/cosmos/sdtm_v1.0/PredicateTermEnum#IS_DECODED_BY> ;
    cosmos_sdtm:subject "EGTESTCD" .

<https://w3id.org/cdisc/cosmos/dss/EG/QTCUNSAG/EGCAT/assignedTerm> a cosmos_sdtm:AssignedTerm ;
    cosmos_sdtm:value "INTERVAL" .

<https://w3id.org/cdisc/cosmos/dss/EG/QTCUNSAG/EGCAT/relationship> a cosmos_sdtm:RelationShip ;
    cosmos_sdtm:linkingPhrase <https://www.cdisc.org/cosmos/sdtm_v1.0/LinkingPhraseEnum#groups%20values%20in> ;
    cosmos_sdtm:object "EGTESTCD" ;
    cosmos_sdtm:predicateTerm <https://www.cdisc.org/cosmos/sdtm_v1.0/PredicateTermEnum#GROUPS> ;
    cosmos_sdtm:subject "EGCAT" .

<https://w3id.org/cdisc/cosmos/dss/EG/QTCUNSAG/EGDTC/relationship> a cosmos_sdtm:RelationShip ;
    cosmos_sdtm:linkingPhrase <https://www.cdisc.org/cosmos/sdtm_v1.0/LinkingPhraseEnum#is%20the%20date%20of%20occurrence%20for> ;
    cosmos_sdtm:object "EGTESTCD" ;
    cosmos_sdtm:predicateTerm <https://www.cdisc.org/cosmos/sdtm_v1.0/PredicateTermEnum#IS_TIMING_FOR> ;
    cosmos_sdtm:subject "EGDTC" .

<https://w3id.org/cdisc/cosmos/dss/EG/QTCUNSAG/EGENDTC/relationship> a cosmos_sdtm:RelationShip ;
    cosmos_sdtm:linkingPhrase <https://www.cdisc.org/cosmos/sdtm_v1.0/LinkingPhraseEnum#is%20the%20end%20date%20for> ;
    cosmos_sdtm:object "EGTESTCD" ;
    cosmos_sdtm:predicateTerm <https://www.cdisc.org/cosmos/sdtm_v1.0/PredicateTermEnum#IS_TIMING_FOR> ;
    cosmos_sdtm:subject "EGENDTC" .

<https://w3id.org/cdisc/cosmos/dss/EG/QTCUNSAG/EGEVAL/relationship> a cosmos_sdtm:RelationShip ;
    cosmos_sdtm:linkingPhrase <https://www.cdisc.org/cosmos/sdtm_v1.0/LinkingPhraseEnum#is%20the%20role%20of%20the%20assessor%20who%20performed%20the%20test%20in> ;
    cosmos_sdtm:object "EGTESTCD" ;
    cosmos_sdtm:predicateTerm <https://www.cdisc.org/cosmos/sdtm_v1.0/PredicateTermEnum#PERFORMS> ;
    cosmos_sdtm:subject "EGEVAL" .

<https://w3id.org/cdisc/cosmos/dss/EG/QTCUNSAG/EGMETHOD/relationship> a cosmos_sdtm:RelationShip ;
    cosmos_sdtm:linkingPhrase <https://www.cdisc.org/cosmos/sdtm_v1.0/LinkingPhraseEnum#is%20the%20method%20for%20the%20test%20in> ;
    cosmos_sdtm:object "EGTESTCD" ;
    cosmos_sdtm:predicateTerm <https://www.cdisc.org/cosmos/sdtm_v1.0/PredicateTermEnum#SPECIFIES> ;
    cosmos_sdtm:subject "EGMETHOD" .

<https://w3id.org/cdisc/cosmos/dss/EG/QTCUNSAG/EGORRES/relationship> a cosmos_sdtm:RelationShip ;
    cosmos_sdtm:linkingPhrase <https://www.cdisc.org/cosmos/sdtm_v1.0/LinkingPhraseEnum#is%20the%20result%20of%20the%20test%20in> ;
    cosmos_sdtm:object "EGTESTCD" ;
    cosmos_sdtm:predicateTerm <https://www.cdisc.org/cosmos/sdtm_v1.0/PredicateTermEnum#IS_RESULT_OF> ;
    cosmos_sdtm:subject "EGORRES" .

<https://w3id.org/cdisc/cosmos/dss/EG/QTCUNSAG/EGORRESU/relationship> a cosmos_sdtm:RelationShip ;
    cosmos_sdtm:linkingPhrase <https://www.cdisc.org/cosmos/sdtm_v1.0/LinkingPhraseEnum#is%20the%20unit%20for%20the%20value%20in> ;
    cosmos_sdtm:object "EGORRES" ;
    cosmos_sdtm:predicateTerm <https://www.cdisc.org/cosmos/sdtm_v1.0/PredicateTermEnum#IS_UNIT_FOR> ;
    cosmos_sdtm:subject "EGORRESU" .

<https://w3id.org/cdisc/cosmos/dss/EG/QTCUNSAG/EGPOS/relationship> a cosmos_sdtm:RelationShip ;
    cosmos_sdtm:linkingPhrase <https://www.cdisc.org/cosmos/sdtm_v1.0/LinkingPhraseEnum#was%20the%20subject%20position%20during%20performance%20of%20the%20test%20in> ;
    cosmos_sdtm:object "EGTESTCD" ;
    cosmos_sdtm:predicateTerm <https://www.cdisc.org/cosmos/sdtm_v1.0/PredicateTermEnum#IS_SUBJECT_STATE_FOR> ;
    cosmos_sdtm:subject "EGPOS" .

<https://w3id.org/cdisc/cosmos/dss/EG/QTCUNSAG/EGSTRESC/relationship> a cosmos_sdtm:RelationShip ;
    cosmos_sdtm:linkingPhrase <https://www.cdisc.org/cosmos/sdtm_v1.0/LinkingPhraseEnum#is%20the%20result%20of%20the%20test%20in> ;
    cosmos_sdtm:object "EGTESTCD" ;
    cosmos_sdtm:predicateTerm <https://www.cdisc.org/cosmos/sdtm_v1.0/PredicateTermEnum#IS_RESULT_OF> ;
    cosmos_sdtm:subject "EGSTRESC" .

<https://w3id.org/cdisc/cosmos/dss/EG/QTCUNSAG/EGSTRESN/relationship> a cosmos_sdtm:RelationShip ;
    cosmos_sdtm:linkingPhrase <https://www.cdisc.org/cosmos/sdtm_v1.0/LinkingPhraseEnum#is%20the%20result%20of%20the%20test%20in> ;
    cosmos_sdtm:object "EGTESTCD" ;
    cosmos_sdtm:predicateTerm <https://www.cdisc.org/cosmos/sdtm_v1.0/PredicateTermEnum#IS_RESULT_OF> ;
    cosmos_sdtm:subject "EGSTRESN" .

<https://w3id.org/cdisc/cosmos/dss/EG/QTCUNSAG/EGSTRESU/assignedTerm> a cosmos_sdtm:AssignedTerm ;
    cosmos_sdtm:conceptId NCIT:C41140 ;
    cosmos_sdtm:value "ms" .

<https://w3id.org/cdisc/cosmos/dss/EG/QTCUNSAG/EGSTRESU/relationship> a cosmos_sdtm:RelationShip ;
    cosmos_sdtm:linkingPhrase <https://www.cdisc.org/cosmos/sdtm_v1.0/LinkingPhraseEnum#is%20the%20unit%20for%20the%20value%20in> ;
    cosmos_sdtm:object "EGSTRESN" ;
    cosmos_sdtm:predicateTerm <https://www.cdisc.org/cosmos/sdtm_v1.0/PredicateTermEnum#IS_UNIT_FOR> ;
    cosmos_sdtm:subject "EGSTRESU" .

<https://w3id.org/cdisc/cosmos/dss/EG/QTCUNSAG/EGTEST/assignedTerm> a cosmos_sdtm:AssignedTerm ;
    cosmos_sdtm:conceptId NCIT:C174285 ;
    cosmos_sdtm:value "QTc Corr Method Unspecified, Aggregate" .

<https://w3id.org/cdisc/cosmos/dss/EG/QTCUNSAG/EGTEST/relationship> a cosmos_sdtm:RelationShip ;
    cosmos_sdtm:linkingPhrase <https://www.cdisc.org/cosmos/sdtm_v1.0/LinkingPhraseEnum#decodes%20the%20value%20in> ;
    cosmos_sdtm:object "EGTESTCD" ;
    cosmos_sdtm:predicateTerm <https://www.cdisc.org/cosmos/sdtm_v1.0/PredicateTermEnum#DECODES> ;
    cosmos_sdtm:subject "EGTEST" .

<https://w3id.org/cdisc/cosmos/dss/EG/QTCUNSAG/EGTESTCD/assignedTerm> a cosmos_sdtm:AssignedTerm ;
    cosmos_sdtm:conceptId NCIT:C174285 ;
    cosmos_sdtm:value "QTCUNSAG" .

<https://w3id.org/cdisc/cosmos/dss/EG/QTCUNSAG/EGTESTCD/relationship> a cosmos_sdtm:RelationShip ;
    cosmos_sdtm:linkingPhrase <https://www.cdisc.org/cosmos/sdtm_v1.0/LinkingPhraseEnum#is%20the%20code%20for%20the%20value%20in> ;
    cosmos_sdtm:object "EGTEST" ;
    cosmos_sdtm:predicateTerm <https://www.cdisc.org/cosmos/sdtm_v1.0/PredicateTermEnum#IS_DECODED_BY> ;
    cosmos_sdtm:subject "EGTESTCD" .

<https://w3id.org/cdisc/cosmos/dss/EG/QTCUNSSB/EGCAT/assignedTerm> a cosmos_sdtm:AssignedTerm ;
    cosmos_sdtm:value "INTERVAL" .

<https://w3id.org/cdisc/cosmos/dss/EG/QTCUNSSB/EGCAT/relationship> a cosmos_sdtm:RelationShip ;
    cosmos_sdtm:linkingPhrase <https://www.cdisc.org/cosmos/sdtm_v1.0/LinkingPhraseEnum#groups%20values%20in> ;
    cosmos_sdtm:object "EGTESTCD" ;
    cosmos_sdtm:predicateTerm <https://www.cdisc.org/cosmos/sdtm_v1.0/PredicateTermEnum#GROUPS> ;
    cosmos_sdtm:subject "EGCAT" .

<https://w3id.org/cdisc/cosmos/dss/EG/QTCUNSSB/EGDTC/relationship> a cosmos_sdtm:RelationShip ;
    cosmos_sdtm:linkingPhrase <https://www.cdisc.org/cosmos/sdtm_v1.0/LinkingPhraseEnum#is%20the%20date%20of%20occurrence%20for> ;
    cosmos_sdtm:object "EGTESTCD" ;
    cosmos_sdtm:predicateTerm <https://www.cdisc.org/cosmos/sdtm_v1.0/PredicateTermEnum#IS_TIMING_FOR> ;
    cosmos_sdtm:subject "EGDTC" .

<https://w3id.org/cdisc/cosmos/dss/EG/QTCUNSSB/EGENDTC/relationship> a cosmos_sdtm:RelationShip ;
    cosmos_sdtm:linkingPhrase <https://www.cdisc.org/cosmos/sdtm_v1.0/LinkingPhraseEnum#is%20the%20end%20date%20for> ;
    cosmos_sdtm:object "EGTESTCD" ;
    cosmos_sdtm:predicateTerm <https://www.cdisc.org/cosmos/sdtm_v1.0/PredicateTermEnum#IS_TIMING_FOR> ;
    cosmos_sdtm:subject "EGENDTC" .

<https://w3id.org/cdisc/cosmos/dss/EG/QTCUNSSB/EGEVAL/relationship> a cosmos_sdtm:RelationShip ;
    cosmos_sdtm:linkingPhrase <https://www.cdisc.org/cosmos/sdtm_v1.0/LinkingPhraseEnum#is%20the%20role%20of%20the%20assessor%20who%20performed%20the%20test%20in> ;
    cosmos_sdtm:object "EGTESTCD" ;
    cosmos_sdtm:predicateTerm <https://www.cdisc.org/cosmos/sdtm_v1.0/PredicateTermEnum#PERFORMS> ;
    cosmos_sdtm:subject "EGEVAL" .

<https://w3id.org/cdisc/cosmos/dss/EG/QTCUNSSB/EGMETHOD/relationship> a cosmos_sdtm:RelationShip ;
    cosmos_sdtm:linkingPhrase <https://www.cdisc.org/cosmos/sdtm_v1.0/LinkingPhraseEnum#is%20the%20method%20for%20the%20test%20in> ;
    cosmos_sdtm:object "EGTESTCD" ;
    cosmos_sdtm:predicateTerm <https://www.cdisc.org/cosmos/sdtm_v1.0/PredicateTermEnum#SPECIFIES> ;
    cosmos_sdtm:subject "EGMETHOD" .

<https://w3id.org/cdisc/cosmos/dss/EG/QTCUNSSB/EGORRES/relationship> a cosmos_sdtm:RelationShip ;
    cosmos_sdtm:linkingPhrase <https://www.cdisc.org/cosmos/sdtm_v1.0/LinkingPhraseEnum#is%20the%20result%20of%20the%20test%20in> ;
    cosmos_sdtm:object "EGTESTCD" ;
    cosmos_sdtm:predicateTerm <https://www.cdisc.org/cosmos/sdtm_v1.0/PredicateTermEnum#IS_RESULT_OF> ;
    cosmos_sdtm:subject "EGORRES" .

<https://w3id.org/cdisc/cosmos/dss/EG/QTCUNSSB/EGORRESU/relationship> a cosmos_sdtm:RelationShip ;
    cosmos_sdtm:linkingPhrase <https://www.cdisc.org/cosmos/sdtm_v1.0/LinkingPhraseEnum#is%20the%20unit%20for%20the%20value%20in> ;
    cosmos_sdtm:object "EGORRES" ;
    cosmos_sdtm:predicateTerm <https://www.cdisc.org/cosmos/sdtm_v1.0/PredicateTermEnum#IS_UNIT_FOR> ;
    cosmos_sdtm:subject "EGORRESU" .

<https://w3id.org/cdisc/cosmos/dss/EG/QTCUNSSB/EGPOS/relationship> a cosmos_sdtm:RelationShip ;
    cosmos_sdtm:linkingPhrase <https://www.cdisc.org/cosmos/sdtm_v1.0/LinkingPhraseEnum#was%20the%20subject%20position%20during%20performance%20of%20the%20test%20in> ;
    cosmos_sdtm:object "EGTESTCD" ;
    cosmos_sdtm:predicateTerm <https://www.cdisc.org/cosmos/sdtm_v1.0/PredicateTermEnum#IS_SUBJECT_STATE_FOR> ;
    cosmos_sdtm:subject "EGPOS" .

<https://w3id.org/cdisc/cosmos/dss/EG/QTCUNSSB/EGSTRESC/relationship> a cosmos_sdtm:RelationShip ;
    cosmos_sdtm:linkingPhrase <https://www.cdisc.org/cosmos/sdtm_v1.0/LinkingPhraseEnum#is%20the%20result%20of%20the%20test%20in> ;
    cosmos_sdtm:object "EGTESTCD" ;
    cosmos_sdtm:predicateTerm <https://www.cdisc.org/cosmos/sdtm_v1.0/PredicateTermEnum#IS_RESULT_OF> ;
    cosmos_sdtm:subject "EGSTRESC" .

<https://w3id.org/cdisc/cosmos/dss/EG/QTCUNSSB/EGSTRESN/relationship> a cosmos_sdtm:RelationShip ;
    cosmos_sdtm:linkingPhrase <https://www.cdisc.org/cosmos/sdtm_v1.0/LinkingPhraseEnum#is%20the%20result%20of%20the%20test%20in> ;
    cosmos_sdtm:object "EGTESTCD" ;
    cosmos_sdtm:predicateTerm <https://www.cdisc.org/cosmos/sdtm_v1.0/PredicateTermEnum#IS_RESULT_OF> ;
    cosmos_sdtm:subject "EGSTRESN" .

<https://w3id.org/cdisc/cosmos/dss/EG/QTCUNSSB/EGSTRESU/assignedTerm> a cosmos_sdtm:AssignedTerm ;
    cosmos_sdtm:conceptId NCIT:C41140 ;
    cosmos_sdtm:value "ms" .

<https://w3id.org/cdisc/cosmos/dss/EG/QTCUNSSB/EGSTRESU/relationship> a cosmos_sdtm:RelationShip ;
    cosmos_sdtm:linkingPhrase <https://www.cdisc.org/cosmos/sdtm_v1.0/LinkingPhraseEnum#is%20the%20unit%20for%20the%20value%20in> ;
    cosmos_sdtm:object "EGSTRESN" ;
    cosmos_sdtm:predicateTerm <https://www.cdisc.org/cosmos/sdtm_v1.0/PredicateTermEnum#IS_UNIT_FOR> ;
    cosmos_sdtm:subject "EGSTRESU" .

<https://w3id.org/cdisc/cosmos/dss/EG/QTCUNSSB/EGTEST/assignedTerm> a cosmos_sdtm:AssignedTerm ;
    cosmos_sdtm:conceptId NCIT:C174286 ;
    cosmos_sdtm:value "QTc Corr Method Unspecified, Single Beat" .

<https://w3id.org/cdisc/cosmos/dss/EG/QTCUNSSB/EGTEST/relationship> a cosmos_sdtm:RelationShip ;
    cosmos_sdtm:linkingPhrase <https://www.cdisc.org/cosmos/sdtm_v1.0/LinkingPhraseEnum#decodes%20the%20value%20in> ;
    cosmos_sdtm:object "EGTESTCD" ;
    cosmos_sdtm:predicateTerm <https://www.cdisc.org/cosmos/sdtm_v1.0/PredicateTermEnum#DECODES> ;
    cosmos_sdtm:subject "EGTEST" .

<https://w3id.org/cdisc/cosmos/dss/EG/QTCUNSSB/EGTESTCD/assignedTerm> a cosmos_sdtm:AssignedTerm ;
    cosmos_sdtm:conceptId NCIT:C174286 ;
    cosmos_sdtm:value "QTCUNSSB" .

<https://w3id.org/cdisc/cosmos/dss/EG/QTCUNSSB/EGTESTCD/relationship> a cosmos_sdtm:RelationShip ;
    cosmos_sdtm:linkingPhrase <https://www.cdisc.org/cosmos/sdtm_v1.0/LinkingPhraseEnum#is%20the%20code%20for%20the%20value%20in> ;
    cosmos_sdtm:object "EGTEST" ;
    cosmos_sdtm:predicateTerm <https://www.cdisc.org/cosmos/sdtm_v1.0/PredicateTermEnum#IS_DECODED_BY> ;
    cosmos_sdtm:subject "EGTESTCD" .

<https://w3id.org/cdisc/cosmos/dss/EG/QTSB/EGCAT/assignedTerm> a cosmos_sdtm:AssignedTerm ;
    cosmos_sdtm:value "INTERVAL" .

<https://w3id.org/cdisc/cosmos/dss/EG/QTSB/EGCAT/relationship> a cosmos_sdtm:RelationShip ;
    cosmos_sdtm:linkingPhrase <https://www.cdisc.org/cosmos/sdtm_v1.0/LinkingPhraseEnum#groups%20values%20in> ;
    cosmos_sdtm:object "EGTESTCD" ;
    cosmos_sdtm:predicateTerm <https://www.cdisc.org/cosmos/sdtm_v1.0/PredicateTermEnum#GROUPS> ;
    cosmos_sdtm:subject "EGCAT" .

<https://w3id.org/cdisc/cosmos/dss/EG/QTSB/EGDTC/relationship> a cosmos_sdtm:RelationShip ;
    cosmos_sdtm:linkingPhrase <https://www.cdisc.org/cosmos/sdtm_v1.0/LinkingPhraseEnum#is%20the%20date%20of%20occurrence%20for> ;
    cosmos_sdtm:object "EGTESTCD" ;
    cosmos_sdtm:predicateTerm <https://www.cdisc.org/cosmos/sdtm_v1.0/PredicateTermEnum#IS_TIMING_FOR> ;
    cosmos_sdtm:subject "EGDTC" .

<https://w3id.org/cdisc/cosmos/dss/EG/QTSB/EGENDTC/relationship> a cosmos_sdtm:RelationShip ;
    cosmos_sdtm:linkingPhrase <https://www.cdisc.org/cosmos/sdtm_v1.0/LinkingPhraseEnum#is%20the%20end%20date%20for> ;
    cosmos_sdtm:object "EGTESTCD" ;
    cosmos_sdtm:predicateTerm <https://www.cdisc.org/cosmos/sdtm_v1.0/PredicateTermEnum#IS_TIMING_FOR> ;
    cosmos_sdtm:subject "EGENDTC" .

<https://w3id.org/cdisc/cosmos/dss/EG/QTSB/EGEVAL/relationship> a cosmos_sdtm:RelationShip ;
    cosmos_sdtm:linkingPhrase <https://www.cdisc.org/cosmos/sdtm_v1.0/LinkingPhraseEnum#is%20the%20role%20of%20the%20assessor%20who%20performed%20the%20test%20in> ;
    cosmos_sdtm:object "EGTESTCD" ;
    cosmos_sdtm:predicateTerm <https://www.cdisc.org/cosmos/sdtm_v1.0/PredicateTermEnum#PERFORMS> ;
    cosmos_sdtm:subject "EGEVAL" .

<https://w3id.org/cdisc/cosmos/dss/EG/QTSB/EGMETHOD/relationship> a cosmos_sdtm:RelationShip ;
    cosmos_sdtm:linkingPhrase <https://www.cdisc.org/cosmos/sdtm_v1.0/LinkingPhraseEnum#is%20the%20method%20for%20the%20test%20in> ;
    cosmos_sdtm:object "EGTESTCD" ;
    cosmos_sdtm:predicateTerm <https://www.cdisc.org/cosmos/sdtm_v1.0/PredicateTermEnum#SPECIFIES> ;
    cosmos_sdtm:subject "EGMETHOD" .

<https://w3id.org/cdisc/cosmos/dss/EG/QTSB/EGORRES/relationship> a cosmos_sdtm:RelationShip ;
    cosmos_sdtm:linkingPhrase <https://www.cdisc.org/cosmos/sdtm_v1.0/LinkingPhraseEnum#is%20the%20result%20of%20the%20test%20in> ;
    cosmos_sdtm:object "EGTESTCD" ;
    cosmos_sdtm:predicateTerm <https://www.cdisc.org/cosmos/sdtm_v1.0/PredicateTermEnum#IS_RESULT_OF> ;
    cosmos_sdtm:subject "EGORRES" .

<https://w3id.org/cdisc/cosmos/dss/EG/QTSB/EGORRESU/relationship> a cosmos_sdtm:RelationShip ;
    cosmos_sdtm:linkingPhrase <https://www.cdisc.org/cosmos/sdtm_v1.0/LinkingPhraseEnum#is%20the%20unit%20for%20the%20value%20in> ;
    cosmos_sdtm:object "EGORRES" ;
    cosmos_sdtm:predicateTerm <https://www.cdisc.org/cosmos/sdtm_v1.0/PredicateTermEnum#IS_UNIT_FOR> ;
    cosmos_sdtm:subject "EGORRESU" .

<https://w3id.org/cdisc/cosmos/dss/EG/QTSB/EGPOS/relationship> a cosmos_sdtm:RelationShip ;
    cosmos_sdtm:linkingPhrase <https://www.cdisc.org/cosmos/sdtm_v1.0/LinkingPhraseEnum#was%20the%20subject%20position%20during%20performance%20of%20the%20test%20in> ;
    cosmos_sdtm:object "EGTESTCD" ;
    cosmos_sdtm:predicateTerm <https://www.cdisc.org/cosmos/sdtm_v1.0/PredicateTermEnum#IS_SUBJECT_STATE_FOR> ;
    cosmos_sdtm:subject "EGPOS" .

<https://w3id.org/cdisc/cosmos/dss/EG/QTSB/EGSTRESC/relationship> a cosmos_sdtm:RelationShip ;
    cosmos_sdtm:linkingPhrase <https://www.cdisc.org/cosmos/sdtm_v1.0/LinkingPhraseEnum#is%20the%20result%20of%20the%20test%20in> ;
    cosmos_sdtm:object "EGTESTCD" ;
    cosmos_sdtm:predicateTerm <https://www.cdisc.org/cosmos/sdtm_v1.0/PredicateTermEnum#IS_RESULT_OF> ;
    cosmos_sdtm:subject "EGSTRESC" .

<https://w3id.org/cdisc/cosmos/dss/EG/QTSB/EGSTRESN/relationship> a cosmos_sdtm:RelationShip ;
    cosmos_sdtm:linkingPhrase <https://www.cdisc.org/cosmos/sdtm_v1.0/LinkingPhraseEnum#is%20the%20result%20of%20the%20test%20in> ;
    cosmos_sdtm:object "EGTESTCD" ;
    cosmos_sdtm:predicateTerm <https://www.cdisc.org/cosmos/sdtm_v1.0/PredicateTermEnum#IS_RESULT_OF> ;
    cosmos_sdtm:subject "EGSTRESN" .

<https://w3id.org/cdisc/cosmos/dss/EG/QTSB/EGSTRESU/assignedTerm> a cosmos_sdtm:AssignedTerm ;
    cosmos_sdtm:conceptId NCIT:C41140 ;
    cosmos_sdtm:value "ms" .

<https://w3id.org/cdisc/cosmos/dss/EG/QTSB/EGSTRESU/relationship> a cosmos_sdtm:RelationShip ;
    cosmos_sdtm:linkingPhrase <https://www.cdisc.org/cosmos/sdtm_v1.0/LinkingPhraseEnum#is%20the%20unit%20for%20the%20value%20in> ;
    cosmos_sdtm:object "EGSTRESN" ;
    cosmos_sdtm:predicateTerm <https://www.cdisc.org/cosmos/sdtm_v1.0/PredicateTermEnum#IS_UNIT_FOR> ;
    cosmos_sdtm:subject "EGSTRESU" .

<https://w3id.org/cdisc/cosmos/dss/EG/QTSB/EGTEST/assignedTerm> a cosmos_sdtm:AssignedTerm ;
    cosmos_sdtm:conceptId NCIT:C117788 ;
    cosmos_sdtm:value "QT Interval, Single Beat" .

<https://w3id.org/cdisc/cosmos/dss/EG/QTSB/EGTEST/relationship> a cosmos_sdtm:RelationShip ;
    cosmos_sdtm:linkingPhrase <https://www.cdisc.org/cosmos/sdtm_v1.0/LinkingPhraseEnum#decodes%20the%20value%20in> ;
    cosmos_sdtm:object "EGTESTCD" ;
    cosmos_sdtm:predicateTerm <https://www.cdisc.org/cosmos/sdtm_v1.0/PredicateTermEnum#DECODES> ;
    cosmos_sdtm:subject "EGTEST" .

<https://w3id.org/cdisc/cosmos/dss/EG/QTSB/EGTESTCD/assignedTerm> a cosmos_sdtm:AssignedTerm ;
    cosmos_sdtm:conceptId NCIT:C117788 ;
    cosmos_sdtm:value "QTSB" .

<https://w3id.org/cdisc/cosmos/dss/EG/QTSB/EGTESTCD/relationship> a cosmos_sdtm:RelationShip ;
    cosmos_sdtm:linkingPhrase <https://www.cdisc.org/cosmos/sdtm_v1.0/LinkingPhraseEnum#is%20the%20code%20for%20the%20value%20in> ;
    cosmos_sdtm:object "EGTEST" ;
    cosmos_sdtm:predicateTerm <https://www.cdisc.org/cosmos/sdtm_v1.0/PredicateTermEnum#IS_DECODED_BY> ;
    cosmos_sdtm:subject "EGTESTCD" .

<https://w3id.org/cdisc/cosmos/dss/EG/RHYNOS/EGCAT/assignedTerm> a cosmos_sdtm:AssignedTerm ;
    cosmos_sdtm:value "FINDING" .

<https://w3id.org/cdisc/cosmos/dss/EG/RHYNOS/EGCAT/relationship> a cosmos_sdtm:RelationShip ;
    cosmos_sdtm:linkingPhrase <https://www.cdisc.org/cosmos/sdtm_v1.0/LinkingPhraseEnum#groups%20values%20in> ;
    cosmos_sdtm:object "EGTESTCD" ;
    cosmos_sdtm:predicateTerm <https://www.cdisc.org/cosmos/sdtm_v1.0/PredicateTermEnum#GROUPS> ;
    cosmos_sdtm:subject "EGCAT" .

<https://w3id.org/cdisc/cosmos/dss/EG/RHYNOS/EGDTC/relationship> a cosmos_sdtm:RelationShip ;
    cosmos_sdtm:linkingPhrase <https://www.cdisc.org/cosmos/sdtm_v1.0/LinkingPhraseEnum#is%20the%20date%20of%20occurrence%20for> ;
    cosmos_sdtm:object "EGTESTCD" ;
    cosmos_sdtm:predicateTerm <https://www.cdisc.org/cosmos/sdtm_v1.0/PredicateTermEnum#IS_TIMING_FOR> ;
    cosmos_sdtm:subject "EGDTC" .

<https://w3id.org/cdisc/cosmos/dss/EG/RHYNOS/EGEVAL/relationship> a cosmos_sdtm:RelationShip ;
    cosmos_sdtm:linkingPhrase <https://www.cdisc.org/cosmos/sdtm_v1.0/LinkingPhraseEnum#is%20the%20role%20of%20the%20assessor%20who%20performed%20the%20test%20in> ;
    cosmos_sdtm:object "EGTESTCD" ;
    cosmos_sdtm:predicateTerm <https://www.cdisc.org/cosmos/sdtm_v1.0/PredicateTermEnum#PERFORMS> ;
    cosmos_sdtm:subject "EGEVAL" .

<https://w3id.org/cdisc/cosmos/dss/EG/RHYNOS/EGMETHOD/relationship> a cosmos_sdtm:RelationShip ;
    cosmos_sdtm:linkingPhrase <https://www.cdisc.org/cosmos/sdtm_v1.0/LinkingPhraseEnum#is%20the%20method%20for%20the%20test%20in> ;
    cosmos_sdtm:object "EGTESTCD" ;
    cosmos_sdtm:predicateTerm <https://www.cdisc.org/cosmos/sdtm_v1.0/PredicateTermEnum#SPECIFIES> ;
    cosmos_sdtm:subject "EGMETHOD" .

<https://w3id.org/cdisc/cosmos/dss/EG/RHYNOS/EGORRES/relationship> a cosmos_sdtm:RelationShip ;
    cosmos_sdtm:linkingPhrase <https://www.cdisc.org/cosmos/sdtm_v1.0/LinkingPhraseEnum#is%20the%20result%20of%20the%20test%20in> ;
    cosmos_sdtm:object "EGTESTCD" ;
    cosmos_sdtm:predicateTerm <https://www.cdisc.org/cosmos/sdtm_v1.0/PredicateTermEnum#IS_RESULT_OF> ;
    cosmos_sdtm:subject "EGORRES" .

<https://w3id.org/cdisc/cosmos/dss/EG/RHYNOS/EGPOS/relationship> a cosmos_sdtm:RelationShip ;
    cosmos_sdtm:linkingPhrase <https://www.cdisc.org/cosmos/sdtm_v1.0/LinkingPhraseEnum#was%20the%20subject%20position%20during%20performance%20of%20the%20test%20in> ;
    cosmos_sdtm:object "EGTESTCD" ;
    cosmos_sdtm:predicateTerm <https://www.cdisc.org/cosmos/sdtm_v1.0/PredicateTermEnum#IS_SUBJECT_STATE_FOR> ;
    cosmos_sdtm:subject "EGPOS" .

<https://w3id.org/cdisc/cosmos/dss/EG/RHYNOS/EGSTRESC/relationship> a cosmos_sdtm:RelationShip ;
    cosmos_sdtm:linkingPhrase <https://www.cdisc.org/cosmos/sdtm_v1.0/LinkingPhraseEnum#is%20the%20result%20of%20the%20test%20in> ;
    cosmos_sdtm:object "EGTESTCD" ;
    cosmos_sdtm:predicateTerm <https://www.cdisc.org/cosmos/sdtm_v1.0/PredicateTermEnum#IS_RESULT_OF> ;
    cosmos_sdtm:subject "EGSTRESC" .

<https://w3id.org/cdisc/cosmos/dss/EG/RHYNOS/EGTEST/assignedTerm> a cosmos_sdtm:AssignedTerm ;
    cosmos_sdtm:conceptId NCIT:C111307 ;
    cosmos_sdtm:value "Rhythm Not Otherwise Specified" .

<https://w3id.org/cdisc/cosmos/dss/EG/RHYNOS/EGTEST/relationship> a cosmos_sdtm:RelationShip ;
    cosmos_sdtm:linkingPhrase <https://www.cdisc.org/cosmos/sdtm_v1.0/LinkingPhraseEnum#decodes%20the%20value%20in> ;
    cosmos_sdtm:object "EGTESTCD" ;
    cosmos_sdtm:predicateTerm <https://www.cdisc.org/cosmos/sdtm_v1.0/PredicateTermEnum#DECODES> ;
    cosmos_sdtm:subject "EGTEST" .

<https://w3id.org/cdisc/cosmos/dss/EG/RHYNOS/EGTESTCD/assignedTerm> a cosmos_sdtm:AssignedTerm ;
    cosmos_sdtm:conceptId NCIT:C111307 ;
    cosmos_sdtm:value "RHYNOS" .

<https://w3id.org/cdisc/cosmos/dss/EG/RHYNOS/EGTESTCD/relationship> a cosmos_sdtm:RelationShip ;
    cosmos_sdtm:linkingPhrase <https://www.cdisc.org/cosmos/sdtm_v1.0/LinkingPhraseEnum#is%20the%20code%20for%20the%20value%20in> ;
    cosmos_sdtm:object "EGTEST" ;
    cosmos_sdtm:predicateTerm <https://www.cdisc.org/cosmos/sdtm_v1.0/PredicateTermEnum#IS_DECODED_BY> ;
    cosmos_sdtm:subject "EGTESTCD" .

<https://w3id.org/cdisc/cosmos/dss/EG/RRAG/EGCAT/assignedTerm> a cosmos_sdtm:AssignedTerm ;
    cosmos_sdtm:value "INTERVAL" .

<https://w3id.org/cdisc/cosmos/dss/EG/RRAG/EGCAT/relationship> a cosmos_sdtm:RelationShip ;
    cosmos_sdtm:linkingPhrase <https://www.cdisc.org/cosmos/sdtm_v1.0/LinkingPhraseEnum#groups%20values%20in> ;
    cosmos_sdtm:object "EGTESTCD" ;
    cosmos_sdtm:predicateTerm <https://www.cdisc.org/cosmos/sdtm_v1.0/PredicateTermEnum#GROUPS> ;
    cosmos_sdtm:subject "EGCAT" .

<https://w3id.org/cdisc/cosmos/dss/EG/RRAG/EGDTC/relationship> a cosmos_sdtm:RelationShip ;
    cosmos_sdtm:linkingPhrase <https://www.cdisc.org/cosmos/sdtm_v1.0/LinkingPhraseEnum#is%20the%20date%20of%20occurrence%20for> ;
    cosmos_sdtm:object "EGTESTCD" ;
    cosmos_sdtm:predicateTerm <https://www.cdisc.org/cosmos/sdtm_v1.0/PredicateTermEnum#IS_TIMING_FOR> ;
    cosmos_sdtm:subject "EGDTC" .

<https://w3id.org/cdisc/cosmos/dss/EG/RRAG/EGENDTC/relationship> a cosmos_sdtm:RelationShip ;
    cosmos_sdtm:linkingPhrase <https://www.cdisc.org/cosmos/sdtm_v1.0/LinkingPhraseEnum#is%20the%20end%20date%20for> ;
    cosmos_sdtm:object "EGTESTCD" ;
    cosmos_sdtm:predicateTerm <https://www.cdisc.org/cosmos/sdtm_v1.0/PredicateTermEnum#IS_TIMING_FOR> ;
    cosmos_sdtm:subject "EGENDTC" .

<https://w3id.org/cdisc/cosmos/dss/EG/RRAG/EGEVAL/relationship> a cosmos_sdtm:RelationShip ;
    cosmos_sdtm:linkingPhrase <https://www.cdisc.org/cosmos/sdtm_v1.0/LinkingPhraseEnum#is%20the%20role%20of%20the%20assessor%20who%20performed%20the%20test%20in> ;
    cosmos_sdtm:object "EGTESTCD" ;
    cosmos_sdtm:predicateTerm <https://www.cdisc.org/cosmos/sdtm_v1.0/PredicateTermEnum#PERFORMS> ;
    cosmos_sdtm:subject "EGEVAL" .

<https://w3id.org/cdisc/cosmos/dss/EG/RRAG/EGMETHOD/relationship> a cosmos_sdtm:RelationShip ;
    cosmos_sdtm:linkingPhrase <https://www.cdisc.org/cosmos/sdtm_v1.0/LinkingPhraseEnum#is%20the%20method%20for%20the%20test%20in> ;
    cosmos_sdtm:object "EGTESTCD" ;
    cosmos_sdtm:predicateTerm <https://www.cdisc.org/cosmos/sdtm_v1.0/PredicateTermEnum#SPECIFIES> ;
    cosmos_sdtm:subject "EGMETHOD" .

<https://w3id.org/cdisc/cosmos/dss/EG/RRAG/EGORRES/relationship> a cosmos_sdtm:RelationShip ;
    cosmos_sdtm:linkingPhrase <https://www.cdisc.org/cosmos/sdtm_v1.0/LinkingPhraseEnum#is%20the%20result%20of%20the%20test%20in> ;
    cosmos_sdtm:object "EGTESTCD" ;
    cosmos_sdtm:predicateTerm <https://www.cdisc.org/cosmos/sdtm_v1.0/PredicateTermEnum#IS_RESULT_OF> ;
    cosmos_sdtm:subject "EGORRES" .

<https://w3id.org/cdisc/cosmos/dss/EG/RRAG/EGORRESU/relationship> a cosmos_sdtm:RelationShip ;
    cosmos_sdtm:linkingPhrase <https://www.cdisc.org/cosmos/sdtm_v1.0/LinkingPhraseEnum#is%20the%20unit%20for%20the%20value%20in> ;
    cosmos_sdtm:object "EGORRES" ;
    cosmos_sdtm:predicateTerm <https://www.cdisc.org/cosmos/sdtm_v1.0/PredicateTermEnum#IS_UNIT_FOR> ;
    cosmos_sdtm:subject "EGORRESU" .

<https://w3id.org/cdisc/cosmos/dss/EG/RRAG/EGPOS/relationship> a cosmos_sdtm:RelationShip ;
    cosmos_sdtm:linkingPhrase <https://www.cdisc.org/cosmos/sdtm_v1.0/LinkingPhraseEnum#was%20the%20subject%20position%20during%20performance%20of%20the%20test%20in> ;
    cosmos_sdtm:object "EGTESTCD" ;
    cosmos_sdtm:predicateTerm <https://www.cdisc.org/cosmos/sdtm_v1.0/PredicateTermEnum#IS_SUBJECT_STATE_FOR> ;
    cosmos_sdtm:subject "EGPOS" .

<https://w3id.org/cdisc/cosmos/dss/EG/RRAG/EGSTRESC/relationship> a cosmos_sdtm:RelationShip ;
    cosmos_sdtm:linkingPhrase <https://www.cdisc.org/cosmos/sdtm_v1.0/LinkingPhraseEnum#is%20the%20result%20of%20the%20test%20in> ;
    cosmos_sdtm:object "EGTESTCD" ;
    cosmos_sdtm:predicateTerm <https://www.cdisc.org/cosmos/sdtm_v1.0/PredicateTermEnum#IS_RESULT_OF> ;
    cosmos_sdtm:subject "EGSTRESC" .

<https://w3id.org/cdisc/cosmos/dss/EG/RRAG/EGSTRESN/relationship> a cosmos_sdtm:RelationShip ;
    cosmos_sdtm:linkingPhrase <https://www.cdisc.org/cosmos/sdtm_v1.0/LinkingPhraseEnum#is%20the%20result%20of%20the%20test%20in> ;
    cosmos_sdtm:object "EGTESTCD" ;
    cosmos_sdtm:predicateTerm <https://www.cdisc.org/cosmos/sdtm_v1.0/PredicateTermEnum#IS_RESULT_OF> ;
    cosmos_sdtm:subject "EGSTRESN" .

<https://w3id.org/cdisc/cosmos/dss/EG/RRAG/EGSTRESU/assignedTerm> a cosmos_sdtm:AssignedTerm ;
    cosmos_sdtm:conceptId NCIT:C41140 ;
    cosmos_sdtm:value "ms" .

<https://w3id.org/cdisc/cosmos/dss/EG/RRAG/EGSTRESU/relationship> a cosmos_sdtm:RelationShip ;
    cosmos_sdtm:linkingPhrase <https://www.cdisc.org/cosmos/sdtm_v1.0/LinkingPhraseEnum#is%20the%20unit%20for%20the%20value%20in> ;
    cosmos_sdtm:object "EGSTRESN" ;
    cosmos_sdtm:predicateTerm <https://www.cdisc.org/cosmos/sdtm_v1.0/PredicateTermEnum#IS_UNIT_FOR> ;
    cosmos_sdtm:subject "EGSTRESU" .

<https://w3id.org/cdisc/cosmos/dss/EG/RRAG/EGTEST/assignedTerm> a cosmos_sdtm:AssignedTerm ;
    cosmos_sdtm:conceptId NCIT:C117791 ;
    cosmos_sdtm:value "RR Interval, Aggregate" .

<https://w3id.org/cdisc/cosmos/dss/EG/RRAG/EGTEST/relationship> a cosmos_sdtm:RelationShip ;
    cosmos_sdtm:linkingPhrase <https://www.cdisc.org/cosmos/sdtm_v1.0/LinkingPhraseEnum#decodes%20the%20value%20in> ;
    cosmos_sdtm:object "EGTESTCD" ;
    cosmos_sdtm:predicateTerm <https://www.cdisc.org/cosmos/sdtm_v1.0/PredicateTermEnum#DECODES> ;
    cosmos_sdtm:subject "EGTEST" .

<https://w3id.org/cdisc/cosmos/dss/EG/RRAG/EGTESTCD/assignedTerm> a cosmos_sdtm:AssignedTerm ;
    cosmos_sdtm:conceptId NCIT:C117791 ;
    cosmos_sdtm:value "RRAG" .

<https://w3id.org/cdisc/cosmos/dss/EG/RRAG/EGTESTCD/relationship> a cosmos_sdtm:RelationShip ;
    cosmos_sdtm:linkingPhrase <https://www.cdisc.org/cosmos/sdtm_v1.0/LinkingPhraseEnum#is%20the%20code%20for%20the%20value%20in> ;
    cosmos_sdtm:object "EGTEST" ;
    cosmos_sdtm:predicateTerm <https://www.cdisc.org/cosmos/sdtm_v1.0/PredicateTermEnum#IS_DECODED_BY> ;
    cosmos_sdtm:subject "EGTESTCD" .

<https://w3id.org/cdisc/cosmos/dss/EG/RRSM/EGCAT/assignedTerm> a cosmos_sdtm:AssignedTerm ;
    cosmos_sdtm:value "INTERVAL" .

<https://w3id.org/cdisc/cosmos/dss/EG/RRSM/EGCAT/relationship> a cosmos_sdtm:RelationShip ;
    cosmos_sdtm:linkingPhrase <https://www.cdisc.org/cosmos/sdtm_v1.0/LinkingPhraseEnum#groups%20values%20in> ;
    cosmos_sdtm:object "EGTESTCD" ;
    cosmos_sdtm:predicateTerm <https://www.cdisc.org/cosmos/sdtm_v1.0/PredicateTermEnum#GROUPS> ;
    cosmos_sdtm:subject "EGCAT" .

<https://w3id.org/cdisc/cosmos/dss/EG/RRSM/EGDTC/relationship> a cosmos_sdtm:RelationShip ;
    cosmos_sdtm:linkingPhrase <https://www.cdisc.org/cosmos/sdtm_v1.0/LinkingPhraseEnum#is%20the%20date%20of%20occurrence%20for> ;
    cosmos_sdtm:object "EGTESTCD" ;
    cosmos_sdtm:predicateTerm <https://www.cdisc.org/cosmos/sdtm_v1.0/PredicateTermEnum#IS_TIMING_FOR> ;
    cosmos_sdtm:subject "EGDTC" .

<https://w3id.org/cdisc/cosmos/dss/EG/RRSM/EGENDTC/relationship> a cosmos_sdtm:RelationShip ;
    cosmos_sdtm:linkingPhrase <https://www.cdisc.org/cosmos/sdtm_v1.0/LinkingPhraseEnum#is%20the%20end%20date%20for> ;
    cosmos_sdtm:object "EGTESTCD" ;
