@prefix NCIT: <http://purl.obolibrary.org/obo/NCIT_> .
@prefix cosmos_sdtm: <https://www.cdisc.org/cosmos/sdtm_v1.0/> .
@prefix dcterms: <http://purl.org/dc/terms/> .
@prefix owl: <http://www.w3.org/2002/07/owl#> .
@prefix rdf: <http://www.w3.org/1999/02/22-rdf-syntax-ns#> .
@prefix rdfs: <http://www.w3.org/2000/01/rdf-schema#> .
@prefix skos: <http://www.w3.org/2004/02/skos/core#> .
@prefix xsd: <http://www.w3.org/2001/XMLSchema#> .

<https://w3id.org/cdisc/cosmos/dss/RS> a owl:Ontology ;
    rdfs:label "CDISC COSMoS Dataset Specializations, RS (instances)" ;
    dcterms:identifier "2026-07-14" ;
    dcterms:source <https://raw.githubusercontent.com/cdisc-org/COSMoS/031429b1d14823721991cd23ee88a11616686ce3/export/cdisc_sdtm_dataset_specializations_latest.csv> ;
    rdfs:comment "Dataset Specialization instances for domain RS, rendered from the pinned COSMoS export. Variable order is the export's row order, carried as rdf:_n membership beside the variables edges. length and significantDigits are cast from the export's decimal form to integer; packageType is not in the export and is set to the enum's single value. A biomedicalConceptId or dataElementConceptId that resolves to no node is carried as the published string. The concept nodes those edges reach are declared in the Biomedical Concept instance graph, which is not imported. Draft - not a normative CDISC artifact." ;
    owl:imports <https://w3id.org/cdisc/cosmos/sdtm/> ;
    owl:versionIRI <https://w3id.org/cdisc/cosmos/dss/RS/0.4.0> ;
    owl:versionInfo "v0.4.0" .

<https://w3id.org/cdisc/cosmos/dss/RS/AIMS0101> a cosmos_sdtm:SDTMGroup ;
    dcterms:identifier "AIMS0101" ;
    rdf:_1 <https://w3id.org/cdisc/cosmos/dss/RS/AIMS0101/RSTESTCD> ;
    rdf:_2 <https://w3id.org/cdisc/cosmos/dss/RS/AIMS0101/RSTEST> ;
    rdf:_3 <https://w3id.org/cdisc/cosmos/dss/RS/AIMS0101/RSCAT> ;
    rdf:_4 <https://w3id.org/cdisc/cosmos/dss/RS/AIMS0101/RSSCAT> ;
    rdf:_5 <https://w3id.org/cdisc/cosmos/dss/RS/AIMS0101/RSORRES> ;
    rdf:_6 <https://w3id.org/cdisc/cosmos/dss/RS/AIMS0101/RSSTRESC> ;
    rdf:_7 <https://w3id.org/cdisc/cosmos/dss/RS/AIMS0101/RSSTRESN> ;
    rdf:_8 <https://w3id.org/cdisc/cosmos/dss/RS/AIMS0101/RSDTC> ;
    cosmos_sdtm:biomedicalConceptId NCIT:C102034 ;
    cosmos_sdtm:domain "RS" ;
    cosmos_sdtm:packageDate "2026-05-26"^^xsd:date ;
    cosmos_sdtm:packageType <https://www.cdisc.org/cosmos/sdtm_v1.0/PackageTypeEnum#sdtm> ;
    cosmos_sdtm:sdtmigStartVersion "3-2" ;
    cosmos_sdtm:shortName "AIMS01-Muscles of Facial Expression" ;
    cosmos_sdtm:source "RS.RSTESTCD" ;
    cosmos_sdtm:variables <https://w3id.org/cdisc/cosmos/dss/RS/AIMS0101/RSCAT>,
        <https://w3id.org/cdisc/cosmos/dss/RS/AIMS0101/RSDTC>,
        <https://w3id.org/cdisc/cosmos/dss/RS/AIMS0101/RSORRES>,
        <https://w3id.org/cdisc/cosmos/dss/RS/AIMS0101/RSSCAT>,
        <https://w3id.org/cdisc/cosmos/dss/RS/AIMS0101/RSSTRESC>,
        <https://w3id.org/cdisc/cosmos/dss/RS/AIMS0101/RSSTRESN>,
        <https://w3id.org/cdisc/cosmos/dss/RS/AIMS0101/RSTEST>,
        <https://w3id.org/cdisc/cosmos/dss/RS/AIMS0101/RSTESTCD> .

<https://w3id.org/cdisc/cosmos/dss/RS/AIMS0102> a cosmos_sdtm:SDTMGroup ;
    dcterms:identifier "AIMS0102" ;
    rdf:_1 <https://w3id.org/cdisc/cosmos/dss/RS/AIMS0102/RSTESTCD> ;
    rdf:_2 <https://w3id.org/cdisc/cosmos/dss/RS/AIMS0102/RSTEST> ;
    rdf:_3 <https://w3id.org/cdisc/cosmos/dss/RS/AIMS0102/RSCAT> ;
    rdf:_4 <https://w3id.org/cdisc/cosmos/dss/RS/AIMS0102/RSSCAT> ;
    rdf:_5 <https://w3id.org/cdisc/cosmos/dss/RS/AIMS0102/RSORRES> ;
    rdf:_6 <https://w3id.org/cdisc/cosmos/dss/RS/AIMS0102/RSSTRESC> ;
    rdf:_7 <https://w3id.org/cdisc/cosmos/dss/RS/AIMS0102/RSSTRESN> ;
    rdf:_8 <https://w3id.org/cdisc/cosmos/dss/RS/AIMS0102/RSDTC> ;
    cosmos_sdtm:biomedicalConceptId NCIT:C102035 ;
    cosmos_sdtm:domain "RS" ;
    cosmos_sdtm:packageDate "2026-05-26"^^xsd:date ;
    cosmos_sdtm:packageType <https://www.cdisc.org/cosmos/sdtm_v1.0/PackageTypeEnum#sdtm> ;
    cosmos_sdtm:sdtmigStartVersion "3-2" ;
    cosmos_sdtm:shortName "AIMS01-Lips and Perioral Area" ;
    cosmos_sdtm:source "RS.RSTESTCD" ;
    cosmos_sdtm:variables <https://w3id.org/cdisc/cosmos/dss/RS/AIMS0102/RSCAT>,
        <https://w3id.org/cdisc/cosmos/dss/RS/AIMS0102/RSDTC>,
        <https://w3id.org/cdisc/cosmos/dss/RS/AIMS0102/RSORRES>,
        <https://w3id.org/cdisc/cosmos/dss/RS/AIMS0102/RSSCAT>,
        <https://w3id.org/cdisc/cosmos/dss/RS/AIMS0102/RSSTRESC>,
        <https://w3id.org/cdisc/cosmos/dss/RS/AIMS0102/RSSTRESN>,
        <https://w3id.org/cdisc/cosmos/dss/RS/AIMS0102/RSTEST>,
        <https://w3id.org/cdisc/cosmos/dss/RS/AIMS0102/RSTESTCD> .

<https://w3id.org/cdisc/cosmos/dss/RS/AIMS0103> a cosmos_sdtm:SDTMGroup ;
    dcterms:identifier "AIMS0103" ;
    rdf:_1 <https://w3id.org/cdisc/cosmos/dss/RS/AIMS0103/RSTESTCD> ;
    rdf:_2 <https://w3id.org/cdisc/cosmos/dss/RS/AIMS0103/RSTEST> ;
    rdf:_3 <https://w3id.org/cdisc/cosmos/dss/RS/AIMS0103/RSCAT> ;
    rdf:_4 <https://w3id.org/cdisc/cosmos/dss/RS/AIMS0103/RSSCAT> ;
    rdf:_5 <https://w3id.org/cdisc/cosmos/dss/RS/AIMS0103/RSORRES> ;
    rdf:_6 <https://w3id.org/cdisc/cosmos/dss/RS/AIMS0103/RSSTRESC> ;
    rdf:_7 <https://w3id.org/cdisc/cosmos/dss/RS/AIMS0103/RSSTRESN> ;
    rdf:_8 <https://w3id.org/cdisc/cosmos/dss/RS/AIMS0103/RSDTC> ;
    cosmos_sdtm:biomedicalConceptId NCIT:C102036 ;
    cosmos_sdtm:domain "RS" ;
    cosmos_sdtm:packageDate "2026-05-26"^^xsd:date ;
    cosmos_sdtm:packageType <https://www.cdisc.org/cosmos/sdtm_v1.0/PackageTypeEnum#sdtm> ;
    cosmos_sdtm:sdtmigStartVersion "3-2" ;
    cosmos_sdtm:shortName "AIMS01-Jaw" ;
    cosmos_sdtm:source "RS.RSTESTCD" ;
    cosmos_sdtm:variables <https://w3id.org/cdisc/cosmos/dss/RS/AIMS0103/RSCAT>,
        <https://w3id.org/cdisc/cosmos/dss/RS/AIMS0103/RSDTC>,
        <https://w3id.org/cdisc/cosmos/dss/RS/AIMS0103/RSORRES>,
        <https://w3id.org/cdisc/cosmos/dss/RS/AIMS0103/RSSCAT>,
        <https://w3id.org/cdisc/cosmos/dss/RS/AIMS0103/RSSTRESC>,
        <https://w3id.org/cdisc/cosmos/dss/RS/AIMS0103/RSSTRESN>,
        <https://w3id.org/cdisc/cosmos/dss/RS/AIMS0103/RSTEST>,
        <https://w3id.org/cdisc/cosmos/dss/RS/AIMS0103/RSTESTCD> .

<https://w3id.org/cdisc/cosmos/dss/RS/AIMS0104> a cosmos_sdtm:SDTMGroup ;
    dcterms:identifier "AIMS0104" ;
    rdf:_1 <https://w3id.org/cdisc/cosmos/dss/RS/AIMS0104/RSTESTCD> ;
    rdf:_2 <https://w3id.org/cdisc/cosmos/dss/RS/AIMS0104/RSTEST> ;
    rdf:_3 <https://w3id.org/cdisc/cosmos/dss/RS/AIMS0104/RSCAT> ;
    rdf:_4 <https://w3id.org/cdisc/cosmos/dss/RS/AIMS0104/RSSCAT> ;
    rdf:_5 <https://w3id.org/cdisc/cosmos/dss/RS/AIMS0104/RSORRES> ;
    rdf:_6 <https://w3id.org/cdisc/cosmos/dss/RS/AIMS0104/RSSTRESC> ;
    rdf:_7 <https://w3id.org/cdisc/cosmos/dss/RS/AIMS0104/RSSTRESN> ;
    rdf:_8 <https://w3id.org/cdisc/cosmos/dss/RS/AIMS0104/RSDTC> ;
    cosmos_sdtm:biomedicalConceptId NCIT:C102037 ;
    cosmos_sdtm:domain "RS" ;
    cosmos_sdtm:packageDate "2026-05-26"^^xsd:date ;
    cosmos_sdtm:packageType <https://www.cdisc.org/cosmos/sdtm_v1.0/PackageTypeEnum#sdtm> ;
    cosmos_sdtm:sdtmigStartVersion "3-2" ;
    cosmos_sdtm:shortName "AIMS01-Tongue" ;
    cosmos_sdtm:source "RS.RSTESTCD" ;
    cosmos_sdtm:variables <https://w3id.org/cdisc/cosmos/dss/RS/AIMS0104/RSCAT>,
        <https://w3id.org/cdisc/cosmos/dss/RS/AIMS0104/RSDTC>,
        <https://w3id.org/cdisc/cosmos/dss/RS/AIMS0104/RSORRES>,
        <https://w3id.org/cdisc/cosmos/dss/RS/AIMS0104/RSSCAT>,
        <https://w3id.org/cdisc/cosmos/dss/RS/AIMS0104/RSSTRESC>,
        <https://w3id.org/cdisc/cosmos/dss/RS/AIMS0104/RSSTRESN>,
        <https://w3id.org/cdisc/cosmos/dss/RS/AIMS0104/RSTEST>,
        <https://w3id.org/cdisc/cosmos/dss/RS/AIMS0104/RSTESTCD> .

<https://w3id.org/cdisc/cosmos/dss/RS/AIMS0105> a cosmos_sdtm:SDTMGroup ;
    dcterms:identifier "AIMS0105" ;
    rdf:_1 <https://w3id.org/cdisc/cosmos/dss/RS/AIMS0105/RSTESTCD> ;
    rdf:_2 <https://w3id.org/cdisc/cosmos/dss/RS/AIMS0105/RSTEST> ;
    rdf:_3 <https://w3id.org/cdisc/cosmos/dss/RS/AIMS0105/RSCAT> ;
    rdf:_4 <https://w3id.org/cdisc/cosmos/dss/RS/AIMS0105/RSSCAT> ;
    rdf:_5 <https://w3id.org/cdisc/cosmos/dss/RS/AIMS0105/RSORRES> ;
    rdf:_6 <https://w3id.org/cdisc/cosmos/dss/RS/AIMS0105/RSSTRESC> ;
    rdf:_7 <https://w3id.org/cdisc/cosmos/dss/RS/AIMS0105/RSSTRESN> ;
    rdf:_8 <https://w3id.org/cdisc/cosmos/dss/RS/AIMS0105/RSDTC> ;
    cosmos_sdtm:biomedicalConceptId NCIT:C102038 ;
    cosmos_sdtm:domain "RS" ;
    cosmos_sdtm:packageDate "2026-05-26"^^xsd:date ;
    cosmos_sdtm:packageType <https://www.cdisc.org/cosmos/sdtm_v1.0/PackageTypeEnum#sdtm> ;
    cosmos_sdtm:sdtmigStartVersion "3-2" ;
    cosmos_sdtm:shortName "AIMS01-Upper Extremities" ;
    cosmos_sdtm:source "RS.RSTESTCD" ;
    cosmos_sdtm:variables <https://w3id.org/cdisc/cosmos/dss/RS/AIMS0105/RSCAT>,
        <https://w3id.org/cdisc/cosmos/dss/RS/AIMS0105/RSDTC>,
        <https://w3id.org/cdisc/cosmos/dss/RS/AIMS0105/RSORRES>,
        <https://w3id.org/cdisc/cosmos/dss/RS/AIMS0105/RSSCAT>,
        <https://w3id.org/cdisc/cosmos/dss/RS/AIMS0105/RSSTRESC>,
        <https://w3id.org/cdisc/cosmos/dss/RS/AIMS0105/RSSTRESN>,
        <https://w3id.org/cdisc/cosmos/dss/RS/AIMS0105/RSTEST>,
        <https://w3id.org/cdisc/cosmos/dss/RS/AIMS0105/RSTESTCD> .

<https://w3id.org/cdisc/cosmos/dss/RS/AIMS0106> a cosmos_sdtm:SDTMGroup ;
    dcterms:identifier "AIMS0106" ;
    rdf:_1 <https://w3id.org/cdisc/cosmos/dss/RS/AIMS0106/RSTESTCD> ;
    rdf:_2 <https://w3id.org/cdisc/cosmos/dss/RS/AIMS0106/RSTEST> ;
    rdf:_3 <https://w3id.org/cdisc/cosmos/dss/RS/AIMS0106/RSCAT> ;
    rdf:_4 <https://w3id.org/cdisc/cosmos/dss/RS/AIMS0106/RSSCAT> ;
    rdf:_5 <https://w3id.org/cdisc/cosmos/dss/RS/AIMS0106/RSORRES> ;
    rdf:_6 <https://w3id.org/cdisc/cosmos/dss/RS/AIMS0106/RSSTRESC> ;
    rdf:_7 <https://w3id.org/cdisc/cosmos/dss/RS/AIMS0106/RSSTRESN> ;
    rdf:_8 <https://w3id.org/cdisc/cosmos/dss/RS/AIMS0106/RSDTC> ;
    cosmos_sdtm:biomedicalConceptId NCIT:C102039 ;
    cosmos_sdtm:domain "RS" ;
    cosmos_sdtm:packageDate "2026-05-26"^^xsd:date ;
    cosmos_sdtm:packageType <https://www.cdisc.org/cosmos/sdtm_v1.0/PackageTypeEnum#sdtm> ;
    cosmos_sdtm:sdtmigStartVersion "3-2" ;
    cosmos_sdtm:shortName "AIMS01-Lower Extremities" ;
    cosmos_sdtm:source "RS.RSTESTCD" ;
    cosmos_sdtm:variables <https://w3id.org/cdisc/cosmos/dss/RS/AIMS0106/RSCAT>,
        <https://w3id.org/cdisc/cosmos/dss/RS/AIMS0106/RSDTC>,
        <https://w3id.org/cdisc/cosmos/dss/RS/AIMS0106/RSORRES>,
        <https://w3id.org/cdisc/cosmos/dss/RS/AIMS0106/RSSCAT>,
        <https://w3id.org/cdisc/cosmos/dss/RS/AIMS0106/RSSTRESC>,
        <https://w3id.org/cdisc/cosmos/dss/RS/AIMS0106/RSSTRESN>,
        <https://w3id.org/cdisc/cosmos/dss/RS/AIMS0106/RSTEST>,
        <https://w3id.org/cdisc/cosmos/dss/RS/AIMS0106/RSTESTCD> .

<https://w3id.org/cdisc/cosmos/dss/RS/AIMS0107> a cosmos_sdtm:SDTMGroup ;
    dcterms:identifier "AIMS0107" ;
    rdf:_1 <https://w3id.org/cdisc/cosmos/dss/RS/AIMS0107/RSTESTCD> ;
    rdf:_2 <https://w3id.org/cdisc/cosmos/dss/RS/AIMS0107/RSTEST> ;
    rdf:_3 <https://w3id.org/cdisc/cosmos/dss/RS/AIMS0107/RSCAT> ;
    rdf:_4 <https://w3id.org/cdisc/cosmos/dss/RS/AIMS0107/RSSCAT> ;
    rdf:_5 <https://w3id.org/cdisc/cosmos/dss/RS/AIMS0107/RSORRES> ;
    rdf:_6 <https://w3id.org/cdisc/cosmos/dss/RS/AIMS0107/RSSTRESC> ;
    rdf:_7 <https://w3id.org/cdisc/cosmos/dss/RS/AIMS0107/RSSTRESN> ;
    rdf:_8 <https://w3id.org/cdisc/cosmos/dss/RS/AIMS0107/RSDTC> ;
    cosmos_sdtm:biomedicalConceptId NCIT:C102040 ;
    cosmos_sdtm:domain "RS" ;
    cosmos_sdtm:packageDate "2026-05-26"^^xsd:date ;
    cosmos_sdtm:packageType <https://www.cdisc.org/cosmos/sdtm_v1.0/PackageTypeEnum#sdtm> ;
    cosmos_sdtm:sdtmigStartVersion "3-2" ;
    cosmos_sdtm:shortName "AIMS01-Neck, Shoulders, Hips" ;
    cosmos_sdtm:source "RS.RSTESTCD" ;
    cosmos_sdtm:variables <https://w3id.org/cdisc/cosmos/dss/RS/AIMS0107/RSCAT>,
        <https://w3id.org/cdisc/cosmos/dss/RS/AIMS0107/RSDTC>,
        <https://w3id.org/cdisc/cosmos/dss/RS/AIMS0107/RSORRES>,
        <https://w3id.org/cdisc/cosmos/dss/RS/AIMS0107/RSSCAT>,
        <https://w3id.org/cdisc/cosmos/dss/RS/AIMS0107/RSSTRESC>,
        <https://w3id.org/cdisc/cosmos/dss/RS/AIMS0107/RSSTRESN>,
        <https://w3id.org/cdisc/cosmos/dss/RS/AIMS0107/RSTEST>,
        <https://w3id.org/cdisc/cosmos/dss/RS/AIMS0107/RSTESTCD> .

<https://w3id.org/cdisc/cosmos/dss/RS/AIMS0108> a cosmos_sdtm:SDTMGroup ;
    dcterms:identifier "AIMS0108" ;
    rdf:_1 <https://w3id.org/cdisc/cosmos/dss/RS/AIMS0108/RSTESTCD> ;
    rdf:_2 <https://w3id.org/cdisc/cosmos/dss/RS/AIMS0108/RSTEST> ;
    rdf:_3 <https://w3id.org/cdisc/cosmos/dss/RS/AIMS0108/RSCAT> ;
    rdf:_4 <https://w3id.org/cdisc/cosmos/dss/RS/AIMS0108/RSSCAT> ;
    rdf:_5 <https://w3id.org/cdisc/cosmos/dss/RS/AIMS0108/RSORRES> ;
    rdf:_6 <https://w3id.org/cdisc/cosmos/dss/RS/AIMS0108/RSSTRESC> ;
    rdf:_7 <https://w3id.org/cdisc/cosmos/dss/RS/AIMS0108/RSSTRESN> ;
    rdf:_8 <https://w3id.org/cdisc/cosmos/dss/RS/AIMS0108/RSDTC> ;
    cosmos_sdtm:biomedicalConceptId NCIT:C102041 ;
    cosmos_sdtm:domain "RS" ;
    cosmos_sdtm:packageDate "2026-05-26"^^xsd:date ;
    cosmos_sdtm:packageType <https://www.cdisc.org/cosmos/sdtm_v1.0/PackageTypeEnum#sdtm> ;
    cosmos_sdtm:sdtmigStartVersion "3-2" ;
    cosmos_sdtm:shortName "AIMS01-Severity of Abnormal Movements" ;
    cosmos_sdtm:source "RS.RSTESTCD" ;
    cosmos_sdtm:variables <https://w3id.org/cdisc/cosmos/dss/RS/AIMS0108/RSCAT>,
        <https://w3id.org/cdisc/cosmos/dss/RS/AIMS0108/RSDTC>,
        <https://w3id.org/cdisc/cosmos/dss/RS/AIMS0108/RSORRES>,
        <https://w3id.org/cdisc/cosmos/dss/RS/AIMS0108/RSSCAT>,
        <https://w3id.org/cdisc/cosmos/dss/RS/AIMS0108/RSSTRESC>,
        <https://w3id.org/cdisc/cosmos/dss/RS/AIMS0108/RSSTRESN>,
        <https://w3id.org/cdisc/cosmos/dss/RS/AIMS0108/RSTEST>,
        <https://w3id.org/cdisc/cosmos/dss/RS/AIMS0108/RSTESTCD> .

<https://w3id.org/cdisc/cosmos/dss/RS/AIMS0109> a cosmos_sdtm:SDTMGroup ;
    dcterms:identifier "AIMS0109" ;
    rdf:_1 <https://w3id.org/cdisc/cosmos/dss/RS/AIMS0109/RSTESTCD> ;
    rdf:_2 <https://w3id.org/cdisc/cosmos/dss/RS/AIMS0109/RSTEST> ;
    rdf:_3 <https://w3id.org/cdisc/cosmos/dss/RS/AIMS0109/RSCAT> ;
    rdf:_4 <https://w3id.org/cdisc/cosmos/dss/RS/AIMS0109/RSSCAT> ;
    rdf:_5 <https://w3id.org/cdisc/cosmos/dss/RS/AIMS0109/RSORRES> ;
    rdf:_6 <https://w3id.org/cdisc/cosmos/dss/RS/AIMS0109/RSSTRESC> ;
    rdf:_7 <https://w3id.org/cdisc/cosmos/dss/RS/AIMS0109/RSSTRESN> ;
    rdf:_8 <https://w3id.org/cdisc/cosmos/dss/RS/AIMS0109/RSDTC> ;
    cosmos_sdtm:biomedicalConceptId NCIT:C102042 ;
    cosmos_sdtm:domain "RS" ;
    cosmos_sdtm:packageDate "2026-05-26"^^xsd:date ;
    cosmos_sdtm:packageType <https://www.cdisc.org/cosmos/sdtm_v1.0/PackageTypeEnum#sdtm> ;
    cosmos_sdtm:sdtmigStartVersion "3-2" ;
    cosmos_sdtm:shortName "AIMS01-Incapacitation due Abn Movements" ;
    cosmos_sdtm:source "RS.RSTESTCD" ;
    cosmos_sdtm:variables <https://w3id.org/cdisc/cosmos/dss/RS/AIMS0109/RSCAT>,
        <https://w3id.org/cdisc/cosmos/dss/RS/AIMS0109/RSDTC>,
        <https://w3id.org/cdisc/cosmos/dss/RS/AIMS0109/RSORRES>,
        <https://w3id.org/cdisc/cosmos/dss/RS/AIMS0109/RSSCAT>,
        <https://w3id.org/cdisc/cosmos/dss/RS/AIMS0109/RSSTRESC>,
        <https://w3id.org/cdisc/cosmos/dss/RS/AIMS0109/RSSTRESN>,
        <https://w3id.org/cdisc/cosmos/dss/RS/AIMS0109/RSTEST>,
        <https://w3id.org/cdisc/cosmos/dss/RS/AIMS0109/RSTESTCD> .

<https://w3id.org/cdisc/cosmos/dss/RS/AIMS0110> a cosmos_sdtm:SDTMGroup ;
    dcterms:identifier "AIMS0110" ;
    rdf:_1 <https://w3id.org/cdisc/cosmos/dss/RS/AIMS0110/RSTESTCD> ;
    rdf:_2 <https://w3id.org/cdisc/cosmos/dss/RS/AIMS0110/RSTEST> ;
    rdf:_3 <https://w3id.org/cdisc/cosmos/dss/RS/AIMS0110/RSCAT> ;
    rdf:_4 <https://w3id.org/cdisc/cosmos/dss/RS/AIMS0110/RSSCAT> ;
    rdf:_5 <https://w3id.org/cdisc/cosmos/dss/RS/AIMS0110/RSORRES> ;
    rdf:_6 <https://w3id.org/cdisc/cosmos/dss/RS/AIMS0110/RSSTRESC> ;
    rdf:_7 <https://w3id.org/cdisc/cosmos/dss/RS/AIMS0110/RSSTRESN> ;
    rdf:_8 <https://w3id.org/cdisc/cosmos/dss/RS/AIMS0110/RSDTC> ;
    cosmos_sdtm:biomedicalConceptId NCIT:C102043 ;
    cosmos_sdtm:domain "RS" ;
    cosmos_sdtm:packageDate "2026-05-26"^^xsd:date ;
    cosmos_sdtm:packageType <https://www.cdisc.org/cosmos/sdtm_v1.0/PackageTypeEnum#sdtm> ;
    cosmos_sdtm:sdtmigStartVersion "3-2" ;
    cosmos_sdtm:shortName "AIMS01-Patient Awareness Abn Movements" ;
    cosmos_sdtm:source "RS.RSTESTCD" ;
    cosmos_sdtm:variables <https://w3id.org/cdisc/cosmos/dss/RS/AIMS0110/RSCAT>,
        <https://w3id.org/cdisc/cosmos/dss/RS/AIMS0110/RSDTC>,
        <https://w3id.org/cdisc/cosmos/dss/RS/AIMS0110/RSORRES>,
        <https://w3id.org/cdisc/cosmos/dss/RS/AIMS0110/RSSCAT>,
        <https://w3id.org/cdisc/cosmos/dss/RS/AIMS0110/RSSTRESC>,
        <https://w3id.org/cdisc/cosmos/dss/RS/AIMS0110/RSSTRESN>,
        <https://w3id.org/cdisc/cosmos/dss/RS/AIMS0110/RSTEST>,
        <https://w3id.org/cdisc/cosmos/dss/RS/AIMS0110/RSTESTCD> .

<https://w3id.org/cdisc/cosmos/dss/RS/AIMS0111> a cosmos_sdtm:SDTMGroup ;
    dcterms:identifier "AIMS0111" ;
    rdf:_1 <https://w3id.org/cdisc/cosmos/dss/RS/AIMS0111/RSTESTCD> ;
    rdf:_2 <https://w3id.org/cdisc/cosmos/dss/RS/AIMS0111/RSTEST> ;
    rdf:_3 <https://w3id.org/cdisc/cosmos/dss/RS/AIMS0111/RSCAT> ;
    rdf:_4 <https://w3id.org/cdisc/cosmos/dss/RS/AIMS0111/RSSCAT> ;
    rdf:_5 <https://w3id.org/cdisc/cosmos/dss/RS/AIMS0111/RSORRES> ;
    rdf:_6 <https://w3id.org/cdisc/cosmos/dss/RS/AIMS0111/RSSTRESC> ;
    rdf:_7 <https://w3id.org/cdisc/cosmos/dss/RS/AIMS0111/RSSTRESN> ;
    rdf:_8 <https://w3id.org/cdisc/cosmos/dss/RS/AIMS0111/RSDTC> ;
    cosmos_sdtm:biomedicalConceptId NCIT:C102044 ;
    cosmos_sdtm:domain "RS" ;
    cosmos_sdtm:packageDate "2026-05-26"^^xsd:date ;
    cosmos_sdtm:packageType <https://www.cdisc.org/cosmos/sdtm_v1.0/PackageTypeEnum#sdtm> ;
    cosmos_sdtm:sdtmigStartVersion "3-2" ;
    cosmos_sdtm:shortName "AIMS01-Current Problems Teeth/Dentures" ;
    cosmos_sdtm:source "RS.RSTESTCD" ;
    cosmos_sdtm:variables <https://w3id.org/cdisc/cosmos/dss/RS/AIMS0111/RSCAT>,
        <https://w3id.org/cdisc/cosmos/dss/RS/AIMS0111/RSDTC>,
        <https://w3id.org/cdisc/cosmos/dss/RS/AIMS0111/RSORRES>,
        <https://w3id.org/cdisc/cosmos/dss/RS/AIMS0111/RSSCAT>,
        <https://w3id.org/cdisc/cosmos/dss/RS/AIMS0111/RSSTRESC>,
        <https://w3id.org/cdisc/cosmos/dss/RS/AIMS0111/RSSTRESN>,
        <https://w3id.org/cdisc/cosmos/dss/RS/AIMS0111/RSTEST>,
        <https://w3id.org/cdisc/cosmos/dss/RS/AIMS0111/RSTESTCD> .

<https://w3id.org/cdisc/cosmos/dss/RS/AIMS0112> a cosmos_sdtm:SDTMGroup ;
    dcterms:identifier "AIMS0112" ;
    rdf:_1 <https://w3id.org/cdisc/cosmos/dss/RS/AIMS0112/RSTESTCD> ;
    rdf:_2 <https://w3id.org/cdisc/cosmos/dss/RS/AIMS0112/RSTEST> ;
    rdf:_3 <https://w3id.org/cdisc/cosmos/dss/RS/AIMS0112/RSCAT> ;
    rdf:_4 <https://w3id.org/cdisc/cosmos/dss/RS/AIMS0112/RSSCAT> ;
    rdf:_5 <https://w3id.org/cdisc/cosmos/dss/RS/AIMS0112/RSORRES> ;
    rdf:_6 <https://w3id.org/cdisc/cosmos/dss/RS/AIMS0112/RSSTRESC> ;
    rdf:_7 <https://w3id.org/cdisc/cosmos/dss/RS/AIMS0112/RSSTRESN> ;
    rdf:_8 <https://w3id.org/cdisc/cosmos/dss/RS/AIMS0112/RSDTC> ;
    cosmos_sdtm:biomedicalConceptId NCIT:C102045 ;
    cosmos_sdtm:domain "RS" ;
    cosmos_sdtm:packageDate "2026-05-26"^^xsd:date ;
    cosmos_sdtm:packageType <https://www.cdisc.org/cosmos/sdtm_v1.0/PackageTypeEnum#sdtm> ;
    cosmos_sdtm:sdtmigStartVersion "3-2" ;
    cosmos_sdtm:shortName "AIMS01-Patient Usually Wear Dentures" ;
    cosmos_sdtm:source "RS.RSTESTCD" ;
    cosmos_sdtm:variables <https://w3id.org/cdisc/cosmos/dss/RS/AIMS0112/RSCAT>,
        <https://w3id.org/cdisc/cosmos/dss/RS/AIMS0112/RSDTC>,
        <https://w3id.org/cdisc/cosmos/dss/RS/AIMS0112/RSORRES>,
        <https://w3id.org/cdisc/cosmos/dss/RS/AIMS0112/RSSCAT>,
        <https://w3id.org/cdisc/cosmos/dss/RS/AIMS0112/RSSTRESC>,
        <https://w3id.org/cdisc/cosmos/dss/RS/AIMS0112/RSSTRESN>,
        <https://w3id.org/cdisc/cosmos/dss/RS/AIMS0112/RSTEST>,
        <https://w3id.org/cdisc/cosmos/dss/RS/AIMS0112/RSTESTCD> .

<https://w3id.org/cdisc/cosmos/dss/RS/AJCCV7_AJCC101> a cosmos_sdtm:SDTMGroup ;
    dcterms:identifier "AJCCV7_AJCC101" ;
    rdf:_1 <https://w3id.org/cdisc/cosmos/dss/RS/AJCCV7_AJCC101/RSTESTCD> ;
    rdf:_2 <https://w3id.org/cdisc/cosmos/dss/RS/AJCCV7_AJCC101/RSTEST> ;
    rdf:_3 <https://w3id.org/cdisc/cosmos/dss/RS/AJCCV7_AJCC101/RSCAT> ;
    rdf:_4 <https://w3id.org/cdisc/cosmos/dss/RS/AJCCV7_AJCC101/RSSCAT> ;
    rdf:_5 <https://w3id.org/cdisc/cosmos/dss/RS/AJCCV7_AJCC101/RSORRES> ;
    rdf:_6 <https://w3id.org/cdisc/cosmos/dss/RS/AJCCV7_AJCC101/RSSTRESC> ;
    rdf:_7 <https://w3id.org/cdisc/cosmos/dss/RS/AJCCV7_AJCC101/RSDTC> ;
    cosmos_sdtm:biomedicalConceptId NCIT:C141696 ;
    cosmos_sdtm:domain "RS" ;
    cosmos_sdtm:packageDate "2026-07-14"^^xsd:date ;
    cosmos_sdtm:packageType <https://www.cdisc.org/cosmos/sdtm_v1.0/PackageTypeEnum#sdtm> ;
    cosmos_sdtm:sdtmigEndVersion "3-4" ;
    cosmos_sdtm:sdtmigStartVersion "3-2" ;
    cosmos_sdtm:shortName "AJCC v7 - AJCC1-Primary Tumor (T)" ;
    cosmos_sdtm:source "RS.RSTESTCD" ;
    cosmos_sdtm:variables <https://w3id.org/cdisc/cosmos/dss/RS/AJCCV7_AJCC101/RSCAT>,
        <https://w3id.org/cdisc/cosmos/dss/RS/AJCCV7_AJCC101/RSDTC>,
        <https://w3id.org/cdisc/cosmos/dss/RS/AJCCV7_AJCC101/RSORRES>,
        <https://w3id.org/cdisc/cosmos/dss/RS/AJCCV7_AJCC101/RSSCAT>,
        <https://w3id.org/cdisc/cosmos/dss/RS/AJCCV7_AJCC101/RSSTRESC>,
        <https://w3id.org/cdisc/cosmos/dss/RS/AJCCV7_AJCC101/RSTEST>,
        <https://w3id.org/cdisc/cosmos/dss/RS/AJCCV7_AJCC101/RSTESTCD> .

<https://w3id.org/cdisc/cosmos/dss/RS/AJCCV7_AJCC102> a cosmos_sdtm:SDTMGroup ;
    dcterms:identifier "AJCCV7_AJCC102" ;
    rdf:_1 <https://w3id.org/cdisc/cosmos/dss/RS/AJCCV7_AJCC102/RSTESTCD> ;
    rdf:_2 <https://w3id.org/cdisc/cosmos/dss/RS/AJCCV7_AJCC102/RSTEST> ;
    rdf:_3 <https://w3id.org/cdisc/cosmos/dss/RS/AJCCV7_AJCC102/RSCAT> ;
    rdf:_4 <https://w3id.org/cdisc/cosmos/dss/RS/AJCCV7_AJCC102/RSSCAT> ;
    rdf:_5 <https://w3id.org/cdisc/cosmos/dss/RS/AJCCV7_AJCC102/RSORRES> ;
    rdf:_6 <https://w3id.org/cdisc/cosmos/dss/RS/AJCCV7_AJCC102/RSSTRESC> ;
    rdf:_7 <https://w3id.org/cdisc/cosmos/dss/RS/AJCCV7_AJCC102/RSDTC> ;
    cosmos_sdtm:biomedicalConceptId NCIT:C141697 ;
    cosmos_sdtm:domain "RS" ;
    cosmos_sdtm:packageDate "2026-07-14"^^xsd:date ;
    cosmos_sdtm:packageType <https://www.cdisc.org/cosmos/sdtm_v1.0/PackageTypeEnum#sdtm> ;
    cosmos_sdtm:sdtmigEndVersion "3-4" ;
    cosmos_sdtm:sdtmigStartVersion "3-2" ;
    cosmos_sdtm:shortName "AJCC v7 - AJCC1-Regional Lymph Nodes (N)" ;
    cosmos_sdtm:source "RS.RSTESTCD" ;
    cosmos_sdtm:variables <https://w3id.org/cdisc/cosmos/dss/RS/AJCCV7_AJCC102/RSCAT>,
        <https://w3id.org/cdisc/cosmos/dss/RS/AJCCV7_AJCC102/RSDTC>,
        <https://w3id.org/cdisc/cosmos/dss/RS/AJCCV7_AJCC102/RSORRES>,
        <https://w3id.org/cdisc/cosmos/dss/RS/AJCCV7_AJCC102/RSSCAT>,
        <https://w3id.org/cdisc/cosmos/dss/RS/AJCCV7_AJCC102/RSSTRESC>,
        <https://w3id.org/cdisc/cosmos/dss/RS/AJCCV7_AJCC102/RSTEST>,
        <https://w3id.org/cdisc/cosmos/dss/RS/AJCCV7_AJCC102/RSTESTCD> .

<https://w3id.org/cdisc/cosmos/dss/RS/AJCCV7_AJCC103> a cosmos_sdtm:SDTMGroup ;
    dcterms:identifier "AJCCV7_AJCC103" ;
    rdf:_1 <https://w3id.org/cdisc/cosmos/dss/RS/AJCCV7_AJCC103/RSTESTCD> ;
    rdf:_2 <https://w3id.org/cdisc/cosmos/dss/RS/AJCCV7_AJCC103/RSTEST> ;
    rdf:_3 <https://w3id.org/cdisc/cosmos/dss/RS/AJCCV7_AJCC103/RSCAT> ;
    rdf:_4 <https://w3id.org/cdisc/cosmos/dss/RS/AJCCV7_AJCC103/RSSCAT> ;
    rdf:_5 <https://w3id.org/cdisc/cosmos/dss/RS/AJCCV7_AJCC103/RSORRES> ;
    rdf:_6 <https://w3id.org/cdisc/cosmos/dss/RS/AJCCV7_AJCC103/RSSTRESC> ;
    rdf:_7 <https://w3id.org/cdisc/cosmos/dss/RS/AJCCV7_AJCC103/RSDTC> ;
    cosmos_sdtm:biomedicalConceptId NCIT:C141698 ;
    cosmos_sdtm:domain "RS" ;
    cosmos_sdtm:packageDate "2026-07-14"^^xsd:date ;
    cosmos_sdtm:packageType <https://www.cdisc.org/cosmos/sdtm_v1.0/PackageTypeEnum#sdtm> ;
    cosmos_sdtm:sdtmigEndVersion "3-4" ;
    cosmos_sdtm:sdtmigStartVersion "3-2" ;
    cosmos_sdtm:shortName "AJCC v7 - Distant Metastasis (M)" ;
    cosmos_sdtm:source "RS.RSTESTCD" ;
    cosmos_sdtm:variables <https://w3id.org/cdisc/cosmos/dss/RS/AJCCV7_AJCC103/RSCAT>,
        <https://w3id.org/cdisc/cosmos/dss/RS/AJCCV7_AJCC103/RSDTC>,
        <https://w3id.org/cdisc/cosmos/dss/RS/AJCCV7_AJCC103/RSORRES>,
        <https://w3id.org/cdisc/cosmos/dss/RS/AJCCV7_AJCC103/RSSCAT>,
        <https://w3id.org/cdisc/cosmos/dss/RS/AJCCV7_AJCC103/RSSTRESC>,
        <https://w3id.org/cdisc/cosmos/dss/RS/AJCCV7_AJCC103/RSTEST>,
        <https://w3id.org/cdisc/cosmos/dss/RS/AJCCV7_AJCC103/RSTESTCD> .

<https://w3id.org/cdisc/cosmos/dss/RS/AJCCV7_AJCC104> a cosmos_sdtm:SDTMGroup ;
    dcterms:identifier "AJCCV7_AJCC104" ;
    rdf:_1 <https://w3id.org/cdisc/cosmos/dss/RS/AJCCV7_AJCC104/RSTESTCD> ;
    rdf:_2 <https://w3id.org/cdisc/cosmos/dss/RS/AJCCV7_AJCC104/RSTEST> ;
    rdf:_3 <https://w3id.org/cdisc/cosmos/dss/RS/AJCCV7_AJCC104/RSCAT> ;
    rdf:_4 <https://w3id.org/cdisc/cosmos/dss/RS/AJCCV7_AJCC104/RSSCAT> ;
    rdf:_5 <https://w3id.org/cdisc/cosmos/dss/RS/AJCCV7_AJCC104/RSORRES> ;
    rdf:_6 <https://w3id.org/cdisc/cosmos/dss/RS/AJCCV7_AJCC104/RSSTRESC> ;
    rdf:_7 <https://w3id.org/cdisc/cosmos/dss/RS/AJCCV7_AJCC104/RSDTC> ;
    cosmos_sdtm:biomedicalConceptId NCIT:C141699 ;
    cosmos_sdtm:domain "RS" ;
    cosmos_sdtm:packageDate "2026-07-14"^^xsd:date ;
    cosmos_sdtm:packageType <https://www.cdisc.org/cosmos/sdtm_v1.0/PackageTypeEnum#sdtm> ;
    cosmos_sdtm:sdtmigEndVersion "3-4" ;
    cosmos_sdtm:sdtmigStartVersion "3-2" ;
    cosmos_sdtm:shortName "AJCC v7 - Anatomic Stage" ;
    cosmos_sdtm:source "RS.RSTESTCD" ;
    cosmos_sdtm:variables <https://w3id.org/cdisc/cosmos/dss/RS/AJCCV7_AJCC104/RSCAT>,
        <https://w3id.org/cdisc/cosmos/dss/RS/AJCCV7_AJCC104/RSDTC>,
        <https://w3id.org/cdisc/cosmos/dss/RS/AJCCV7_AJCC104/RSORRES>,
        <https://w3id.org/cdisc/cosmos/dss/RS/AJCCV7_AJCC104/RSSCAT>,
        <https://w3id.org/cdisc/cosmos/dss/RS/AJCCV7_AJCC104/RSSTRESC>,
        <https://w3id.org/cdisc/cosmos/dss/RS/AJCCV7_AJCC104/RSTEST>,
        <https://w3id.org/cdisc/cosmos/dss/RS/AJCCV7_AJCC104/RSTESTCD> .

<https://w3id.org/cdisc/cosmos/dss/RS/AJCCV7_AJCC105> a cosmos_sdtm:SDTMGroup ;
    dcterms:identifier "AJCCV7_AJCC105" ;
    rdf:_1 <https://w3id.org/cdisc/cosmos/dss/RS/AJCCV7_AJCC105/RSTESTCD> ;
    rdf:_2 <https://w3id.org/cdisc/cosmos/dss/RS/AJCCV7_AJCC105/RSTEST> ;
    rdf:_3 <https://w3id.org/cdisc/cosmos/dss/RS/AJCCV7_AJCC105/RSCAT> ;
    rdf:_4 <https://w3id.org/cdisc/cosmos/dss/RS/AJCCV7_AJCC105/RSSCAT> ;
    rdf:_5 <https://w3id.org/cdisc/cosmos/dss/RS/AJCCV7_AJCC105/RSORRES> ;
    rdf:_6 <https://w3id.org/cdisc/cosmos/dss/RS/AJCCV7_AJCC105/RSSTRESC> ;
    rdf:_7 <https://w3id.org/cdisc/cosmos/dss/RS/AJCCV7_AJCC105/RSDTC> ;
    cosmos_sdtm:biomedicalConceptId NCIT:C176205 ;
    cosmos_sdtm:domain "RS" ;
    cosmos_sdtm:packageDate "2026-07-14"^^xsd:date ;
    cosmos_sdtm:packageType <https://www.cdisc.org/cosmos/sdtm_v1.0/PackageTypeEnum#sdtm> ;
    cosmos_sdtm:sdtmigEndVersion "3-4" ;
    cosmos_sdtm:sdtmigStartVersion "3-2" ;
    cosmos_sdtm:shortName "AJCC v7 - Residual Tumor (R)" ;
    cosmos_sdtm:source "RS.RSTESTCD" ;
    cosmos_sdtm:variables <https://w3id.org/cdisc/cosmos/dss/RS/AJCCV7_AJCC105/RSCAT>,
        <https://w3id.org/cdisc/cosmos/dss/RS/AJCCV7_AJCC105/RSDTC>,
        <https://w3id.org/cdisc/cosmos/dss/RS/AJCCV7_AJCC105/RSORRES>,
        <https://w3id.org/cdisc/cosmos/dss/RS/AJCCV7_AJCC105/RSSCAT>,
        <https://w3id.org/cdisc/cosmos/dss/RS/AJCCV7_AJCC105/RSSTRESC>,
        <https://w3id.org/cdisc/cosmos/dss/RS/AJCCV7_AJCC105/RSTEST>,
        <https://w3id.org/cdisc/cosmos/dss/RS/AJCCV7_AJCC105/RSTESTCD> .

<https://w3id.org/cdisc/cosmos/dss/RS/ANATRESP_LUGANO> a cosmos_sdtm:SDTMGroup ;
    dcterms:identifier "ANATRESP_LUGANO" ;
    rdf:_1 <https://w3id.org/cdisc/cosmos/dss/RS/ANATRESP_LUGANO/RSTESTCD> ;
    rdf:_2 <https://w3id.org/cdisc/cosmos/dss/RS/ANATRESP_LUGANO/RSTEST> ;
    rdf:_3 <https://w3id.org/cdisc/cosmos/dss/RS/ANATRESP_LUGANO/RSCAT> ;
    rdf:_4 <https://w3id.org/cdisc/cosmos/dss/RS/ANATRESP_LUGANO/RSORRES> ;
    rdf:_5 <https://w3id.org/cdisc/cosmos/dss/RS/ANATRESP_LUGANO/RSSTRESC> ;
    rdf:_6 <https://w3id.org/cdisc/cosmos/dss/RS/ANATRESP_LUGANO/RSEVAL> ;
    rdf:_7 <https://w3id.org/cdisc/cosmos/dss/RS/ANATRESP_LUGANO/RSEVALID> ;
    rdf:_8 <https://w3id.org/cdisc/cosmos/dss/RS/ANATRESP_LUGANO/RSDTC> ;
    cosmos_sdtm:biomedicalConceptId NCIT:C156564 ;
    cosmos_sdtm:domain "RS" ;
    cosmos_sdtm:packageDate "2026-05-26"^^xsd:date ;
    cosmos_sdtm:packageType <https://www.cdisc.org/cosmos/sdtm_v1.0/PackageTypeEnum#sdtm> ;
    cosmos_sdtm:sdtmigStartVersion "3-2" ;
    cosmos_sdtm:shortName "Anatomic Response (Lugano Classification)" ;
    cosmos_sdtm:source "RS.RSTESTCD" ;
    cosmos_sdtm:variables <https://w3id.org/cdisc/cosmos/dss/RS/ANATRESP_LUGANO/RSCAT>,
        <https://w3id.org/cdisc/cosmos/dss/RS/ANATRESP_LUGANO/RSDTC>,
        <https://w3id.org/cdisc/cosmos/dss/RS/ANATRESP_LUGANO/RSEVAL>,
        <https://w3id.org/cdisc/cosmos/dss/RS/ANATRESP_LUGANO/RSEVALID>,
        <https://w3id.org/cdisc/cosmos/dss/RS/ANATRESP_LUGANO/RSORRES>,
        <https://w3id.org/cdisc/cosmos/dss/RS/ANATRESP_LUGANO/RSSTRESC>,
        <https://w3id.org/cdisc/cosmos/dss/RS/ANATRESP_LUGANO/RSTEST>,
        <https://w3id.org/cdisc/cosmos/dss/RS/ANATRESP_LUGANO/RSTESTCD> .

<https://w3id.org/cdisc/cosmos/dss/RS/APCH101> a cosmos_sdtm:SDTMGroup ;
    dcterms:identifier "APCH101" ;
    rdf:_1 <https://w3id.org/cdisc/cosmos/dss/RS/APCH101/RSTESTCD> ;
    rdf:_2 <https://w3id.org/cdisc/cosmos/dss/RS/APCH101/RSTEST> ;
    rdf:_3 <https://w3id.org/cdisc/cosmos/dss/RS/APCH101/RSCAT> ;
    rdf:_4 <https://w3id.org/cdisc/cosmos/dss/RS/APCH101/RSORRES> ;
    rdf:_5 <https://w3id.org/cdisc/cosmos/dss/RS/APCH101/RSORRESU> ;
    rdf:_6 <https://w3id.org/cdisc/cosmos/dss/RS/APCH101/RSSTRESC> ;
    rdf:_7 <https://w3id.org/cdisc/cosmos/dss/RS/APCH101/RSSTRESN> ;
    rdf:_8 <https://w3id.org/cdisc/cosmos/dss/RS/APCH101/RSLOC> ;
    rdf:_9 <https://w3id.org/cdisc/cosmos/dss/RS/APCH101/RSDTC> ;
    cosmos_sdtm:biomedicalConceptId NCIT:C121096 ;
    cosmos_sdtm:domain "RS" ;
    cosmos_sdtm:packageDate "2026-05-26"^^xsd:date ;
    cosmos_sdtm:packageType <https://www.cdisc.org/cosmos/sdtm_v1.0/PackageTypeEnum#sdtm> ;
    cosmos_sdtm:sdtmigStartVersion "3-2" ;
    cosmos_sdtm:shortName "APCH1-Temperature - Rectal" ;
    cosmos_sdtm:source "RS.RSTESTCD" ;
    cosmos_sdtm:variables <https://w3id.org/cdisc/cosmos/dss/RS/APCH101/RSCAT>,
        <https://w3id.org/cdisc/cosmos/dss/RS/APCH101/RSDTC>,
        <https://w3id.org/cdisc/cosmos/dss/RS/APCH101/RSLOC>,
        <https://w3id.org/cdisc/cosmos/dss/RS/APCH101/RSORRES>,
        <https://w3id.org/cdisc/cosmos/dss/RS/APCH101/RSORRESU>,
        <https://w3id.org/cdisc/cosmos/dss/RS/APCH101/RSSTRESC>,
        <https://w3id.org/cdisc/cosmos/dss/RS/APCH101/RSSTRESN>,
        <https://w3id.org/cdisc/cosmos/dss/RS/APCH101/RSTEST>,
        <https://w3id.org/cdisc/cosmos/dss/RS/APCH101/RSTESTCD> .

<https://w3id.org/cdisc/cosmos/dss/RS/APCH102> a cosmos_sdtm:SDTMGroup ;
    dcterms:identifier "APCH102" ;
    rdf:_1 <https://w3id.org/cdisc/cosmos/dss/RS/APCH102/RSTESTCD> ;
    rdf:_2 <https://w3id.org/cdisc/cosmos/dss/RS/APCH102/RSTEST> ;
    rdf:_3 <https://w3id.org/cdisc/cosmos/dss/RS/APCH102/RSCAT> ;
    rdf:_4 <https://w3id.org/cdisc/cosmos/dss/RS/APCH102/RSORRES> ;
    rdf:_5 <https://w3id.org/cdisc/cosmos/dss/RS/APCH102/RSORRESU> ;
    rdf:_6 <https://w3id.org/cdisc/cosmos/dss/RS/APCH102/RSSTRESC> ;
    rdf:_7 <https://w3id.org/cdisc/cosmos/dss/RS/APCH102/RSSTRESN> ;
    rdf:_8 <https://w3id.org/cdisc/cosmos/dss/RS/APCH102/RSDTC> ;
    cosmos_sdtm:biomedicalConceptId NCIT:C121097 ;
    cosmos_sdtm:domain "RS" ;
    cosmos_sdtm:packageDate "2026-05-26"^^xsd:date ;
    cosmos_sdtm:packageType <https://www.cdisc.org/cosmos/sdtm_v1.0/PackageTypeEnum#sdtm> ;
    cosmos_sdtm:sdtmigStartVersion "3-2" ;
    cosmos_sdtm:shortName "APCH1-Mean Arterial Pressure" ;
    cosmos_sdtm:source "RS.RSTESTCD" ;
    cosmos_sdtm:variables <https://w3id.org/cdisc/cosmos/dss/RS/APCH102/RSCAT>,
        <https://w3id.org/cdisc/cosmos/dss/RS/APCH102/RSDTC>,
        <https://w3id.org/cdisc/cosmos/dss/RS/APCH102/RSORRES>,
        <https://w3id.org/cdisc/cosmos/dss/RS/APCH102/RSORRESU>,
        <https://w3id.org/cdisc/cosmos/dss/RS/APCH102/RSSTRESC>,
        <https://w3id.org/cdisc/cosmos/dss/RS/APCH102/RSSTRESN>,
        <https://w3id.org/cdisc/cosmos/dss/RS/APCH102/RSTEST>,
        <https://w3id.org/cdisc/cosmos/dss/RS/APCH102/RSTESTCD> .

<https://w3id.org/cdisc/cosmos/dss/RS/APCH103> a cosmos_sdtm:SDTMGroup ;
    dcterms:identifier "APCH103" ;
    rdf:_1 <https://w3id.org/cdisc/cosmos/dss/RS/APCH103/RSTESTCD> ;
    rdf:_2 <https://w3id.org/cdisc/cosmos/dss/RS/APCH103/RSTEST> ;
    rdf:_3 <https://w3id.org/cdisc/cosmos/dss/RS/APCH103/RSCAT> ;
    rdf:_4 <https://w3id.org/cdisc/cosmos/dss/RS/APCH103/RSORRES> ;
    rdf:_5 <https://w3id.org/cdisc/cosmos/dss/RS/APCH103/RSORRESU> ;
    rdf:_6 <https://w3id.org/cdisc/cosmos/dss/RS/APCH103/RSSTRESC> ;
    rdf:_7 <https://w3id.org/cdisc/cosmos/dss/RS/APCH103/RSSTRESN> ;
    rdf:_8 <https://w3id.org/cdisc/cosmos/dss/RS/APCH103/RSDTC> ;
    cosmos_sdtm:biomedicalConceptId NCIT:C121098 ;
    cosmos_sdtm:domain "RS" ;
    cosmos_sdtm:packageDate "2026-05-26"^^xsd:date ;
    cosmos_sdtm:packageType <https://www.cdisc.org/cosmos/sdtm_v1.0/PackageTypeEnum#sdtm> ;
    cosmos_sdtm:sdtmigStartVersion "3-2" ;
    cosmos_sdtm:shortName "APCH1-Heart Rate" ;
    cosmos_sdtm:source "RS.RSTESTCD" ;
    cosmos_sdtm:variables <https://w3id.org/cdisc/cosmos/dss/RS/APCH103/RSCAT>,
        <https://w3id.org/cdisc/cosmos/dss/RS/APCH103/RSDTC>,
        <https://w3id.org/cdisc/cosmos/dss/RS/APCH103/RSORRES>,
        <https://w3id.org/cdisc/cosmos/dss/RS/APCH103/RSORRESU>,
        <https://w3id.org/cdisc/cosmos/dss/RS/APCH103/RSSTRESC>,
        <https://w3id.org/cdisc/cosmos/dss/RS/APCH103/RSSTRESN>,
        <https://w3id.org/cdisc/cosmos/dss/RS/APCH103/RSTEST>,
        <https://w3id.org/cdisc/cosmos/dss/RS/APCH103/RSTESTCD> .

<https://w3id.org/cdisc/cosmos/dss/RS/APCH104> a cosmos_sdtm:SDTMGroup ;
    dcterms:identifier "APCH104" ;
    rdf:_1 <https://w3id.org/cdisc/cosmos/dss/RS/APCH104/RSTESTCD> ;
    rdf:_2 <https://w3id.org/cdisc/cosmos/dss/RS/APCH104/RSTEST> ;
    rdf:_3 <https://w3id.org/cdisc/cosmos/dss/RS/APCH104/RSCAT> ;
    rdf:_4 <https://w3id.org/cdisc/cosmos/dss/RS/APCH104/RSORRES> ;
    rdf:_5 <https://w3id.org/cdisc/cosmos/dss/RS/APCH104/RSORRESU> ;
    rdf:_6 <https://w3id.org/cdisc/cosmos/dss/RS/APCH104/RSSTRESC> ;
    rdf:_7 <https://w3id.org/cdisc/cosmos/dss/RS/APCH104/RSSTRESN> ;
    rdf:_8 <https://w3id.org/cdisc/cosmos/dss/RS/APCH104/RSDTC> ;
    cosmos_sdtm:biomedicalConceptId NCIT:C121099 ;
    cosmos_sdtm:domain "RS" ;
    cosmos_sdtm:packageDate "2026-05-26"^^xsd:date ;
    cosmos_sdtm:packageType <https://www.cdisc.org/cosmos/sdtm_v1.0/PackageTypeEnum#sdtm> ;
    cosmos_sdtm:sdtmigStartVersion "3-2" ;
    cosmos_sdtm:shortName "APCH1-Respiratory Rate" ;
    cosmos_sdtm:source "RS.RSTESTCD" ;
    cosmos_sdtm:variables <https://w3id.org/cdisc/cosmos/dss/RS/APCH104/RSCAT>,
        <https://w3id.org/cdisc/cosmos/dss/RS/APCH104/RSDTC>,
        <https://w3id.org/cdisc/cosmos/dss/RS/APCH104/RSORRES>,
        <https://w3id.org/cdisc/cosmos/dss/RS/APCH104/RSORRESU>,
        <https://w3id.org/cdisc/cosmos/dss/RS/APCH104/RSSTRESC>,
        <https://w3id.org/cdisc/cosmos/dss/RS/APCH104/RSSTRESN>,
        <https://w3id.org/cdisc/cosmos/dss/RS/APCH104/RSTEST>,
        <https://w3id.org/cdisc/cosmos/dss/RS/APCH104/RSTESTCD> .

<https://w3id.org/cdisc/cosmos/dss/RS/APCH105A> a cosmos_sdtm:SDTMGroup ;
    dcterms:identifier "APCH105A" ;
    rdf:_1 <https://w3id.org/cdisc/cosmos/dss/RS/APCH105A/RSTESTCD> ;
    rdf:_2 <https://w3id.org/cdisc/cosmos/dss/RS/APCH105A/RSTEST> ;
    rdf:_3 <https://w3id.org/cdisc/cosmos/dss/RS/APCH105A/RSCAT> ;
    rdf:_4 <https://w3id.org/cdisc/cosmos/dss/RS/APCH105A/RSORRES> ;
    rdf:_5 <https://w3id.org/cdisc/cosmos/dss/RS/APCH105A/RSORRESU> ;
    rdf:_6 <https://w3id.org/cdisc/cosmos/dss/RS/APCH105A/RSSTRESC> ;
    rdf:_7 <https://w3id.org/cdisc/cosmos/dss/RS/APCH105A/RSSTRESN> ;
    rdf:_8 <https://w3id.org/cdisc/cosmos/dss/RS/APCH105A/RSDTC> ;
    cosmos_sdtm:biomedicalConceptId NCIT:C121100 ;
    cosmos_sdtm:domain "RS" ;
    cosmos_sdtm:packageDate "2026-05-26"^^xsd:date ;
    cosmos_sdtm:packageType <https://www.cdisc.org/cosmos/sdtm_v1.0/PackageTypeEnum#sdtm> ;
    cosmos_sdtm:sdtmigStartVersion "3-2" ;
    cosmos_sdtm:shortName "APCH1-Oxygenation: A-aDO2" ;
    cosmos_sdtm:source "RS.RSTESTCD" ;
    cosmos_sdtm:variables <https://w3id.org/cdisc/cosmos/dss/RS/APCH105A/RSCAT>,
        <https://w3id.org/cdisc/cosmos/dss/RS/APCH105A/RSDTC>,
        <https://w3id.org/cdisc/cosmos/dss/RS/APCH105A/RSORRES>,
        <https://w3id.org/cdisc/cosmos/dss/RS/APCH105A/RSORRESU>,
        <https://w3id.org/cdisc/cosmos/dss/RS/APCH105A/RSSTRESC>,
        <https://w3id.org/cdisc/cosmos/dss/RS/APCH105A/RSSTRESN>,
        <https://w3id.org/cdisc/cosmos/dss/RS/APCH105A/RSTEST>,
        <https://w3id.org/cdisc/cosmos/dss/RS/APCH105A/RSTESTCD> .

<https://w3id.org/cdisc/cosmos/dss/RS/APCH105B> a cosmos_sdtm:SDTMGroup ;
    dcterms:identifier "APCH105B" ;
    rdf:_1 <https://w3id.org/cdisc/cosmos/dss/RS/APCH105B/RSTESTCD> ;
    rdf:_2 <https://w3id.org/cdisc/cosmos/dss/RS/APCH105B/RSTEST> ;
    rdf:_3 <https://w3id.org/cdisc/cosmos/dss/RS/APCH105B/RSCAT> ;
    rdf:_4 <https://w3id.org/cdisc/cosmos/dss/RS/APCH105B/RSORRES> ;
    rdf:_5 <https://w3id.org/cdisc/cosmos/dss/RS/APCH105B/RSORRESU> ;
    rdf:_6 <https://w3id.org/cdisc/cosmos/dss/RS/APCH105B/RSSTRESC> ;
    rdf:_7 <https://w3id.org/cdisc/cosmos/dss/RS/APCH105B/RSSTRESN> ;
    rdf:_8 <https://w3id.org/cdisc/cosmos/dss/RS/APCH105B/RSDTC> ;
    cosmos_sdtm:biomedicalConceptId NCIT:C121101 ;
    cosmos_sdtm:domain "RS" ;
    cosmos_sdtm:packageDate "2026-05-26"^^xsd:date ;
    cosmos_sdtm:packageType <https://www.cdisc.org/cosmos/sdtm_v1.0/PackageTypeEnum#sdtm> ;
    cosmos_sdtm:sdtmigStartVersion "3-2" ;
    cosmos_sdtm:shortName "APCH1-Oxygenation: PaO2" ;
    cosmos_sdtm:source "RS.RSTESTCD" ;
    cosmos_sdtm:variables <https://w3id.org/cdisc/cosmos/dss/RS/APCH105B/RSCAT>,
        <https://w3id.org/cdisc/cosmos/dss/RS/APCH105B/RSDTC>,
        <https://w3id.org/cdisc/cosmos/dss/RS/APCH105B/RSORRES>,
        <https://w3id.org/cdisc/cosmos/dss/RS/APCH105B/RSORRESU>,
        <https://w3id.org/cdisc/cosmos/dss/RS/APCH105B/RSSTRESC>,
        <https://w3id.org/cdisc/cosmos/dss/RS/APCH105B/RSSTRESN>,
        <https://w3id.org/cdisc/cosmos/dss/RS/APCH105B/RSTEST>,
        <https://w3id.org/cdisc/cosmos/dss/RS/APCH105B/RSTESTCD> .

<https://w3id.org/cdisc/cosmos/dss/RS/APCH106A> a cosmos_sdtm:SDTMGroup ;
    dcterms:identifier "APCH106A" ;
    rdf:_1 <https://w3id.org/cdisc/cosmos/dss/RS/APCH106A/RSTESTCD> ;
    rdf:_2 <https://w3id.org/cdisc/cosmos/dss/RS/APCH106A/RSTEST> ;
    rdf:_3 <https://w3id.org/cdisc/cosmos/dss/RS/APCH106A/RSCAT> ;
    rdf:_4 <https://w3id.org/cdisc/cosmos/dss/RS/APCH106A/RSORRES> ;
    rdf:_5 <https://w3id.org/cdisc/cosmos/dss/RS/APCH106A/RSSTRESC> ;
    rdf:_6 <https://w3id.org/cdisc/cosmos/dss/RS/APCH106A/RSSTRESN> ;
    rdf:_7 <https://w3id.org/cdisc/cosmos/dss/RS/APCH106A/RSDTC> ;
    cosmos_sdtm:biomedicalConceptId NCIT:C121102 ;
    cosmos_sdtm:domain "RS" ;
    cosmos_sdtm:packageDate "2026-05-26"^^xsd:date ;
    cosmos_sdtm:packageType <https://www.cdisc.org/cosmos/sdtm_v1.0/PackageTypeEnum#sdtm> ;
    cosmos_sdtm:sdtmigStartVersion "3-2" ;
    cosmos_sdtm:shortName "APCH1-Arterial pH" ;
    cosmos_sdtm:source "RS.RSTESTCD" ;
    cosmos_sdtm:variables <https://w3id.org/cdisc/cosmos/dss/RS/APCH106A/RSCAT>,
        <https://w3id.org/cdisc/cosmos/dss/RS/APCH106A/RSDTC>,
        <https://w3id.org/cdisc/cosmos/dss/RS/APCH106A/RSORRES>,
        <https://w3id.org/cdisc/cosmos/dss/RS/APCH106A/RSSTRESC>,
        <https://w3id.org/cdisc/cosmos/dss/RS/APCH106A/RSSTRESN>,
        <https://w3id.org/cdisc/cosmos/dss/RS/APCH106A/RSTEST>,
        <https://w3id.org/cdisc/cosmos/dss/RS/APCH106A/RSTESTCD> .

<https://w3id.org/cdisc/cosmos/dss/RS/APCH106B> a cosmos_sdtm:SDTMGroup ;
    dcterms:identifier "APCH106B" ;
    rdf:_1 <https://w3id.org/cdisc/cosmos/dss/RS/APCH106B/RSTESTCD> ;
    rdf:_2 <https://w3id.org/cdisc/cosmos/dss/RS/APCH106B/RSTEST> ;
    rdf:_3 <https://w3id.org/cdisc/cosmos/dss/RS/APCH106B/RSCAT> ;
    rdf:_4 <https://w3id.org/cdisc/cosmos/dss/RS/APCH106B/RSORRES> ;
    rdf:_5 <https://w3id.org/cdisc/cosmos/dss/RS/APCH106B/RSORRESU> ;
    rdf:_6 <https://w3id.org/cdisc/cosmos/dss/RS/APCH106B/RSSTRESC> ;
    rdf:_7 <https://w3id.org/cdisc/cosmos/dss/RS/APCH106B/RSSTRESN> ;
    rdf:_8 <https://w3id.org/cdisc/cosmos/dss/RS/APCH106B/RSDTC> ;
    cosmos_sdtm:biomedicalConceptId NCIT:C121103 ;
    cosmos_sdtm:domain "RS" ;
    cosmos_sdtm:packageDate "2026-05-26"^^xsd:date ;
    cosmos_sdtm:packageType <https://www.cdisc.org/cosmos/sdtm_v1.0/PackageTypeEnum#sdtm> ;
    cosmos_sdtm:sdtmigStartVersion "3-2" ;
    cosmos_sdtm:shortName "APCH1-Serum HCO3" ;
    cosmos_sdtm:source "RS.RSTESTCD" ;
    cosmos_sdtm:variables <https://w3id.org/cdisc/cosmos/dss/RS/APCH106B/RSCAT>,
        <https://w3id.org/cdisc/cosmos/dss/RS/APCH106B/RSDTC>,
        <https://w3id.org/cdisc/cosmos/dss/RS/APCH106B/RSORRES>,
        <https://w3id.org/cdisc/cosmos/dss/RS/APCH106B/RSORRESU>,
        <https://w3id.org/cdisc/cosmos/dss/RS/APCH106B/RSSTRESC>,
        <https://w3id.org/cdisc/cosmos/dss/RS/APCH106B/RSSTRESN>,
        <https://w3id.org/cdisc/cosmos/dss/RS/APCH106B/RSTEST>,
        <https://w3id.org/cdisc/cosmos/dss/RS/APCH106B/RSTESTCD> .

<https://w3id.org/cdisc/cosmos/dss/RS/APCH107> a cosmos_sdtm:SDTMGroup ;
    dcterms:identifier "APCH107" ;
    rdf:_1 <https://w3id.org/cdisc/cosmos/dss/RS/APCH107/RSTESTCD> ;
    rdf:_2 <https://w3id.org/cdisc/cosmos/dss/RS/APCH107/RSTEST> ;
    rdf:_3 <https://w3id.org/cdisc/cosmos/dss/RS/APCH107/RSCAT> ;
    rdf:_4 <https://w3id.org/cdisc/cosmos/dss/RS/APCH107/RSORRES> ;
    rdf:_5 <https://w3id.org/cdisc/cosmos/dss/RS/APCH107/RSORRESU> ;
    rdf:_6 <https://w3id.org/cdisc/cosmos/dss/RS/APCH107/RSSTRESC> ;
    rdf:_7 <https://w3id.org/cdisc/cosmos/dss/RS/APCH107/RSSTRESN> ;
    rdf:_8 <https://w3id.org/cdisc/cosmos/dss/RS/APCH107/RSDTC> ;
    cosmos_sdtm:biomedicalConceptId NCIT:C121104 ;
    cosmos_sdtm:domain "RS" ;
    cosmos_sdtm:packageDate "2026-05-26"^^xsd:date ;
    cosmos_sdtm:packageType <https://www.cdisc.org/cosmos/sdtm_v1.0/PackageTypeEnum#sdtm> ;
    cosmos_sdtm:sdtmigStartVersion "3-2" ;
    cosmos_sdtm:shortName "APCH1-Serum Sodium" ;
    cosmos_sdtm:source "RS.RSTESTCD" ;
    cosmos_sdtm:variables <https://w3id.org/cdisc/cosmos/dss/RS/APCH107/RSCAT>,
        <https://w3id.org/cdisc/cosmos/dss/RS/APCH107/RSDTC>,
        <https://w3id.org/cdisc/cosmos/dss/RS/APCH107/RSORRES>,
        <https://w3id.org/cdisc/cosmos/dss/RS/APCH107/RSORRESU>,
        <https://w3id.org/cdisc/cosmos/dss/RS/APCH107/RSSTRESC>,
        <https://w3id.org/cdisc/cosmos/dss/RS/APCH107/RSSTRESN>,
        <https://w3id.org/cdisc/cosmos/dss/RS/APCH107/RSTEST>,
        <https://w3id.org/cdisc/cosmos/dss/RS/APCH107/RSTESTCD> .

<https://w3id.org/cdisc/cosmos/dss/RS/APCH108> a cosmos_sdtm:SDTMGroup ;
    dcterms:identifier "APCH108" ;
    rdf:_1 <https://w3id.org/cdisc/cosmos/dss/RS/APCH108/RSTESTCD> ;
    rdf:_2 <https://w3id.org/cdisc/cosmos/dss/RS/APCH108/RSTEST> ;
    rdf:_3 <https://w3id.org/cdisc/cosmos/dss/RS/APCH108/RSCAT> ;
    rdf:_4 <https://w3id.org/cdisc/cosmos/dss/RS/APCH108/RSORRES> ;
    rdf:_5 <https://w3id.org/cdisc/cosmos/dss/RS/APCH108/RSORRESU> ;
    rdf:_6 <https://w3id.org/cdisc/cosmos/dss/RS/APCH108/RSSTRESC> ;
    rdf:_7 <https://w3id.org/cdisc/cosmos/dss/RS/APCH108/RSSTRESN> ;
    rdf:_8 <https://w3id.org/cdisc/cosmos/dss/RS/APCH108/RSDTC> ;
    cosmos_sdtm:biomedicalConceptId NCIT:C121105 ;
    cosmos_sdtm:domain "RS" ;
    cosmos_sdtm:packageDate "2026-05-26"^^xsd:date ;
    cosmos_sdtm:packageType <https://www.cdisc.org/cosmos/sdtm_v1.0/PackageTypeEnum#sdtm> ;
    cosmos_sdtm:sdtmigStartVersion "3-2" ;
    cosmos_sdtm:shortName "APCH1-Serum Potassium" ;
    cosmos_sdtm:source "RS.RSTESTCD" ;
    cosmos_sdtm:variables <https://w3id.org/cdisc/cosmos/dss/RS/APCH108/RSCAT>,
        <https://w3id.org/cdisc/cosmos/dss/RS/APCH108/RSDTC>,
        <https://w3id.org/cdisc/cosmos/dss/RS/APCH108/RSORRES>,
        <https://w3id.org/cdisc/cosmos/dss/RS/APCH108/RSORRESU>,
        <https://w3id.org/cdisc/cosmos/dss/RS/APCH108/RSSTRESC>,
        <https://w3id.org/cdisc/cosmos/dss/RS/APCH108/RSSTRESN>,
        <https://w3id.org/cdisc/cosmos/dss/RS/APCH108/RSTEST>,
        <https://w3id.org/cdisc/cosmos/dss/RS/APCH108/RSTESTCD> .

<https://w3id.org/cdisc/cosmos/dss/RS/APCH109> a cosmos_sdtm:SDTMGroup ;
    dcterms:identifier "APCH109" ;
    rdf:_1 <https://w3id.org/cdisc/cosmos/dss/RS/APCH109/RSTESTCD> ;
    rdf:_2 <https://w3id.org/cdisc/cosmos/dss/RS/APCH109/RSTEST> ;
    rdf:_3 <https://w3id.org/cdisc/cosmos/dss/RS/APCH109/RSCAT> ;
    rdf:_4 <https://w3id.org/cdisc/cosmos/dss/RS/APCH109/RSORRES> ;
    rdf:_5 <https://w3id.org/cdisc/cosmos/dss/RS/APCH109/RSORRESU> ;
    rdf:_6 <https://w3id.org/cdisc/cosmos/dss/RS/APCH109/RSSTRESC> ;
    rdf:_7 <https://w3id.org/cdisc/cosmos/dss/RS/APCH109/RSSTRESN> ;
    rdf:_8 <https://w3id.org/cdisc/cosmos/dss/RS/APCH109/RSDTC> ;
    cosmos_sdtm:biomedicalConceptId NCIT:C121106 ;
    cosmos_sdtm:domain "RS" ;
    cosmos_sdtm:packageDate "2026-05-26"^^xsd:date ;
    cosmos_sdtm:packageType <https://www.cdisc.org/cosmos/sdtm_v1.0/PackageTypeEnum#sdtm> ;
    cosmos_sdtm:sdtmigStartVersion "3-2" ;
    cosmos_sdtm:shortName "APCH1-Serum Creatinine" ;
    cosmos_sdtm:source "RS.RSTESTCD" ;
    cosmos_sdtm:variables <https://w3id.org/cdisc/cosmos/dss/RS/APCH109/RSCAT>,
        <https://w3id.org/cdisc/cosmos/dss/RS/APCH109/RSDTC>,
        <https://w3id.org/cdisc/cosmos/dss/RS/APCH109/RSORRES>,
        <https://w3id.org/cdisc/cosmos/dss/RS/APCH109/RSORRESU>,
        <https://w3id.org/cdisc/cosmos/dss/RS/APCH109/RSSTRESC>,
        <https://w3id.org/cdisc/cosmos/dss/RS/APCH109/RSSTRESN>,
        <https://w3id.org/cdisc/cosmos/dss/RS/APCH109/RSTEST>,
        <https://w3id.org/cdisc/cosmos/dss/RS/APCH109/RSTESTCD> .

<https://w3id.org/cdisc/cosmos/dss/RS/APCH110> a cosmos_sdtm:SDTMGroup ;
    dcterms:identifier "APCH110" ;
    rdf:_1 <https://w3id.org/cdisc/cosmos/dss/RS/APCH110/RSTESTCD> ;
    rdf:_2 <https://w3id.org/cdisc/cosmos/dss/RS/APCH110/RSTEST> ;
    rdf:_3 <https://w3id.org/cdisc/cosmos/dss/RS/APCH110/RSCAT> ;
    rdf:_4 <https://w3id.org/cdisc/cosmos/dss/RS/APCH110/RSORRES> ;
    rdf:_5 <https://w3id.org/cdisc/cosmos/dss/RS/APCH110/RSORRESU> ;
    rdf:_6 <https://w3id.org/cdisc/cosmos/dss/RS/APCH110/RSSTRESC> ;
    rdf:_7 <https://w3id.org/cdisc/cosmos/dss/RS/APCH110/RSSTRESN> ;
    rdf:_8 <https://w3id.org/cdisc/cosmos/dss/RS/APCH110/RSDTC> ;
    cosmos_sdtm:biomedicalConceptId NCIT:C121107 ;
    cosmos_sdtm:domain "RS" ;
    cosmos_sdtm:packageDate "2026-05-26"^^xsd:date ;
    cosmos_sdtm:packageType <https://www.cdisc.org/cosmos/sdtm_v1.0/PackageTypeEnum#sdtm> ;
    cosmos_sdtm:sdtmigStartVersion "3-2" ;
    cosmos_sdtm:shortName "APCH1-Hematocrit" ;
    cosmos_sdtm:source "RS.RSTESTCD" ;
    cosmos_sdtm:variables <https://w3id.org/cdisc/cosmos/dss/RS/APCH110/RSCAT>,
        <https://w3id.org/cdisc/cosmos/dss/RS/APCH110/RSDTC>,
        <https://w3id.org/cdisc/cosmos/dss/RS/APCH110/RSORRES>,
        <https://w3id.org/cdisc/cosmos/dss/RS/APCH110/RSORRESU>,
        <https://w3id.org/cdisc/cosmos/dss/RS/APCH110/RSSTRESC>,
        <https://w3id.org/cdisc/cosmos/dss/RS/APCH110/RSSTRESN>,
        <https://w3id.org/cdisc/cosmos/dss/RS/APCH110/RSTEST>,
        <https://w3id.org/cdisc/cosmos/dss/RS/APCH110/RSTESTCD> .

<https://w3id.org/cdisc/cosmos/dss/RS/APCH111> a cosmos_sdtm:SDTMGroup ;
    dcterms:identifier "APCH111" ;
    rdf:_1 <https://w3id.org/cdisc/cosmos/dss/RS/APCH111/RSTESTCD> ;
    rdf:_2 <https://w3id.org/cdisc/cosmos/dss/RS/APCH111/RSTEST> ;
    rdf:_3 <https://w3id.org/cdisc/cosmos/dss/RS/APCH111/RSCAT> ;
    rdf:_4 <https://w3id.org/cdisc/cosmos/dss/RS/APCH111/RSORRES> ;
    rdf:_5 <https://w3id.org/cdisc/cosmos/dss/RS/APCH111/RSORRESU> ;
    rdf:_6 <https://w3id.org/cdisc/cosmos/dss/RS/APCH111/RSSTRESC> ;
    rdf:_7 <https://w3id.org/cdisc/cosmos/dss/RS/APCH111/RSSTRESN> ;
    rdf:_8 <https://w3id.org/cdisc/cosmos/dss/RS/APCH111/RSDTC> ;
    cosmos_sdtm:biomedicalConceptId NCIT:C121108 ;
    cosmos_sdtm:domain "RS" ;
    cosmos_sdtm:packageDate "2026-05-26"^^xsd:date ;
    cosmos_sdtm:packageType <https://www.cdisc.org/cosmos/sdtm_v1.0/PackageTypeEnum#sdtm> ;
    cosmos_sdtm:sdtmigStartVersion "3-2" ;
    cosmos_sdtm:shortName "APCH1-White Blood Count" ;
    cosmos_sdtm:source "RS.RSTESTCD" ;
    cosmos_sdtm:variables <https://w3id.org/cdisc/cosmos/dss/RS/APCH111/RSCAT>,
        <https://w3id.org/cdisc/cosmos/dss/RS/APCH111/RSDTC>,
        <https://w3id.org/cdisc/cosmos/dss/RS/APCH111/RSORRES>,
        <https://w3id.org/cdisc/cosmos/dss/RS/APCH111/RSORRESU>,
        <https://w3id.org/cdisc/cosmos/dss/RS/APCH111/RSSTRESC>,
        <https://w3id.org/cdisc/cosmos/dss/RS/APCH111/RSSTRESN>,
        <https://w3id.org/cdisc/cosmos/dss/RS/APCH111/RSTEST>,
        <https://w3id.org/cdisc/cosmos/dss/RS/APCH111/RSTESTCD> .

<https://w3id.org/cdisc/cosmos/dss/RS/APCH112> a cosmos_sdtm:SDTMGroup ;
    dcterms:identifier "APCH112" ;
    rdf:_1 <https://w3id.org/cdisc/cosmos/dss/RS/APCH112/RSTESTCD> ;
    rdf:_2 <https://w3id.org/cdisc/cosmos/dss/RS/APCH112/RSTEST> ;
    rdf:_3 <https://w3id.org/cdisc/cosmos/dss/RS/APCH112/RSCAT> ;
    rdf:_4 <https://w3id.org/cdisc/cosmos/dss/RS/APCH112/RSORRES> ;
    rdf:_5 <https://w3id.org/cdisc/cosmos/dss/RS/APCH112/RSSTRESC> ;
    rdf:_6 <https://w3id.org/cdisc/cosmos/dss/RS/APCH112/RSSTRESN> ;
    rdf:_7 <https://w3id.org/cdisc/cosmos/dss/RS/APCH112/RSDTC> ;
    cosmos_sdtm:biomedicalConceptId NCIT:C121109 ;
    cosmos_sdtm:domain "RS" ;
    cosmos_sdtm:packageDate "2026-05-26"^^xsd:date ;
    cosmos_sdtm:packageType <https://www.cdisc.org/cosmos/sdtm_v1.0/PackageTypeEnum#sdtm> ;
    cosmos_sdtm:sdtmigStartVersion "3-2" ;
    cosmos_sdtm:shortName "APCH1-15 Minus Glasgow Coma Score" ;
    cosmos_sdtm:source "RS.RSTESTCD" ;
    cosmos_sdtm:variables <https://w3id.org/cdisc/cosmos/dss/RS/APCH112/RSCAT>,
        <https://w3id.org/cdisc/cosmos/dss/RS/APCH112/RSDTC>,
        <https://w3id.org/cdisc/cosmos/dss/RS/APCH112/RSORRES>,
        <https://w3id.org/cdisc/cosmos/dss/RS/APCH112/RSSTRESC>,
        <https://w3id.org/cdisc/cosmos/dss/RS/APCH112/RSSTRESN>,
        <https://w3id.org/cdisc/cosmos/dss/RS/APCH112/RSTEST>,
        <https://w3id.org/cdisc/cosmos/dss/RS/APCH112/RSTESTCD> .

<https://w3id.org/cdisc/cosmos/dss/RS/APCH113> a cosmos_sdtm:SDTMGroup ;
    dcterms:identifier "APCH113" ;
    rdf:_1 <https://w3id.org/cdisc/cosmos/dss/RS/APCH113/RSTESTCD> ;
    rdf:_2 <https://w3id.org/cdisc/cosmos/dss/RS/APCH113/RSTEST> ;
    rdf:_3 <https://w3id.org/cdisc/cosmos/dss/RS/APCH113/RSCAT> ;
    rdf:_4 <https://w3id.org/cdisc/cosmos/dss/RS/APCH113/RSORRES> ;
    rdf:_5 <https://w3id.org/cdisc/cosmos/dss/RS/APCH113/RSSTRESC> ;
    rdf:_6 <https://w3id.org/cdisc/cosmos/dss/RS/APCH113/RSSTRESN> ;
    rdf:_7 <https://w3id.org/cdisc/cosmos/dss/RS/APCH113/RSDTC> ;
    cosmos_sdtm:biomedicalConceptId NCIT:C121110 ;
    cosmos_sdtm:domain "RS" ;
    cosmos_sdtm:packageDate "2026-05-26"^^xsd:date ;
    cosmos_sdtm:packageType <https://www.cdisc.org/cosmos/sdtm_v1.0/PackageTypeEnum#sdtm> ;
    cosmos_sdtm:sdtmigStartVersion "3-2" ;
    cosmos_sdtm:shortName "APCH1-A: Total Acute Physiology Score" ;
    cosmos_sdtm:source "RS.RSTESTCD" ;
    cosmos_sdtm:variables <https://w3id.org/cdisc/cosmos/dss/RS/APCH113/RSCAT>,
        <https://w3id.org/cdisc/cosmos/dss/RS/APCH113/RSDTC>,
        <https://w3id.org/cdisc/cosmos/dss/RS/APCH113/RSORRES>,
        <https://w3id.org/cdisc/cosmos/dss/RS/APCH113/RSSTRESC>,
        <https://w3id.org/cdisc/cosmos/dss/RS/APCH113/RSSTRESN>,
        <https://w3id.org/cdisc/cosmos/dss/RS/APCH113/RSTEST>,
        <https://w3id.org/cdisc/cosmos/dss/RS/APCH113/RSTESTCD> .

<https://w3id.org/cdisc/cosmos/dss/RS/APCH114> a cosmos_sdtm:SDTMGroup ;
    dcterms:identifier "APCH114" ;
    rdf:_1 <https://w3id.org/cdisc/cosmos/dss/RS/APCH114/RSTESTCD> ;
    rdf:_2 <https://w3id.org/cdisc/cosmos/dss/RS/APCH114/RSTEST> ;
    rdf:_3 <https://w3id.org/cdisc/cosmos/dss/RS/APCH114/RSCAT> ;
    rdf:_4 <https://w3id.org/cdisc/cosmos/dss/RS/APCH114/RSORRES> ;
    rdf:_5 <https://w3id.org/cdisc/cosmos/dss/RS/APCH114/RSORRESU> ;
    rdf:_6 <https://w3id.org/cdisc/cosmos/dss/RS/APCH114/RSSTRESC> ;
    rdf:_7 <https://w3id.org/cdisc/cosmos/dss/RS/APCH114/RSSTRESN> ;
    rdf:_8 <https://w3id.org/cdisc/cosmos/dss/RS/APCH114/RSDTC> ;
    cosmos_sdtm:biomedicalConceptId NCIT:C121111 ;
    cosmos_sdtm:domain "RS" ;
    cosmos_sdtm:packageDate "2026-05-26"^^xsd:date ;
    cosmos_sdtm:packageType <https://www.cdisc.org/cosmos/sdtm_v1.0/PackageTypeEnum#sdtm> ;
    cosmos_sdtm:sdtmigStartVersion "3-2" ;
    cosmos_sdtm:shortName "APCH1-B: Age Points" ;
    cosmos_sdtm:source "RS.RSTESTCD" ;
    cosmos_sdtm:variables <https://w3id.org/cdisc/cosmos/dss/RS/APCH114/RSCAT>,
        <https://w3id.org/cdisc/cosmos/dss/RS/APCH114/RSDTC>,
        <https://w3id.org/cdisc/cosmos/dss/RS/APCH114/RSORRES>,
        <https://w3id.org/cdisc/cosmos/dss/RS/APCH114/RSORRESU>,
        <https://w3id.org/cdisc/cosmos/dss/RS/APCH114/RSSTRESC>,
        <https://w3id.org/cdisc/cosmos/dss/RS/APCH114/RSSTRESN>,
        <https://w3id.org/cdisc/cosmos/dss/RS/APCH114/RSTEST>,
        <https://w3id.org/cdisc/cosmos/dss/RS/APCH114/RSTESTCD> .

<https://w3id.org/cdisc/cosmos/dss/RS/APCH115> a cosmos_sdtm:SDTMGroup ;
    dcterms:identifier "APCH115" ;
    rdf:_1 <https://w3id.org/cdisc/cosmos/dss/RS/APCH115/RSTESTCD> ;
    rdf:_2 <https://w3id.org/cdisc/cosmos/dss/RS/APCH115/RSTEST> ;
    rdf:_3 <https://w3id.org/cdisc/cosmos/dss/RS/APCH115/RSCAT> ;
    rdf:_4 <https://w3id.org/cdisc/cosmos/dss/RS/APCH115/RSORRES> ;
    rdf:_5 <https://w3id.org/cdisc/cosmos/dss/RS/APCH115/RSSTRESC> ;
    rdf:_6 <https://w3id.org/cdisc/cosmos/dss/RS/APCH115/RSSTRESN> ;
    rdf:_7 <https://w3id.org/cdisc/cosmos/dss/RS/APCH115/RSDTC> ;
    cosmos_sdtm:biomedicalConceptId NCIT:C121112 ;
    cosmos_sdtm:domain "RS" ;
    cosmos_sdtm:packageDate "2026-05-26"^^xsd:date ;
    cosmos_sdtm:packageType <https://www.cdisc.org/cosmos/sdtm_v1.0/PackageTypeEnum#sdtm> ;
    cosmos_sdtm:sdtmigStartVersion "3-2" ;
    cosmos_sdtm:shortName "APCH1-C: Chronic Health Points" ;
    cosmos_sdtm:source "RS.RSTESTCD" ;
    cosmos_sdtm:variables <https://w3id.org/cdisc/cosmos/dss/RS/APCH115/RSCAT>,
        <https://w3id.org/cdisc/cosmos/dss/RS/APCH115/RSDTC>,
        <https://w3id.org/cdisc/cosmos/dss/RS/APCH115/RSORRES>,
        <https://w3id.org/cdisc/cosmos/dss/RS/APCH115/RSSTRESC>,
        <https://w3id.org/cdisc/cosmos/dss/RS/APCH115/RSSTRESN>,
        <https://w3id.org/cdisc/cosmos/dss/RS/APCH115/RSTEST>,
        <https://w3id.org/cdisc/cosmos/dss/RS/APCH115/RSTESTCD> .

<https://w3id.org/cdisc/cosmos/dss/RS/APCH116> a cosmos_sdtm:SDTMGroup ;
    dcterms:identifier "APCH116" ;
    rdf:_1 <https://w3id.org/cdisc/cosmos/dss/RS/APCH116/RSTESTCD> ;
    rdf:_2 <https://w3id.org/cdisc/cosmos/dss/RS/APCH116/RSTEST> ;
    rdf:_3 <https://w3id.org/cdisc/cosmos/dss/RS/APCH116/RSCAT> ;
    rdf:_4 <https://w3id.org/cdisc/cosmos/dss/RS/APCH116/RSORRES> ;
    rdf:_5 <https://w3id.org/cdisc/cosmos/dss/RS/APCH116/RSSTRESC> ;
    rdf:_6 <https://w3id.org/cdisc/cosmos/dss/RS/APCH116/RSSTRESN> ;
    rdf:_7 <https://w3id.org/cdisc/cosmos/dss/RS/APCH116/RSDTC> ;
    cosmos_sdtm:biomedicalConceptId NCIT:C121113 ;
    cosmos_sdtm:domain "RS" ;
    cosmos_sdtm:packageDate "2026-05-26"^^xsd:date ;
    cosmos_sdtm:packageType <https://www.cdisc.org/cosmos/sdtm_v1.0/PackageTypeEnum#sdtm> ;
    cosmos_sdtm:sdtmigStartVersion "3-2" ;
    cosmos_sdtm:shortName "APCH1-Total APACHE II Score" ;
    cosmos_sdtm:source "RS.RSTESTCD" ;
    cosmos_sdtm:variables <https://w3id.org/cdisc/cosmos/dss/RS/APCH116/RSCAT>,
        <https://w3id.org/cdisc/cosmos/dss/RS/APCH116/RSDTC>,
        <https://w3id.org/cdisc/cosmos/dss/RS/APCH116/RSORRES>,
        <https://w3id.org/cdisc/cosmos/dss/RS/APCH116/RSSTRESC>,
        <https://w3id.org/cdisc/cosmos/dss/RS/APCH116/RSSTRESN>,
        <https://w3id.org/cdisc/cosmos/dss/RS/APCH116/RSTEST>,
        <https://w3id.org/cdisc/cosmos/dss/RS/APCH116/RSTESTCD> .

<https://w3id.org/cdisc/cosmos/dss/RS/ATLAS101> a cosmos_sdtm:SDTMGroup ;
    dcterms:identifier "ATLAS101" ;
    rdf:_1 <https://w3id.org/cdisc/cosmos/dss/RS/ATLAS101/RSTESTCD> ;
    rdf:_2 <https://w3id.org/cdisc/cosmos/dss/RS/ATLAS101/RSTEST> ;
    rdf:_3 <https://w3id.org/cdisc/cosmos/dss/RS/ATLAS101/RSCAT> ;
    rdf:_4 <https://w3id.org/cdisc/cosmos/dss/RS/ATLAS101/RSORRES> ;
    rdf:_5 <https://w3id.org/cdisc/cosmos/dss/RS/ATLAS101/RSORRESU> ;
    rdf:_6 <https://w3id.org/cdisc/cosmos/dss/RS/ATLAS101/RSSTRESC> ;
    rdf:_7 <https://w3id.org/cdisc/cosmos/dss/RS/ATLAS101/RSSTRESN> ;
    rdf:_8 <https://w3id.org/cdisc/cosmos/dss/RS/ATLAS101/RSDTC> ;
    cosmos_sdtm:biomedicalConceptId NCIT:C147843 ;
    cosmos_sdtm:domain "RS" ;
    cosmos_sdtm:packageDate "2026-05-26"^^xsd:date ;
    cosmos_sdtm:packageType <https://www.cdisc.org/cosmos/sdtm_v1.0/PackageTypeEnum#sdtm> ;
    cosmos_sdtm:sdtmigStartVersion "3-2" ;
    cosmos_sdtm:shortName "ATLAS1-Age" ;
    cosmos_sdtm:source "RS.RSTESTCD" ;
    cosmos_sdtm:variables <https://w3id.org/cdisc/cosmos/dss/RS/ATLAS101/RSCAT>,
        <https://w3id.org/cdisc/cosmos/dss/RS/ATLAS101/RSDTC>,
        <https://w3id.org/cdisc/cosmos/dss/RS/ATLAS101/RSORRES>,
        <https://w3id.org/cdisc/cosmos/dss/RS/ATLAS101/RSORRESU>,
        <https://w3id.org/cdisc/cosmos/dss/RS/ATLAS101/RSSTRESC>,
        <https://w3id.org/cdisc/cosmos/dss/RS/ATLAS101/RSSTRESN>,
        <https://w3id.org/cdisc/cosmos/dss/RS/ATLAS101/RSTEST>,
        <https://w3id.org/cdisc/cosmos/dss/RS/ATLAS101/RSTESTCD> .

<https://w3id.org/cdisc/cosmos/dss/RS/ATLAS102> a cosmos_sdtm:SDTMGroup ;
    dcterms:identifier "ATLAS102" ;
    rdf:_1 <https://w3id.org/cdisc/cosmos/dss/RS/ATLAS102/RSTESTCD> ;
    rdf:_2 <https://w3id.org/cdisc/cosmos/dss/RS/ATLAS102/RSTEST> ;
    rdf:_3 <https://w3id.org/cdisc/cosmos/dss/RS/ATLAS102/RSCAT> ;
    rdf:_4 <https://w3id.org/cdisc/cosmos/dss/RS/ATLAS102/RSORRES> ;
    rdf:_5 <https://w3id.org/cdisc/cosmos/dss/RS/ATLAS102/RSSTRESC> ;
    rdf:_6 <https://w3id.org/cdisc/cosmos/dss/RS/ATLAS102/RSSTRESN> ;
    rdf:_7 <https://w3id.org/cdisc/cosmos/dss/RS/ATLAS102/RSDTC> ;
    cosmos_sdtm:biomedicalConceptId NCIT:C147844 ;
    cosmos_sdtm:domain "RS" ;
    cosmos_sdtm:packageDate "2026-05-26"^^xsd:date ;
    cosmos_sdtm:packageType <https://www.cdisc.org/cosmos/sdtm_v1.0/PackageTypeEnum#sdtm> ;
    cosmos_sdtm:sdtmigStartVersion "3-2" ;
    cosmos_sdtm:shortName "ATLAS1-Treatment With Antibiotics" ;
    cosmos_sdtm:source "RS.RSTESTCD" ;
    cosmos_sdtm:variables <https://w3id.org/cdisc/cosmos/dss/RS/ATLAS102/RSCAT>,
        <https://w3id.org/cdisc/cosmos/dss/RS/ATLAS102/RSDTC>,
        <https://w3id.org/cdisc/cosmos/dss/RS/ATLAS102/RSORRES>,
        <https://w3id.org/cdisc/cosmos/dss/RS/ATLAS102/RSSTRESC>,
        <https://w3id.org/cdisc/cosmos/dss/RS/ATLAS102/RSSTRESN>,
        <https://w3id.org/cdisc/cosmos/dss/RS/ATLAS102/RSTEST>,
        <https://w3id.org/cdisc/cosmos/dss/RS/ATLAS102/RSTESTCD> .

<https://w3id.org/cdisc/cosmos/dss/RS/ATLAS103> a cosmos_sdtm:SDTMGroup ;
    dcterms:identifier "ATLAS103" ;
    rdf:_1 <https://w3id.org/cdisc/cosmos/dss/RS/ATLAS103/RSTESTCD> ;
    rdf:_2 <https://w3id.org/cdisc/cosmos/dss/RS/ATLAS103/RSTEST> ;
    rdf:_3 <https://w3id.org/cdisc/cosmos/dss/RS/ATLAS103/RSCAT> ;
    rdf:_4 <https://w3id.org/cdisc/cosmos/dss/RS/ATLAS103/RSORRES> ;
    rdf:_5 <https://w3id.org/cdisc/cosmos/dss/RS/ATLAS103/RSSTRESC> ;
    rdf:_6 <https://w3id.org/cdisc/cosmos/dss/RS/ATLAS103/RSSTRESN> ;
    rdf:_7 <https://w3id.org/cdisc/cosmos/dss/RS/ATLAS103/RSDTC> ;
    cosmos_sdtm:biomedicalConceptId NCIT:C147845 ;
    cosmos_sdtm:domain "RS" ;
    cosmos_sdtm:packageDate "2026-05-26"^^xsd:date ;
    cosmos_sdtm:packageType <https://www.cdisc.org/cosmos/sdtm_v1.0/PackageTypeEnum#sdtm> ;
    cosmos_sdtm:sdtmigStartVersion "3-2" ;
    cosmos_sdtm:shortName "ATLAS1-Leukocyte Count" ;
    cosmos_sdtm:source "RS.RSTESTCD" ;
    cosmos_sdtm:variables <https://w3id.org/cdisc/cosmos/dss/RS/ATLAS103/RSCAT>,
        <https://w3id.org/cdisc/cosmos/dss/RS/ATLAS103/RSDTC>,
        <https://w3id.org/cdisc/cosmos/dss/RS/ATLAS103/RSORRES>,
        <https://w3id.org/cdisc/cosmos/dss/RS/ATLAS103/RSSTRESC>,
        <https://w3id.org/cdisc/cosmos/dss/RS/ATLAS103/RSSTRESN>,
        <https://w3id.org/cdisc/cosmos/dss/RS/ATLAS103/RSTEST>,
        <https://w3id.org/cdisc/cosmos/dss/RS/ATLAS103/RSTESTCD> .

<https://w3id.org/cdisc/cosmos/dss/RS/ATLAS104> a cosmos_sdtm:SDTMGroup ;
    dcterms:identifier "ATLAS104" ;
    rdf:_1 <https://w3id.org/cdisc/cosmos/dss/RS/ATLAS104/RSTESTCD> ;
    rdf:_2 <https://w3id.org/cdisc/cosmos/dss/RS/ATLAS104/RSTEST> ;
    rdf:_3 <https://w3id.org/cdisc/cosmos/dss/RS/ATLAS104/RSCAT> ;
    rdf:_4 <https://w3id.org/cdisc/cosmos/dss/RS/ATLAS104/RSORRES> ;
    rdf:_5 <https://w3id.org/cdisc/cosmos/dss/RS/ATLAS104/RSORRESU> ;
    rdf:_6 <https://w3id.org/cdisc/cosmos/dss/RS/ATLAS104/RSSTRESC> ;
    rdf:_7 <https://w3id.org/cdisc/cosmos/dss/RS/ATLAS104/RSSTRESN> ;
    rdf:_8 <https://w3id.org/cdisc/cosmos/dss/RS/ATLAS104/RSDTC> ;
    cosmos_sdtm:biomedicalConceptId NCIT:C147846 ;
    cosmos_sdtm:domain "RS" ;
    cosmos_sdtm:packageDate "2026-05-26"^^xsd:date ;
    cosmos_sdtm:packageType <https://www.cdisc.org/cosmos/sdtm_v1.0/PackageTypeEnum#sdtm> ;
    cosmos_sdtm:sdtmigStartVersion "3-2" ;
    cosmos_sdtm:shortName "ATLAS1-Albumin" ;
    cosmos_sdtm:source "RS.RSTESTCD" ;
    cosmos_sdtm:variables <https://w3id.org/cdisc/cosmos/dss/RS/ATLAS104/RSCAT>,
        <https://w3id.org/cdisc/cosmos/dss/RS/ATLAS104/RSDTC>,
        <https://w3id.org/cdisc/cosmos/dss/RS/ATLAS104/RSORRES>,
        <https://w3id.org/cdisc/cosmos/dss/RS/ATLAS104/RSORRESU>,
        <https://w3id.org/cdisc/cosmos/dss/RS/ATLAS104/RSSTRESC>,
        <https://w3id.org/cdisc/cosmos/dss/RS/ATLAS104/RSSTRESN>,
        <https://w3id.org/cdisc/cosmos/dss/RS/ATLAS104/RSTEST>,
        <https://w3id.org/cdisc/cosmos/dss/RS/ATLAS104/RSTESTCD> .

<https://w3id.org/cdisc/cosmos/dss/RS/ATLAS105> a cosmos_sdtm:SDTMGroup ;
    dcterms:identifier "ATLAS105" ;
    rdf:_1 <https://w3id.org/cdisc/cosmos/dss/RS/ATLAS105/RSTESTCD> ;
    rdf:_2 <https://w3id.org/cdisc/cosmos/dss/RS/ATLAS105/RSTEST> ;
    rdf:_3 <https://w3id.org/cdisc/cosmos/dss/RS/ATLAS105/RSCAT> ;
    rdf:_4 <https://w3id.org/cdisc/cosmos/dss/RS/ATLAS105/RSORRES> ;
    rdf:_5 <https://w3id.org/cdisc/cosmos/dss/RS/ATLAS105/RSORRESU> ;
    rdf:_6 <https://w3id.org/cdisc/cosmos/dss/RS/ATLAS105/RSSTRESC> ;
    rdf:_7 <https://w3id.org/cdisc/cosmos/dss/RS/ATLAS105/RSSTRESN> ;
    rdf:_8 <https://w3id.org/cdisc/cosmos/dss/RS/ATLAS105/RSDTC> ;
    cosmos_sdtm:biomedicalConceptId NCIT:C147847 ;
    cosmos_sdtm:domain "RS" ;
    cosmos_sdtm:packageDate "2026-05-26"^^xsd:date ;
    cosmos_sdtm:packageType <https://www.cdisc.org/cosmos/sdtm_v1.0/PackageTypeEnum#sdtm> ;
    cosmos_sdtm:sdtmigStartVersion "3-2" ;
    cosmos_sdtm:shortName "ATLAS1-Serum Creatinine" ;
    cosmos_sdtm:source "RS.RSTESTCD" ;
    cosmos_sdtm:variables <https://w3id.org/cdisc/cosmos/dss/RS/ATLAS105/RSCAT>,
        <https://w3id.org/cdisc/cosmos/dss/RS/ATLAS105/RSDTC>,
        <https://w3id.org/cdisc/cosmos/dss/RS/ATLAS105/RSORRES>,
        <https://w3id.org/cdisc/cosmos/dss/RS/ATLAS105/RSORRESU>,
        <https://w3id.org/cdisc/cosmos/dss/RS/ATLAS105/RSSTRESC>,
        <https://w3id.org/cdisc/cosmos/dss/RS/ATLAS105/RSSTRESN>,
        <https://w3id.org/cdisc/cosmos/dss/RS/ATLAS105/RSTEST>,
        <https://w3id.org/cdisc/cosmos/dss/RS/ATLAS105/RSTESTCD> .

<https://w3id.org/cdisc/cosmos/dss/RS/ATLAS106> a cosmos_sdtm:SDTMGroup ;
    dcterms:identifier "ATLAS106" ;
    rdf:_1 <https://w3id.org/cdisc/cosmos/dss/RS/ATLAS106/RSTESTCD> ;
    rdf:_2 <https://w3id.org/cdisc/cosmos/dss/RS/ATLAS106/RSTEST> ;
    rdf:_3 <https://w3id.org/cdisc/cosmos/dss/RS/ATLAS106/RSCAT> ;
    rdf:_4 <https://w3id.org/cdisc/cosmos/dss/RS/ATLAS106/RSORRES> ;
    rdf:_5 <https://w3id.org/cdisc/cosmos/dss/RS/ATLAS106/RSSTRESC> ;
    rdf:_6 <https://w3id.org/cdisc/cosmos/dss/RS/ATLAS106/RSSTRESN> ;
    rdf:_7 <https://w3id.org/cdisc/cosmos/dss/RS/ATLAS106/RSDTC> ;
    cosmos_sdtm:biomedicalConceptId NCIT:C147848 ;
    cosmos_sdtm:domain "RS" ;
    cosmos_sdtm:packageDate "2026-05-26"^^xsd:date ;
    cosmos_sdtm:packageType <https://www.cdisc.org/cosmos/sdtm_v1.0/PackageTypeEnum#sdtm> ;
    cosmos_sdtm:sdtmigStartVersion "3-2" ;
    cosmos_sdtm:shortName "ATLAS1-Score" ;
    cosmos_sdtm:source "RS.RSTESTCD" ;
    cosmos_sdtm:variables <https://w3id.org/cdisc/cosmos/dss/RS/ATLAS106/RSCAT>,
        <https://w3id.org/cdisc/cosmos/dss/RS/ATLAS106/RSDTC>,
        <https://w3id.org/cdisc/cosmos/dss/RS/ATLAS106/RSORRES>,
        <https://w3id.org/cdisc/cosmos/dss/RS/ATLAS106/RSSTRESC>,
        <https://w3id.org/cdisc/cosmos/dss/RS/ATLAS106/RSSTRESN>,
        <https://w3id.org/cdisc/cosmos/dss/RS/ATLAS106/RSTEST>,
        <https://w3id.org/cdisc/cosmos/dss/RS/ATLAS106/RSTESTCD> .

<https://w3id.org/cdisc/cosmos/dss/RS/BESTRESP> a cosmos_sdtm:SDTMGroup ;
    dcterms:identifier "BESTRESP" ;
    rdf:_1 <https://w3id.org/cdisc/cosmos/dss/RS/BESTRESP/RSLNKGRP> ;
    rdf:_2 <https://w3id.org/cdisc/cosmos/dss/RS/BESTRESP/RSTESTCD> ;
    rdf:_3 <https://w3id.org/cdisc/cosmos/dss/RS/BESTRESP/RSTEST> ;
    rdf:_4 <https://w3id.org/cdisc/cosmos/dss/RS/BESTRESP/RSCAT> ;
    rdf:_5 <https://w3id.org/cdisc/cosmos/dss/RS/BESTRESP/RSORRES> ;
    rdf:_6 <https://w3id.org/cdisc/cosmos/dss/RS/BESTRESP/RSSTRESC> ;
    rdf:_7 <https://w3id.org/cdisc/cosmos/dss/RS/BESTRESP/RSEVAL> ;
    rdf:_8 <https://w3id.org/cdisc/cosmos/dss/RS/BESTRESP/RSEVALID> ;
    rdf:_9 <https://w3id.org/cdisc/cosmos/dss/RS/BESTRESP/RSDTC> ;
    cosmos_sdtm:biomedicalConceptId NCIT:C94536 ;
    cosmos_sdtm:domain "RS" ;
    cosmos_sdtm:packageDate "2026-05-26"^^xsd:date ;
    cosmos_sdtm:packageType <https://www.cdisc.org/cosmos/sdtm_v1.0/PackageTypeEnum#sdtm> ;
    cosmos_sdtm:sdtmigStartVersion "3-2" ;
    cosmos_sdtm:shortName "Best Overall Response (RECIST 1.1)" ;
    cosmos_sdtm:source "RS.RSTESTCD" ;
    cosmos_sdtm:variables <https://w3id.org/cdisc/cosmos/dss/RS/BESTRESP/RSCAT>,
        <https://w3id.org/cdisc/cosmos/dss/RS/BESTRESP/RSDTC>,
        <https://w3id.org/cdisc/cosmos/dss/RS/BESTRESP/RSEVAL>,
        <https://w3id.org/cdisc/cosmos/dss/RS/BESTRESP/RSEVALID>,
        <https://w3id.org/cdisc/cosmos/dss/RS/BESTRESP/RSLNKGRP>,
        <https://w3id.org/cdisc/cosmos/dss/RS/BESTRESP/RSORRES>,
        <https://w3id.org/cdisc/cosmos/dss/RS/BESTRESP/RSSTRESC>,
        <https://w3id.org/cdisc/cosmos/dss/RS/BESTRESP/RSTEST>,
        <https://w3id.org/cdisc/cosmos/dss/RS/BESTRESP/RSTESTCD> .

<https://w3id.org/cdisc/cosmos/dss/RS/BMIVLIND_LUGANO> a cosmos_sdtm:SDTMGroup ;
    dcterms:identifier "BMIVLIND_LUGANO" ;
    rdf:_1 <https://w3id.org/cdisc/cosmos/dss/RS/BMIVLIND_LUGANO/RSTESTCD> ;
    rdf:_2 <https://w3id.org/cdisc/cosmos/dss/RS/BMIVLIND_LUGANO/RSTEST> ;
    rdf:_3 <https://w3id.org/cdisc/cosmos/dss/RS/BMIVLIND_LUGANO/RSCAT> ;
    rdf:_4 <https://w3id.org/cdisc/cosmos/dss/RS/BMIVLIND_LUGANO/RSORRES> ;
    rdf:_5 <https://w3id.org/cdisc/cosmos/dss/RS/BMIVLIND_LUGANO/RSSTRESC> ;
    rdf:_6 <https://w3id.org/cdisc/cosmos/dss/RS/BMIVLIND_LUGANO/RSEVAL> ;
    rdf:_7 <https://w3id.org/cdisc/cosmos/dss/RS/BMIVLIND_LUGANO/RSEVALID> ;
    rdf:_8 <https://w3id.org/cdisc/cosmos/dss/RS/BMIVLIND_LUGANO/RSDTC> ;
    cosmos_sdtm:biomedicalConceptId NCIT:C135477 ;
    cosmos_sdtm:domain "RS" ;
    cosmos_sdtm:packageDate "2026-05-26"^^xsd:date ;
    cosmos_sdtm:packageType <https://www.cdisc.org/cosmos/sdtm_v1.0/PackageTypeEnum#sdtm> ;
    cosmos_sdtm:sdtmigStartVersion "3-2" ;
    cosmos_sdtm:shortName "Bone Marrow Involvement Indicator (Lugano Classification)" ;
    cosmos_sdtm:source "RS.RSTESTCD" ;
    cosmos_sdtm:variables <https://w3id.org/cdisc/cosmos/dss/RS/BMIVLIND_LUGANO/RSCAT>,
        <https://w3id.org/cdisc/cosmos/dss/RS/BMIVLIND_LUGANO/RSDTC>,
        <https://w3id.org/cdisc/cosmos/dss/RS/BMIVLIND_LUGANO/RSEVAL>,
        <https://w3id.org/cdisc/cosmos/dss/RS/BMIVLIND_LUGANO/RSEVALID>,
        <https://w3id.org/cdisc/cosmos/dss/RS/BMIVLIND_LUGANO/RSORRES>,
        <https://w3id.org/cdisc/cosmos/dss/RS/BMIVLIND_LUGANO/RSSTRESC>,
        <https://w3id.org/cdisc/cosmos/dss/RS/BMIVLIND_LUGANO/RSTEST>,
        <https://w3id.org/cdisc/cosmos/dss/RS/BMIVLIND_LUGANO/RSTESTCD> .

<https://w3id.org/cdisc/cosmos/dss/RS/BPRSA101> a cosmos_sdtm:SDTMGroup ;
    dcterms:identifier "BPRSA101" ;
    rdf:_1 <https://w3id.org/cdisc/cosmos/dss/RS/BPRSA101/RSTESTCD> ;
    rdf:_2 <https://w3id.org/cdisc/cosmos/dss/RS/BPRSA101/RSTEST> ;
    rdf:_3 <https://w3id.org/cdisc/cosmos/dss/RS/BPRSA101/RSCAT> ;
    rdf:_4 <https://w3id.org/cdisc/cosmos/dss/RS/BPRSA101/RSORRES> ;
    rdf:_5 <https://w3id.org/cdisc/cosmos/dss/RS/BPRSA101/RSSTRESC> ;
    rdf:_6 <https://w3id.org/cdisc/cosmos/dss/RS/BPRSA101/RSSTRESN> ;
    rdf:_7 <https://w3id.org/cdisc/cosmos/dss/RS/BPRSA101/RSDTC> ;
    rdf:_8 <https://w3id.org/cdisc/cosmos/dss/RS/BPRSA101/RSEVLINT> ;
    cosmos_sdtm:biomedicalConceptId NCIT:C100372 ;
    cosmos_sdtm:domain "RS" ;
    cosmos_sdtm:packageDate "2026-05-26"^^xsd:date ;
    cosmos_sdtm:packageType <https://www.cdisc.org/cosmos/sdtm_v1.0/PackageTypeEnum#sdtm> ;
    cosmos_sdtm:sdtmigStartVersion "3-2" ;
    cosmos_sdtm:shortName "BPRSA1-Somatic Concern" ;
    cosmos_sdtm:source "RS.RSTESTCD" ;
    cosmos_sdtm:variables <https://w3id.org/cdisc/cosmos/dss/RS/BPRSA101/RSCAT>,
        <https://w3id.org/cdisc/cosmos/dss/RS/BPRSA101/RSDTC>,
        <https://w3id.org/cdisc/cosmos/dss/RS/BPRSA101/RSEVLINT>,
        <https://w3id.org/cdisc/cosmos/dss/RS/BPRSA101/RSORRES>,
        <https://w3id.org/cdisc/cosmos/dss/RS/BPRSA101/RSSTRESC>,
        <https://w3id.org/cdisc/cosmos/dss/RS/BPRSA101/RSSTRESN>,
        <https://w3id.org/cdisc/cosmos/dss/RS/BPRSA101/RSTEST>,
        <https://w3id.org/cdisc/cosmos/dss/RS/BPRSA101/RSTESTCD> .

<https://w3id.org/cdisc/cosmos/dss/RS/BPRSA102> a cosmos_sdtm:SDTMGroup ;
    dcterms:identifier "BPRSA102" ;
    rdf:_1 <https://w3id.org/cdisc/cosmos/dss/RS/BPRSA102/RSTESTCD> ;
    rdf:_2 <https://w3id.org/cdisc/cosmos/dss/RS/BPRSA102/RSTEST> ;
    rdf:_3 <https://w3id.org/cdisc/cosmos/dss/RS/BPRSA102/RSCAT> ;
    rdf:_4 <https://w3id.org/cdisc/cosmos/dss/RS/BPRSA102/RSORRES> ;
    rdf:_5 <https://w3id.org/cdisc/cosmos/dss/RS/BPRSA102/RSSTRESC> ;
    rdf:_6 <https://w3id.org/cdisc/cosmos/dss/RS/BPRSA102/RSSTRESN> ;
    rdf:_7 <https://w3id.org/cdisc/cosmos/dss/RS/BPRSA102/RSDTC> ;
    rdf:_8 <https://w3id.org/cdisc/cosmos/dss/RS/BPRSA102/RSEVLINT> ;
    cosmos_sdtm:biomedicalConceptId NCIT:C100373 ;
    cosmos_sdtm:domain "RS" ;
    cosmos_sdtm:packageDate "2026-05-26"^^xsd:date ;
    cosmos_sdtm:packageType <https://www.cdisc.org/cosmos/sdtm_v1.0/PackageTypeEnum#sdtm> ;
    cosmos_sdtm:sdtmigStartVersion "3-2" ;
    cosmos_sdtm:shortName "BPRSA1-Anxiety" ;
    cosmos_sdtm:source "RS.RSTESTCD" ;
    cosmos_sdtm:variables <https://w3id.org/cdisc/cosmos/dss/RS/BPRSA102/RSCAT>,
        <https://w3id.org/cdisc/cosmos/dss/RS/BPRSA102/RSDTC>,
        <https://w3id.org/cdisc/cosmos/dss/RS/BPRSA102/RSEVLINT>,
        <https://w3id.org/cdisc/cosmos/dss/RS/BPRSA102/RSORRES>,
        <https://w3id.org/cdisc/cosmos/dss/RS/BPRSA102/RSSTRESC>,
        <https://w3id.org/cdisc/cosmos/dss/RS/BPRSA102/RSSTRESN>,
        <https://w3id.org/cdisc/cosmos/dss/RS/BPRSA102/RSTEST>,
        <https://w3id.org/cdisc/cosmos/dss/RS/BPRSA102/RSTESTCD> .

<https://w3id.org/cdisc/cosmos/dss/RS/BPRSA103> a cosmos_sdtm:SDTMGroup ;
    dcterms:identifier "BPRSA103" ;
    rdf:_1 <https://w3id.org/cdisc/cosmos/dss/RS/BPRSA103/RSTESTCD> ;
    rdf:_2 <https://w3id.org/cdisc/cosmos/dss/RS/BPRSA103/RSTEST> ;
    rdf:_3 <https://w3id.org/cdisc/cosmos/dss/RS/BPRSA103/RSCAT> ;
    rdf:_4 <https://w3id.org/cdisc/cosmos/dss/RS/BPRSA103/RSORRES> ;
    rdf:_5 <https://w3id.org/cdisc/cosmos/dss/RS/BPRSA103/RSSTRESC> ;
    rdf:_6 <https://w3id.org/cdisc/cosmos/dss/RS/BPRSA103/RSSTRESN> ;
    rdf:_7 <https://w3id.org/cdisc/cosmos/dss/RS/BPRSA103/RSDTC> ;
    rdf:_8 <https://w3id.org/cdisc/cosmos/dss/RS/BPRSA103/RSEVINTX> ;
    cosmos_sdtm:biomedicalConceptId NCIT:C100374 ;
    cosmos_sdtm:domain "RS" ;
    cosmos_sdtm:packageDate "2026-05-26"^^xsd:date ;
    cosmos_sdtm:packageType <https://www.cdisc.org/cosmos/sdtm_v1.0/PackageTypeEnum#sdtm> ;
    cosmos_sdtm:sdtmigStartVersion "3-2" ;
    cosmos_sdtm:shortName "BPRSA1-Emotional Withdrawal" ;
    cosmos_sdtm:source "RS.RSTESTCD" ;
    cosmos_sdtm:variables <https://w3id.org/cdisc/cosmos/dss/RS/BPRSA103/RSCAT>,
        <https://w3id.org/cdisc/cosmos/dss/RS/BPRSA103/RSDTC>,
        <https://w3id.org/cdisc/cosmos/dss/RS/BPRSA103/RSEVINTX>,
        <https://w3id.org/cdisc/cosmos/dss/RS/BPRSA103/RSORRES>,
        <https://w3id.org/cdisc/cosmos/dss/RS/BPRSA103/RSSTRESC>,
        <https://w3id.org/cdisc/cosmos/dss/RS/BPRSA103/RSSTRESN>,
        <https://w3id.org/cdisc/cosmos/dss/RS/BPRSA103/RSTEST>,
        <https://w3id.org/cdisc/cosmos/dss/RS/BPRSA103/RSTESTCD> .

<https://w3id.org/cdisc/cosmos/dss/RS/BPRSA104> a cosmos_sdtm:SDTMGroup ;
    dcterms:identifier "BPRSA104" ;
    rdf:_1 <https://w3id.org/cdisc/cosmos/dss/RS/BPRSA104/RSTESTCD> ;
    rdf:_2 <https://w3id.org/cdisc/cosmos/dss/RS/BPRSA104/RSTEST> ;
    rdf:_3 <https://w3id.org/cdisc/cosmos/dss/RS/BPRSA104/RSCAT> ;
    rdf:_4 <https://w3id.org/cdisc/cosmos/dss/RS/BPRSA104/RSORRES> ;
    rdf:_5 <https://w3id.org/cdisc/cosmos/dss/RS/BPRSA104/RSSTRESC> ;
    rdf:_6 <https://w3id.org/cdisc/cosmos/dss/RS/BPRSA104/RSSTRESN> ;
    rdf:_7 <https://w3id.org/cdisc/cosmos/dss/RS/BPRSA104/RSDTC> ;
    rdf:_8 <https://w3id.org/cdisc/cosmos/dss/RS/BPRSA104/RSEVINTX> ;
    cosmos_sdtm:biomedicalConceptId NCIT:C100375 ;
    cosmos_sdtm:domain "RS" ;
    cosmos_sdtm:packageDate "2026-05-26"^^xsd:date ;
    cosmos_sdtm:packageType <https://www.cdisc.org/cosmos/sdtm_v1.0/PackageTypeEnum#sdtm> ;
    cosmos_sdtm:sdtmigStartVersion "3-2" ;
    cosmos_sdtm:shortName "BPRSA1-Conceptual Disorganization" ;
    cosmos_sdtm:source "RS.RSTESTCD" ;
    cosmos_sdtm:variables <https://w3id.org/cdisc/cosmos/dss/RS/BPRSA104/RSCAT>,
        <https://w3id.org/cdisc/cosmos/dss/RS/BPRSA104/RSDTC>,
        <https://w3id.org/cdisc/cosmos/dss/RS/BPRSA104/RSEVINTX>,
        <https://w3id.org/cdisc/cosmos/dss/RS/BPRSA104/RSORRES>,
        <https://w3id.org/cdisc/cosmos/dss/RS/BPRSA104/RSSTRESC>,
        <https://w3id.org/cdisc/cosmos/dss/RS/BPRSA104/RSSTRESN>,
        <https://w3id.org/cdisc/cosmos/dss/RS/BPRSA104/RSTEST>,
        <https://w3id.org/cdisc/cosmos/dss/RS/BPRSA104/RSTESTCD> .

<https://w3id.org/cdisc/cosmos/dss/RS/BPRSA105> a cosmos_sdtm:SDTMGroup ;
    dcterms:identifier "BPRSA105" ;
    rdf:_1 <https://w3id.org/cdisc/cosmos/dss/RS/BPRSA105/RSTESTCD> ;
    rdf:_2 <https://w3id.org/cdisc/cosmos/dss/RS/BPRSA105/RSTEST> ;
    rdf:_3 <https://w3id.org/cdisc/cosmos/dss/RS/BPRSA105/RSCAT> ;
    rdf:_4 <https://w3id.org/cdisc/cosmos/dss/RS/BPRSA105/RSORRES> ;
    rdf:_5 <https://w3id.org/cdisc/cosmos/dss/RS/BPRSA105/RSSTRESC> ;
    rdf:_6 <https://w3id.org/cdisc/cosmos/dss/RS/BPRSA105/RSSTRESN> ;
    rdf:_7 <https://w3id.org/cdisc/cosmos/dss/RS/BPRSA105/RSDTC> ;
    rdf:_8 <https://w3id.org/cdisc/cosmos/dss/RS/BPRSA105/RSEVLINT> ;
    cosmos_sdtm:biomedicalConceptId NCIT:C100376 ;
    cosmos_sdtm:domain "RS" ;
    cosmos_sdtm:packageDate "2026-05-26"^^xsd:date ;
    cosmos_sdtm:packageType <https://www.cdisc.org/cosmos/sdtm_v1.0/PackageTypeEnum#sdtm> ;
    cosmos_sdtm:sdtmigStartVersion "3-2" ;
    cosmos_sdtm:shortName "BPRSA1-Guilt Feelings" ;
    cosmos_sdtm:source "RS.RSTESTCD" ;
    cosmos_sdtm:variables <https://w3id.org/cdisc/cosmos/dss/RS/BPRSA105/RSCAT>,
        <https://w3id.org/cdisc/cosmos/dss/RS/BPRSA105/RSDTC>,
        <https://w3id.org/cdisc/cosmos/dss/RS/BPRSA105/RSEVLINT>,
        <https://w3id.org/cdisc/cosmos/dss/RS/BPRSA105/RSORRES>,
        <https://w3id.org/cdisc/cosmos/dss/RS/BPRSA105/RSSTRESC>,
        <https://w3id.org/cdisc/cosmos/dss/RS/BPRSA105/RSSTRESN>,
        <https://w3id.org/cdisc/cosmos/dss/RS/BPRSA105/RSTEST>,
        <https://w3id.org/cdisc/cosmos/dss/RS/BPRSA105/RSTESTCD> .

<https://w3id.org/cdisc/cosmos/dss/RS/BPRSA106> a cosmos_sdtm:SDTMGroup ;
    dcterms:identifier "BPRSA106" ;
    rdf:_1 <https://w3id.org/cdisc/cosmos/dss/RS/BPRSA106/RSTESTCD> ;
    rdf:_2 <https://w3id.org/cdisc/cosmos/dss/RS/BPRSA106/RSTEST> ;
    rdf:_3 <https://w3id.org/cdisc/cosmos/dss/RS/BPRSA106/RSCAT> ;
    rdf:_4 <https://w3id.org/cdisc/cosmos/dss/RS/BPRSA106/RSORRES> ;
    rdf:_5 <https://w3id.org/cdisc/cosmos/dss/RS/BPRSA106/RSSTRESC> ;
    rdf:_6 <https://w3id.org/cdisc/cosmos/dss/RS/BPRSA106/RSSTRESN> ;
    rdf:_7 <https://w3id.org/cdisc/cosmos/dss/RS/BPRSA106/RSDTC> ;
    rdf:_8 <https://w3id.org/cdisc/cosmos/dss/RS/BPRSA106/RSEVINTX> ;
    cosmos_sdtm:biomedicalConceptId NCIT:C100377 ;
    cosmos_sdtm:domain "RS" ;
    cosmos_sdtm:packageDate "2026-05-26"^^xsd:date ;
    cosmos_sdtm:packageType <https://www.cdisc.org/cosmos/sdtm_v1.0/PackageTypeEnum#sdtm> ;
    cosmos_sdtm:sdtmigStartVersion "3-2" ;
    cosmos_sdtm:shortName "BPRSA1-Tension" ;
    cosmos_sdtm:source "RS.RSTESTCD" ;
    cosmos_sdtm:variables <https://w3id.org/cdisc/cosmos/dss/RS/BPRSA106/RSCAT>,
        <https://w3id.org/cdisc/cosmos/dss/RS/BPRSA106/RSDTC>,
        <https://w3id.org/cdisc/cosmos/dss/RS/BPRSA106/RSEVINTX>,
        <https://w3id.org/cdisc/cosmos/dss/RS/BPRSA106/RSORRES>,
        <https://w3id.org/cdisc/cosmos/dss/RS/BPRSA106/RSSTRESC>,
        <https://w3id.org/cdisc/cosmos/dss/RS/BPRSA106/RSSTRESN>,
        <https://w3id.org/cdisc/cosmos/dss/RS/BPRSA106/RSTEST>,
        <https://w3id.org/cdisc/cosmos/dss/RS/BPRSA106/RSTESTCD> .

<https://w3id.org/cdisc/cosmos/dss/RS/BPRSA107> a cosmos_sdtm:SDTMGroup ;
    dcterms:identifier "BPRSA107" ;
    rdf:_1 <https://w3id.org/cdisc/cosmos/dss/RS/BPRSA107/RSTESTCD> ;
    rdf:_2 <https://w3id.org/cdisc/cosmos/dss/RS/BPRSA107/RSTEST> ;
    rdf:_3 <https://w3id.org/cdisc/cosmos/dss/RS/BPRSA107/RSCAT> ;
    rdf:_4 <https://w3id.org/cdisc/cosmos/dss/RS/BPRSA107/RSORRES> ;
    rdf:_5 <https://w3id.org/cdisc/cosmos/dss/RS/BPRSA107/RSSTRESC> ;
    rdf:_6 <https://w3id.org/cdisc/cosmos/dss/RS/BPRSA107/RSSTRESN> ;
    rdf:_7 <https://w3id.org/cdisc/cosmos/dss/RS/BPRSA107/RSDTC> ;
    cosmos_sdtm:biomedicalConceptId NCIT:C100378 ;
    cosmos_sdtm:domain "RS" ;
    cosmos_sdtm:packageDate "2026-05-26"^^xsd:date ;
    cosmos_sdtm:packageType <https://www.cdisc.org/cosmos/sdtm_v1.0/PackageTypeEnum#sdtm> ;
    cosmos_sdtm:sdtmigStartVersion "3-2" ;
    cosmos_sdtm:shortName "BPRSA1-Mannerisms and Posturing" ;
    cosmos_sdtm:source "RS.RSTESTCD" ;
    cosmos_sdtm:variables <https://w3id.org/cdisc/cosmos/dss/RS/BPRSA107/RSCAT>,
        <https://w3id.org/cdisc/cosmos/dss/RS/BPRSA107/RSDTC>,
        <https://w3id.org/cdisc/cosmos/dss/RS/BPRSA107/RSORRES>,
        <https://w3id.org/cdisc/cosmos/dss/RS/BPRSA107/RSSTRESC>,
        <https://w3id.org/cdisc/cosmos/dss/RS/BPRSA107/RSSTRESN>,
        <https://w3id.org/cdisc/cosmos/dss/RS/BPRSA107/RSTEST>,
        <https://w3id.org/cdisc/cosmos/dss/RS/BPRSA107/RSTESTCD> .

<https://w3id.org/cdisc/cosmos/dss/RS/BPRSA108> a cosmos_sdtm:SDTMGroup ;
    dcterms:identifier "BPRSA108" ;
    rdf:_1 <https://w3id.org/cdisc/cosmos/dss/RS/BPRSA108/RSTESTCD> ;
    rdf:_2 <https://w3id.org/cdisc/cosmos/dss/RS/BPRSA108/RSTEST> ;
    rdf:_3 <https://w3id.org/cdisc/cosmos/dss/RS/BPRSA108/RSCAT> ;
    rdf:_4 <https://w3id.org/cdisc/cosmos/dss/RS/BPRSA108/RSORRES> ;
    rdf:_5 <https://w3id.org/cdisc/cosmos/dss/RS/BPRSA108/RSSTRESC> ;
    rdf:_6 <https://w3id.org/cdisc/cosmos/dss/RS/BPRSA108/RSSTRESN> ;
    rdf:_7 <https://w3id.org/cdisc/cosmos/dss/RS/BPRSA108/RSDTC> ;
    rdf:_8 <https://w3id.org/cdisc/cosmos/dss/RS/BPRSA108/RSEVLINT> ;
    cosmos_sdtm:biomedicalConceptId NCIT:C100379 ;
    cosmos_sdtm:domain "RS" ;
    cosmos_sdtm:packageDate "2026-05-26"^^xsd:date ;
    cosmos_sdtm:packageType <https://www.cdisc.org/cosmos/sdtm_v1.0/PackageTypeEnum#sdtm> ;
    cosmos_sdtm:sdtmigStartVersion "3-2" ;
    cosmos_sdtm:shortName "BPRSA1-Grandiosity" ;
    cosmos_sdtm:source "RS.RSTESTCD" ;
    cosmos_sdtm:variables <https://w3id.org/cdisc/cosmos/dss/RS/BPRSA108/RSCAT>,
        <https://w3id.org/cdisc/cosmos/dss/RS/BPRSA108/RSDTC>,
        <https://w3id.org/cdisc/cosmos/dss/RS/BPRSA108/RSEVLINT>,
        <https://w3id.org/cdisc/cosmos/dss/RS/BPRSA108/RSORRES>,
        <https://w3id.org/cdisc/cosmos/dss/RS/BPRSA108/RSSTRESC>,
        <https://w3id.org/cdisc/cosmos/dss/RS/BPRSA108/RSSTRESN>,
        <https://w3id.org/cdisc/cosmos/dss/RS/BPRSA108/RSTEST>,
        <https://w3id.org/cdisc/cosmos/dss/RS/BPRSA108/RSTESTCD> .

<https://w3id.org/cdisc/cosmos/dss/RS/BPRSA109> a cosmos_sdtm:SDTMGroup ;
    dcterms:identifier "BPRSA109" ;
    rdf:_1 <https://w3id.org/cdisc/cosmos/dss/RS/BPRSA109/RSTESTCD> ;
    rdf:_2 <https://w3id.org/cdisc/cosmos/dss/RS/BPRSA109/RSTEST> ;
    rdf:_3 <https://w3id.org/cdisc/cosmos/dss/RS/BPRSA109/RSCAT> ;
    rdf:_4 <https://w3id.org/cdisc/cosmos/dss/RS/BPRSA109/RSORRES> ;
    rdf:_5 <https://w3id.org/cdisc/cosmos/dss/RS/BPRSA109/RSSTRESC> ;
    rdf:_6 <https://w3id.org/cdisc/cosmos/dss/RS/BPRSA109/RSSTRESN> ;
    rdf:_7 <https://w3id.org/cdisc/cosmos/dss/RS/BPRSA109/RSDTC> ;
    rdf:_8 <https://w3id.org/cdisc/cosmos/dss/RS/BPRSA109/RSEVLINT> ;
    cosmos_sdtm:biomedicalConceptId NCIT:C100380 ;
    cosmos_sdtm:domain "RS" ;
    cosmos_sdtm:packageDate "2026-05-26"^^xsd:date ;
    cosmos_sdtm:packageType <https://www.cdisc.org/cosmos/sdtm_v1.0/PackageTypeEnum#sdtm> ;
    cosmos_sdtm:sdtmigStartVersion "3-2" ;
    cosmos_sdtm:shortName "BPRSA1-Depressive Mood" ;
    cosmos_sdtm:source "RS.RSTESTCD" ;
    cosmos_sdtm:variables <https://w3id.org/cdisc/cosmos/dss/RS/BPRSA109/RSCAT>,
        <https://w3id.org/cdisc/cosmos/dss/RS/BPRSA109/RSDTC>,
        <https://w3id.org/cdisc/cosmos/dss/RS/BPRSA109/RSEVLINT>,
        <https://w3id.org/cdisc/cosmos/dss/RS/BPRSA109/RSORRES>,
        <https://w3id.org/cdisc/cosmos/dss/RS/BPRSA109/RSSTRESC>,
        <https://w3id.org/cdisc/cosmos/dss/RS/BPRSA109/RSSTRESN>,
        <https://w3id.org/cdisc/cosmos/dss/RS/BPRSA109/RSTEST>,
        <https://w3id.org/cdisc/cosmos/dss/RS/BPRSA109/RSTESTCD> .

<https://w3id.org/cdisc/cosmos/dss/RS/BPRSA110> a cosmos_sdtm:SDTMGroup ;
    dcterms:identifier "BPRSA110" ;
    rdf:_1 <https://w3id.org/cdisc/cosmos/dss/RS/BPRSA110/RSTESTCD> ;
    rdf:_2 <https://w3id.org/cdisc/cosmos/dss/RS/BPRSA110/RSTEST> ;
    rdf:_3 <https://w3id.org/cdisc/cosmos/dss/RS/BPRSA110/RSCAT> ;
    rdf:_4 <https://w3id.org/cdisc/cosmos/dss/RS/BPRSA110/RSORRES> ;
    rdf:_5 <https://w3id.org/cdisc/cosmos/dss/RS/BPRSA110/RSSTRESC> ;
    rdf:_6 <https://w3id.org/cdisc/cosmos/dss/RS/BPRSA110/RSSTRESN> ;
    rdf:_7 <https://w3id.org/cdisc/cosmos/dss/RS/BPRSA110/RSDTC> ;
    rdf:_8 <https://w3id.org/cdisc/cosmos/dss/RS/BPRSA110/RSEVLINT> ;
    cosmos_sdtm:biomedicalConceptId NCIT:C100381 ;
    cosmos_sdtm:domain "RS" ;
    cosmos_sdtm:packageDate "2026-05-26"^^xsd:date ;
    cosmos_sdtm:packageType <https://www.cdisc.org/cosmos/sdtm_v1.0/PackageTypeEnum#sdtm> ;
    cosmos_sdtm:sdtmigStartVersion "3-2" ;
    cosmos_sdtm:shortName "BPRSA1-Hostility" ;
    cosmos_sdtm:source "RS.RSTESTCD" ;
    cosmos_sdtm:variables <https://w3id.org/cdisc/cosmos/dss/RS/BPRSA110/RSCAT>,
        <https://w3id.org/cdisc/cosmos/dss/RS/BPRSA110/RSDTC>,
        <https://w3id.org/cdisc/cosmos/dss/RS/BPRSA110/RSEVLINT>,
        <https://w3id.org/cdisc/cosmos/dss/RS/BPRSA110/RSORRES>,
        <https://w3id.org/cdisc/cosmos/dss/RS/BPRSA110/RSSTRESC>,
        <https://w3id.org/cdisc/cosmos/dss/RS/BPRSA110/RSSTRESN>,
        <https://w3id.org/cdisc/cosmos/dss/RS/BPRSA110/RSTEST>,
        <https://w3id.org/cdisc/cosmos/dss/RS/BPRSA110/RSTESTCD> .

<https://w3id.org/cdisc/cosmos/dss/RS/BPRSA111> a cosmos_sdtm:SDTMGroup ;
    dcterms:identifier "BPRSA111" ;
    rdf:_1 <https://w3id.org/cdisc/cosmos/dss/RS/BPRSA111/RSTESTCD> ;
    rdf:_2 <https://w3id.org/cdisc/cosmos/dss/RS/BPRSA111/RSTEST> ;
    rdf:_3 <https://w3id.org/cdisc/cosmos/dss/RS/BPRSA111/RSCAT> ;
    rdf:_4 <https://w3id.org/cdisc/cosmos/dss/RS/BPRSA111/RSORRES> ;
    rdf:_5 <https://w3id.org/cdisc/cosmos/dss/RS/BPRSA111/RSSTRESC> ;
    rdf:_6 <https://w3id.org/cdisc/cosmos/dss/RS/BPRSA111/RSSTRESN> ;
    rdf:_7 <https://w3id.org/cdisc/cosmos/dss/RS/BPRSA111/RSDTC> ;
    rdf:_8 <https://w3id.org/cdisc/cosmos/dss/RS/BPRSA111/RSEVLINT> ;
    cosmos_sdtm:biomedicalConceptId NCIT:C100382 ;
    cosmos_sdtm:domain "RS" ;
    cosmos_sdtm:packageDate "2026-05-26"^^xsd:date ;
    cosmos_sdtm:packageType <https://www.cdisc.org/cosmos/sdtm_v1.0/PackageTypeEnum#sdtm> ;
    cosmos_sdtm:sdtmigStartVersion "3-2" ;
    cosmos_sdtm:shortName "BPRSA1-Suspiciousness" ;
    cosmos_sdtm:source "RS.RSTESTCD" ;
    cosmos_sdtm:variables <https://w3id.org/cdisc/cosmos/dss/RS/BPRSA111/RSCAT>,
        <https://w3id.org/cdisc/cosmos/dss/RS/BPRSA111/RSDTC>,
        <https://w3id.org/cdisc/cosmos/dss/RS/BPRSA111/RSEVLINT>,
        <https://w3id.org/cdisc/cosmos/dss/RS/BPRSA111/RSORRES>,
        <https://w3id.org/cdisc/cosmos/dss/RS/BPRSA111/RSSTRESC>,
        <https://w3id.org/cdisc/cosmos/dss/RS/BPRSA111/RSSTRESN>,
        <https://w3id.org/cdisc/cosmos/dss/RS/BPRSA111/RSTEST>,
        <https://w3id.org/cdisc/cosmos/dss/RS/BPRSA111/RSTESTCD> .

<https://w3id.org/cdisc/cosmos/dss/RS/BPRSA112> a cosmos_sdtm:SDTMGroup ;
    dcterms:identifier "BPRSA112" ;
    rdf:_1 <https://w3id.org/cdisc/cosmos/dss/RS/BPRSA112/RSTESTCD> ;
    rdf:_2 <https://w3id.org/cdisc/cosmos/dss/RS/BPRSA112/RSTEST> ;
    rdf:_3 <https://w3id.org/cdisc/cosmos/dss/RS/BPRSA112/RSCAT> ;
    rdf:_4 <https://w3id.org/cdisc/cosmos/dss/RS/BPRSA112/RSORRES> ;
    rdf:_5 <https://w3id.org/cdisc/cosmos/dss/RS/BPRSA112/RSSTRESC> ;
    rdf:_6 <https://w3id.org/cdisc/cosmos/dss/RS/BPRSA112/RSSTRESN> ;
    rdf:_7 <https://w3id.org/cdisc/cosmos/dss/RS/BPRSA112/RSDTC> ;
    rdf:_8 <https://w3id.org/cdisc/cosmos/dss/RS/BPRSA112/RSEVLINT> ;
    cosmos_sdtm:biomedicalConceptId NCIT:C100383 ;
    cosmos_sdtm:domain "RS" ;
    cosmos_sdtm:packageDate "2026-05-26"^^xsd:date ;
    cosmos_sdtm:packageType <https://www.cdisc.org/cosmos/sdtm_v1.0/PackageTypeEnum#sdtm> ;
    cosmos_sdtm:sdtmigStartVersion "3-2" ;
    cosmos_sdtm:shortName "BPRSA1-Hallucinatory Behavior" ;
    cosmos_sdtm:source "RS.RSTESTCD" ;
    cosmos_sdtm:variables <https://w3id.org/cdisc/cosmos/dss/RS/BPRSA112/RSCAT>,
        <https://w3id.org/cdisc/cosmos/dss/RS/BPRSA112/RSDTC>,
        <https://w3id.org/cdisc/cosmos/dss/RS/BPRSA112/RSEVLINT>,
        <https://w3id.org/cdisc/cosmos/dss/RS/BPRSA112/RSORRES>,
        <https://w3id.org/cdisc/cosmos/dss/RS/BPRSA112/RSSTRESC>,
        <https://w3id.org/cdisc/cosmos/dss/RS/BPRSA112/RSSTRESN>,
        <https://w3id.org/cdisc/cosmos/dss/RS/BPRSA112/RSTEST>,
        <https://w3id.org/cdisc/cosmos/dss/RS/BPRSA112/RSTESTCD> .

<https://w3id.org/cdisc/cosmos/dss/RS/BPRSA113> a cosmos_sdtm:SDTMGroup ;
    dcterms:identifier "BPRSA113" ;
    rdf:_1 <https://w3id.org/cdisc/cosmos/dss/RS/BPRSA113/RSTESTCD> ;
    rdf:_2 <https://w3id.org/cdisc/cosmos/dss/RS/BPRSA113/RSTEST> ;
    rdf:_3 <https://w3id.org/cdisc/cosmos/dss/RS/BPRSA113/RSCAT> ;
    rdf:_4 <https://w3id.org/cdisc/cosmos/dss/RS/BPRSA113/RSORRES> ;
    rdf:_5 <https://w3id.org/cdisc/cosmos/dss/RS/BPRSA113/RSSTRESC> ;
    rdf:_6 <https://w3id.org/cdisc/cosmos/dss/RS/BPRSA113/RSSTRESN> ;
    rdf:_7 <https://w3id.org/cdisc/cosmos/dss/RS/BPRSA113/RSDTC> ;
    cosmos_sdtm:biomedicalConceptId NCIT:C100384 ;
    cosmos_sdtm:domain "RS" ;
    cosmos_sdtm:packageDate "2026-05-26"^^xsd:date ;
    cosmos_sdtm:packageType <https://www.cdisc.org/cosmos/sdtm_v1.0/PackageTypeEnum#sdtm> ;
    cosmos_sdtm:sdtmigStartVersion "3-2" ;
    cosmos_sdtm:shortName "BPRSA1-Motor Retardation" ;
    cosmos_sdtm:source "RS.RSTESTCD" ;
    cosmos_sdtm:variables <https://w3id.org/cdisc/cosmos/dss/RS/BPRSA113/RSCAT>,
        <https://w3id.org/cdisc/cosmos/dss/RS/BPRSA113/RSDTC>,
        <https://w3id.org/cdisc/cosmos/dss/RS/BPRSA113/RSORRES>,
        <https://w3id.org/cdisc/cosmos/dss/RS/BPRSA113/RSSTRESC>,
        <https://w3id.org/cdisc/cosmos/dss/RS/BPRSA113/RSSTRESN>,
        <https://w3id.org/cdisc/cosmos/dss/RS/BPRSA113/RSTEST>,
        <https://w3id.org/cdisc/cosmos/dss/RS/BPRSA113/RSTESTCD> .

<https://w3id.org/cdisc/cosmos/dss/RS/BPRSA114> a cosmos_sdtm:SDTMGroup ;
    dcterms:identifier "BPRSA114" ;
    rdf:_1 <https://w3id.org/cdisc/cosmos/dss/RS/BPRSA114/RSTESTCD> ;
    rdf:_2 <https://w3id.org/cdisc/cosmos/dss/RS/BPRSA114/RSTEST> ;
    rdf:_3 <https://w3id.org/cdisc/cosmos/dss/RS/BPRSA114/RSCAT> ;
    rdf:_4 <https://w3id.org/cdisc/cosmos/dss/RS/BPRSA114/RSORRES> ;
    rdf:_5 <https://w3id.org/cdisc/cosmos/dss/RS/BPRSA114/RSSTRESC> ;
    rdf:_6 <https://w3id.org/cdisc/cosmos/dss/RS/BPRSA114/RSSTRESN> ;
    rdf:_7 <https://w3id.org/cdisc/cosmos/dss/RS/BPRSA114/RSDTC> ;
    rdf:_8 <https://w3id.org/cdisc/cosmos/dss/RS/BPRSA114/RSEVINTX> ;
    cosmos_sdtm:biomedicalConceptId NCIT:C100385 ;
    cosmos_sdtm:domain "RS" ;
    cosmos_sdtm:packageDate "2026-05-26"^^xsd:date ;
    cosmos_sdtm:packageType <https://www.cdisc.org/cosmos/sdtm_v1.0/PackageTypeEnum#sdtm> ;
    cosmos_sdtm:sdtmigStartVersion "3-2" ;
    cosmos_sdtm:shortName "BPRSA1-Uncooperativeness" ;
    cosmos_sdtm:source "RS.RSTESTCD" ;
    cosmos_sdtm:variables <https://w3id.org/cdisc/cosmos/dss/RS/BPRSA114/RSCAT>,
        <https://w3id.org/cdisc/cosmos/dss/RS/BPRSA114/RSDTC>,
        <https://w3id.org/cdisc/cosmos/dss/RS/BPRSA114/RSEVINTX>,
        <https://w3id.org/cdisc/cosmos/dss/RS/BPRSA114/RSORRES>,
        <https://w3id.org/cdisc/cosmos/dss/RS/BPRSA114/RSSTRESC>,
        <https://w3id.org/cdisc/cosmos/dss/RS/BPRSA114/RSSTRESN>,
        <https://w3id.org/cdisc/cosmos/dss/RS/BPRSA114/RSTEST>,
        <https://w3id.org/cdisc/cosmos/dss/RS/BPRSA114/RSTESTCD> .

<https://w3id.org/cdisc/cosmos/dss/RS/BPRSA115> a cosmos_sdtm:SDTMGroup ;
    dcterms:identifier "BPRSA115" ;
    rdf:_1 <https://w3id.org/cdisc/cosmos/dss/RS/BPRSA115/RSTESTCD> ;
    rdf:_2 <https://w3id.org/cdisc/cosmos/dss/RS/BPRSA115/RSTEST> ;
    rdf:_3 <https://w3id.org/cdisc/cosmos/dss/RS/BPRSA115/RSCAT> ;
    rdf:_4 <https://w3id.org/cdisc/cosmos/dss/RS/BPRSA115/RSORRES> ;
    rdf:_5 <https://w3id.org/cdisc/cosmos/dss/RS/BPRSA115/RSSTRESC> ;
    rdf:_6 <https://w3id.org/cdisc/cosmos/dss/RS/BPRSA115/RSSTRESN> ;
    rdf:_7 <https://w3id.org/cdisc/cosmos/dss/RS/BPRSA115/RSDTC> ;
    rdf:_8 <https://w3id.org/cdisc/cosmos/dss/RS/BPRSA115/RSEVLINT> ;
    cosmos_sdtm:biomedicalConceptId NCIT:C100386 ;
    cosmos_sdtm:domain "RS" ;
    cosmos_sdtm:packageDate "2026-05-26"^^xsd:date ;
    cosmos_sdtm:packageType <https://www.cdisc.org/cosmos/sdtm_v1.0/PackageTypeEnum#sdtm> ;
    cosmos_sdtm:sdtmigStartVersion "3-2" ;
    cosmos_sdtm:shortName "BPRSA1-Unusual Thought Content" ;
    cosmos_sdtm:source "RS.RSTESTCD" ;
    cosmos_sdtm:variables <https://w3id.org/cdisc/cosmos/dss/RS/BPRSA115/RSCAT>,
        <https://w3id.org/cdisc/cosmos/dss/RS/BPRSA115/RSDTC>,
        <https://w3id.org/cdisc/cosmos/dss/RS/BPRSA115/RSEVLINT>,
        <https://w3id.org/cdisc/cosmos/dss/RS/BPRSA115/RSORRES>,
        <https://w3id.org/cdisc/cosmos/dss/RS/BPRSA115/RSSTRESC>,
        <https://w3id.org/cdisc/cosmos/dss/RS/BPRSA115/RSSTRESN>,
        <https://w3id.org/cdisc/cosmos/dss/RS/BPRSA115/RSTEST>,
        <https://w3id.org/cdisc/cosmos/dss/RS/BPRSA115/RSTESTCD> .

<https://w3id.org/cdisc/cosmos/dss/RS/BPRSA116> a cosmos_sdtm:SDTMGroup ;
    dcterms:identifier "BPRSA116" ;
    rdf:_1 <https://w3id.org/cdisc/cosmos/dss/RS/BPRSA116/RSTESTCD> ;
    rdf:_2 <https://w3id.org/cdisc/cosmos/dss/RS/BPRSA116/RSTEST> ;
    rdf:_3 <https://w3id.org/cdisc/cosmos/dss/RS/BPRSA116/RSCAT> ;
    rdf:_4 <https://w3id.org/cdisc/cosmos/dss/RS/BPRSA116/RSORRES> ;
    rdf:_5 <https://w3id.org/cdisc/cosmos/dss/RS/BPRSA116/RSSTRESC> ;
    rdf:_6 <https://w3id.org/cdisc/cosmos/dss/RS/BPRSA116/RSSTRESN> ;
    rdf:_7 <https://w3id.org/cdisc/cosmos/dss/RS/BPRSA116/RSDTC> ;
    rdf:_8 <https://w3id.org/cdisc/cosmos/dss/RS/BPRSA116/RSEVINTX> ;
    cosmos_sdtm:biomedicalConceptId NCIT:C100387 ;
    cosmos_sdtm:domain "RS" ;
    cosmos_sdtm:packageDate "2026-05-26"^^xsd:date ;
    cosmos_sdtm:packageType <https://www.cdisc.org/cosmos/sdtm_v1.0/PackageTypeEnum#sdtm> ;
    cosmos_sdtm:sdtmigStartVersion "3-2" ;
    cosmos_sdtm:shortName "BPRSA1-Blunted Affect" ;
    cosmos_sdtm:source "RS.RSTESTCD" ;
    cosmos_sdtm:variables <https://w3id.org/cdisc/cosmos/dss/RS/BPRSA116/RSCAT>,
        <https://w3id.org/cdisc/cosmos/dss/RS/BPRSA116/RSDTC>,
        <https://w3id.org/cdisc/cosmos/dss/RS/BPRSA116/RSEVINTX>,
        <https://w3id.org/cdisc/cosmos/dss/RS/BPRSA116/RSORRES>,
        <https://w3id.org/cdisc/cosmos/dss/RS/BPRSA116/RSSTRESC>,
        <https://w3id.org/cdisc/cosmos/dss/RS/BPRSA116/RSSTRESN>,
        <https://w3id.org/cdisc/cosmos/dss/RS/BPRSA116/RSTEST>,
        <https://w3id.org/cdisc/cosmos/dss/RS/BPRSA116/RSTESTCD> .

<https://w3id.org/cdisc/cosmos/dss/RS/BPRSA117> a cosmos_sdtm:SDTMGroup ;
    dcterms:identifier "BPRSA117" ;
    rdf:_1 <https://w3id.org/cdisc/cosmos/dss/RS/BPRSA117/RSTESTCD> ;
    rdf:_2 <https://w3id.org/cdisc/cosmos/dss/RS/BPRSA117/RSTEST> ;
    rdf:_3 <https://w3id.org/cdisc/cosmos/dss/RS/BPRSA117/RSCAT> ;
    rdf:_4 <https://w3id.org/cdisc/cosmos/dss/RS/BPRSA117/RSORRES> ;
    rdf:_5 <https://w3id.org/cdisc/cosmos/dss/RS/BPRSA117/RSSTRESC> ;
    rdf:_6 <https://w3id.org/cdisc/cosmos/dss/RS/BPRSA117/RSSTRESN> ;
    rdf:_7 <https://w3id.org/cdisc/cosmos/dss/RS/BPRSA117/RSDTC> ;
    rdf:_8 <https://w3id.org/cdisc/cosmos/dss/RS/BPRSA117/RSEVINTX> ;
    cosmos_sdtm:biomedicalConceptId NCIT:C100388 ;
    cosmos_sdtm:domain "RS" ;
    cosmos_sdtm:packageDate "2026-05-26"^^xsd:date ;
    cosmos_sdtm:packageType <https://www.cdisc.org/cosmos/sdtm_v1.0/PackageTypeEnum#sdtm> ;
    cosmos_sdtm:sdtmigStartVersion "3-2" ;
    cosmos_sdtm:shortName "BPRSA1-Excitement" ;
    cosmos_sdtm:source "RS.RSTESTCD" ;
    cosmos_sdtm:variables <https://w3id.org/cdisc/cosmos/dss/RS/BPRSA117/RSCAT>,
        <https://w3id.org/cdisc/cosmos/dss/RS/BPRSA117/RSDTC>,
        <https://w3id.org/cdisc/cosmos/dss/RS/BPRSA117/RSEVINTX>,
        <https://w3id.org/cdisc/cosmos/dss/RS/BPRSA117/RSORRES>,
        <https://w3id.org/cdisc/cosmos/dss/RS/BPRSA117/RSSTRESC>,
        <https://w3id.org/cdisc/cosmos/dss/RS/BPRSA117/RSSTRESN>,
        <https://w3id.org/cdisc/cosmos/dss/RS/BPRSA117/RSTEST>,
        <https://w3id.org/cdisc/cosmos/dss/RS/BPRSA117/RSTESTCD> .

<https://w3id.org/cdisc/cosmos/dss/RS/BPRSA118> a cosmos_sdtm:SDTMGroup ;
    dcterms:identifier "BPRSA118" ;
    rdf:_1 <https://w3id.org/cdisc/cosmos/dss/RS/BPRSA118/RSTESTCD> ;
    rdf:_2 <https://w3id.org/cdisc/cosmos/dss/RS/BPRSA118/RSTEST> ;
    rdf:_3 <https://w3id.org/cdisc/cosmos/dss/RS/BPRSA118/RSCAT> ;
    rdf:_4 <https://w3id.org/cdisc/cosmos/dss/RS/BPRSA118/RSORRES> ;
    rdf:_5 <https://w3id.org/cdisc/cosmos/dss/RS/BPRSA118/RSSTRESC> ;
    rdf:_6 <https://w3id.org/cdisc/cosmos/dss/RS/BPRSA118/RSSTRESN> ;
    rdf:_7 <https://w3id.org/cdisc/cosmos/dss/RS/BPRSA118/RSDTC> ;
    rdf:_8 <https://w3id.org/cdisc/cosmos/dss/RS/BPRSA118/RSEVINTX> ;
    cosmos_sdtm:biomedicalConceptId NCIT:C100389 ;
    cosmos_sdtm:domain "RS" ;
    cosmos_sdtm:packageDate "2026-05-26"^^xsd:date ;
    cosmos_sdtm:packageType <https://www.cdisc.org/cosmos/sdtm_v1.0/PackageTypeEnum#sdtm> ;
    cosmos_sdtm:sdtmigStartVersion "3-2" ;
    cosmos_sdtm:shortName "BPRSA1-Disorientation" ;
    cosmos_sdtm:source "RS.RSTESTCD" ;
    cosmos_sdtm:variables <https://w3id.org/cdisc/cosmos/dss/RS/BPRSA118/RSCAT>,
        <https://w3id.org/cdisc/cosmos/dss/RS/BPRSA118/RSDTC>,
        <https://w3id.org/cdisc/cosmos/dss/RS/BPRSA118/RSEVINTX>,
        <https://w3id.org/cdisc/cosmos/dss/RS/BPRSA118/RSORRES>,
        <https://w3id.org/cdisc/cosmos/dss/RS/BPRSA118/RSSTRESC>,
        <https://w3id.org/cdisc/cosmos/dss/RS/BPRSA118/RSSTRESN>,
        <https://w3id.org/cdisc/cosmos/dss/RS/BPRSA118/RSTEST>,
        <https://w3id.org/cdisc/cosmos/dss/RS/BPRSA118/RSTESTCD> .

<https://w3id.org/cdisc/cosmos/dss/RS/CPRFSTAT_RANO> a cosmos_sdtm:SDTMGroup ;
    dcterms:identifier "CPRFSTAT_RANO" ;
    rdf:_1 <https://w3id.org/cdisc/cosmos/dss/RS/CPRFSTAT_RANO/RSTESTCD> ;
    rdf:_2 <https://w3id.org/cdisc/cosmos/dss/RS/CPRFSTAT_RANO/RSTEST> ;
    rdf:_3 <https://w3id.org/cdisc/cosmos/dss/RS/CPRFSTAT_RANO/RSCAT> ;
    rdf:_4 <https://w3id.org/cdisc/cosmos/dss/RS/CPRFSTAT_RANO/RSORRES> ;
    rdf:_5 <https://w3id.org/cdisc/cosmos/dss/RS/CPRFSTAT_RANO/RSSTRESC> ;
    rdf:_6 <https://w3id.org/cdisc/cosmos/dss/RS/CPRFSTAT_RANO/RSEVAL> ;
    rdf:_7 <https://w3id.org/cdisc/cosmos/dss/RS/CPRFSTAT_RANO/RSEVALID> ;
    rdf:_8 <https://w3id.org/cdisc/cosmos/dss/RS/CPRFSTAT_RANO/RSDTC> ;
    cosmos_sdtm:biomedicalConceptId NCIT:C135478 ;
    cosmos_sdtm:domain "RS" ;
    cosmos_sdtm:packageDate "2026-05-26"^^xsd:date ;
    cosmos_sdtm:packageType <https://www.cdisc.org/cosmos/sdtm_v1.0/PackageTypeEnum#sdtm> ;
    cosmos_sdtm:sdtmigStartVersion "3-2" ;
    cosmos_sdtm:shortName "Clinical Performance Status (Rano)" ;
    cosmos_sdtm:source "RS.RSTESTCD" ;
    cosmos_sdtm:variables <https://w3id.org/cdisc/cosmos/dss/RS/CPRFSTAT_RANO/RSCAT>,
        <https://w3id.org/cdisc/cosmos/dss/RS/CPRFSTAT_RANO/RSDTC>,
        <https://w3id.org/cdisc/cosmos/dss/RS/CPRFSTAT_RANO/RSEVAL>,
        <https://w3id.org/cdisc/cosmos/dss/RS/CPRFSTAT_RANO/RSEVALID>,
        <https://w3id.org/cdisc/cosmos/dss/RS/CPRFSTAT_RANO/RSORRES>,
        <https://w3id.org/cdisc/cosmos/dss/RS/CPRFSTAT_RANO/RSSTRESC>,
        <https://w3id.org/cdisc/cosmos/dss/RS/CPRFSTAT_RANO/RSTEST>,
        <https://w3id.org/cdisc/cosmos/dss/RS/CPRFSTAT_RANO/RSTESTCD> .

<https://w3id.org/cdisc/cosmos/dss/RS/CPS0101> a cosmos_sdtm:SDTMGroup ;
    dcterms:identifier "CPS0101" ;
    rdf:_1 <https://w3id.org/cdisc/cosmos/dss/RS/CPS0101/RSTESTCD> ;
    rdf:_2 <https://w3id.org/cdisc/cosmos/dss/RS/CPS0101/RSTEST> ;
    rdf:_3 <https://w3id.org/cdisc/cosmos/dss/RS/CPS0101/RSCAT> ;
    rdf:_4 <https://w3id.org/cdisc/cosmos/dss/RS/CPS0101/RSORRES> ;
    rdf:_5 <https://w3id.org/cdisc/cosmos/dss/RS/CPS0101/RSSTRESC> ;
    rdf:_6 <https://w3id.org/cdisc/cosmos/dss/RS/CPS0101/RSSTRESN> ;
    rdf:_7 <https://w3id.org/cdisc/cosmos/dss/RS/CPS0101/RSEVAL> ;
    rdf:_8 <https://w3id.org/cdisc/cosmos/dss/RS/CPS0101/RSDTC> ;
    cosmos_sdtm:biomedicalConceptId NCIT:C121068 ;
    cosmos_sdtm:domain "RS" ;
    cosmos_sdtm:packageDate "2026-05-26"^^xsd:date ;
    cosmos_sdtm:packageType <https://www.cdisc.org/cosmos/sdtm_v1.0/PackageTypeEnum#sdtm> ;
    cosmos_sdtm:sdtmigStartVersion "3-2" ;
    cosmos_sdtm:shortName "CPS01-Encephalopathy Grade" ;
    cosmos_sdtm:source "RS.RSTESTCD" ;
    cosmos_sdtm:variables <https://w3id.org/cdisc/cosmos/dss/RS/CPS0101/RSCAT>,
        <https://w3id.org/cdisc/cosmos/dss/RS/CPS0101/RSDTC>,
        <https://w3id.org/cdisc/cosmos/dss/RS/CPS0101/RSEVAL>,
        <https://w3id.org/cdisc/cosmos/dss/RS/CPS0101/RSORRES>,
        <https://w3id.org/cdisc/cosmos/dss/RS/CPS0101/RSSTRESC>,
        <https://w3id.org/cdisc/cosmos/dss/RS/CPS0101/RSSTRESN>,
        <https://w3id.org/cdisc/cosmos/dss/RS/CPS0101/RSTEST>,
        <https://w3id.org/cdisc/cosmos/dss/RS/CPS0101/RSTESTCD> .

<https://w3id.org/cdisc/cosmos/dss/RS/CPS0102> a cosmos_sdtm:SDTMGroup ;
    dcterms:identifier "CPS0102" ;
    rdf:_1 <https://w3id.org/cdisc/cosmos/dss/RS/CPS0102/RSTESTCD> ;
    rdf:_2 <https://w3id.org/cdisc/cosmos/dss/RS/CPS0102/RSTEST> ;
    rdf:_3 <https://w3id.org/cdisc/cosmos/dss/RS/CPS0102/RSCAT> ;
    rdf:_4 <https://w3id.org/cdisc/cosmos/dss/RS/CPS0102/RSORRES> ;
    rdf:_5 <https://w3id.org/cdisc/cosmos/dss/RS/CPS0102/RSSTRESC> ;
    rdf:_6 <https://w3id.org/cdisc/cosmos/dss/RS/CPS0102/RSSTRESN> ;
    rdf:_7 <https://w3id.org/cdisc/cosmos/dss/RS/CPS0102/RSEVAL> ;
    rdf:_8 <https://w3id.org/cdisc/cosmos/dss/RS/CPS0102/RSDTC> ;
    cosmos_sdtm:biomedicalConceptId NCIT:C121069 ;
    cosmos_sdtm:domain "RS" ;
    cosmos_sdtm:packageDate "2026-05-26"^^xsd:date ;
    cosmos_sdtm:packageType <https://www.cdisc.org/cosmos/sdtm_v1.0/PackageTypeEnum#sdtm> ;
    cosmos_sdtm:sdtmigStartVersion "3-2" ;
    cosmos_sdtm:shortName "CPS01-Ascites" ;
    cosmos_sdtm:source "RS.RSTESTCD" ;
    cosmos_sdtm:variables <https://w3id.org/cdisc/cosmos/dss/RS/CPS0102/RSCAT>,
        <https://w3id.org/cdisc/cosmos/dss/RS/CPS0102/RSDTC>,
        <https://w3id.org/cdisc/cosmos/dss/RS/CPS0102/RSEVAL>,
        <https://w3id.org/cdisc/cosmos/dss/RS/CPS0102/RSORRES>,
        <https://w3id.org/cdisc/cosmos/dss/RS/CPS0102/RSSTRESC>,
        <https://w3id.org/cdisc/cosmos/dss/RS/CPS0102/RSSTRESN>,
        <https://w3id.org/cdisc/cosmos/dss/RS/CPS0102/RSTEST>,
        <https://w3id.org/cdisc/cosmos/dss/RS/CPS0102/RSTESTCD> .

<https://w3id.org/cdisc/cosmos/dss/RS/CPS0103> a cosmos_sdtm:SDTMGroup ;
    dcterms:identifier "CPS0103" ;
    rdf:_1 <https://w3id.org/cdisc/cosmos/dss/RS/CPS0103/RSTESTCD> ;
    rdf:_2 <https://w3id.org/cdisc/cosmos/dss/RS/CPS0103/RSTEST> ;
    rdf:_3 <https://w3id.org/cdisc/cosmos/dss/RS/CPS0103/RSCAT> ;
    rdf:_4 <https://w3id.org/cdisc/cosmos/dss/RS/CPS0103/RSORRES> ;
    rdf:_5 <https://w3id.org/cdisc/cosmos/dss/RS/CPS0103/RSORRESU> ;
    rdf:_6 <https://w3id.org/cdisc/cosmos/dss/RS/CPS0103/RSSTRESC> ;
    rdf:_7 <https://w3id.org/cdisc/cosmos/dss/RS/CPS0103/RSSTRESN> ;
    rdf:_8 <https://w3id.org/cdisc/cosmos/dss/RS/CPS0103/RSEVAL> ;
    rdf:_9 <https://w3id.org/cdisc/cosmos/dss/RS/CPS0103/RSDTC> ;
    cosmos_sdtm:biomedicalConceptId NCIT:C121070 ;
    cosmos_sdtm:domain "RS" ;
    cosmos_sdtm:packageDate "2026-05-26"^^xsd:date ;
    cosmos_sdtm:packageType <https://www.cdisc.org/cosmos/sdtm_v1.0/PackageTypeEnum#sdtm> ;
    cosmos_sdtm:sdtmigStartVersion "3-2" ;
    cosmos_sdtm:shortName "CPS01-Serum Bilirubin" ;
    cosmos_sdtm:source "RS.RSTESTCD" ;
    cosmos_sdtm:variables <https://w3id.org/cdisc/cosmos/dss/RS/CPS0103/RSCAT>,
        <https://w3id.org/cdisc/cosmos/dss/RS/CPS0103/RSDTC>,
        <https://w3id.org/cdisc/cosmos/dss/RS/CPS0103/RSEVAL>,
        <https://w3id.org/cdisc/cosmos/dss/RS/CPS0103/RSORRES>,
        <https://w3id.org/cdisc/cosmos/dss/RS/CPS0103/RSORRESU>,
        <https://w3id.org/cdisc/cosmos/dss/RS/CPS0103/RSSTRESC>,
        <https://w3id.org/cdisc/cosmos/dss/RS/CPS0103/RSSTRESN>,
        <https://w3id.org/cdisc/cosmos/dss/RS/CPS0103/RSTEST>,
        <https://w3id.org/cdisc/cosmos/dss/RS/CPS0103/RSTESTCD> .

<https://w3id.org/cdisc/cosmos/dss/RS/CPS0104> a cosmos_sdtm:SDTMGroup ;
    dcterms:identifier "CPS0104" ;
    rdf:_1 <https://w3id.org/cdisc/cosmos/dss/RS/CPS0104/RSTESTCD> ;
    rdf:_2 <https://w3id.org/cdisc/cosmos/dss/RS/CPS0104/RSTEST> ;
    rdf:_3 <https://w3id.org/cdisc/cosmos/dss/RS/CPS0104/RSCAT> ;
    rdf:_4 <https://w3id.org/cdisc/cosmos/dss/RS/CPS0104/RSORRES> ;
    rdf:_5 <https://w3id.org/cdisc/cosmos/dss/RS/CPS0104/RSORRESU> ;
    rdf:_6 <https://w3id.org/cdisc/cosmos/dss/RS/CPS0104/RSSTRESC> ;
    rdf:_7 <https://w3id.org/cdisc/cosmos/dss/RS/CPS0104/RSSTRESN> ;
    rdf:_8 <https://w3id.org/cdisc/cosmos/dss/RS/CPS0104/RSEVAL> ;
    rdf:_9 <https://w3id.org/cdisc/cosmos/dss/RS/CPS0104/RSDTC> ;
    cosmos_sdtm:biomedicalConceptId NCIT:C121071 ;
    cosmos_sdtm:domain "RS" ;
    cosmos_sdtm:packageDate "2026-05-26"^^xsd:date ;
    cosmos_sdtm:packageType <https://www.cdisc.org/cosmos/sdtm_v1.0/PackageTypeEnum#sdtm> ;
    cosmos_sdtm:sdtmigStartVersion "3-2" ;
    cosmos_sdtm:shortName "CPS01-Serum Albumin" ;
    cosmos_sdtm:source "RS.RSTESTCD" ;
    cosmos_sdtm:variables <https://w3id.org/cdisc/cosmos/dss/RS/CPS0104/RSCAT>,
        <https://w3id.org/cdisc/cosmos/dss/RS/CPS0104/RSDTC>,
        <https://w3id.org/cdisc/cosmos/dss/RS/CPS0104/RSEVAL>,
        <https://w3id.org/cdisc/cosmos/dss/RS/CPS0104/RSORRES>,
        <https://w3id.org/cdisc/cosmos/dss/RS/CPS0104/RSORRESU>,
        <https://w3id.org/cdisc/cosmos/dss/RS/CPS0104/RSSTRESC>,
        <https://w3id.org/cdisc/cosmos/dss/RS/CPS0104/RSSTRESN>,
        <https://w3id.org/cdisc/cosmos/dss/RS/CPS0104/RSTEST>,
        <https://w3id.org/cdisc/cosmos/dss/RS/CPS0104/RSTESTCD> .

<https://w3id.org/cdisc/cosmos/dss/RS/CPS0105A> a cosmos_sdtm:SDTMGroup ;
    dcterms:identifier "CPS0105A" ;
    rdf:_1 <https://w3id.org/cdisc/cosmos/dss/RS/CPS0105A/RSTESTCD> ;
    rdf:_2 <https://w3id.org/cdisc/cosmos/dss/RS/CPS0105A/RSTEST> ;
    rdf:_3 <https://w3id.org/cdisc/cosmos/dss/RS/CPS0105A/RSCAT> ;
    rdf:_4 <https://w3id.org/cdisc/cosmos/dss/RS/CPS0105A/RSORRES> ;
    rdf:_5 <https://w3id.org/cdisc/cosmos/dss/RS/CPS0105A/RSORRESU> ;
    rdf:_6 <https://w3id.org/cdisc/cosmos/dss/RS/CPS0105A/RSSTRESC> ;
    rdf:_7 <https://w3id.org/cdisc/cosmos/dss/RS/CPS0105A/RSSTRESN> ;
    rdf:_8 <https://w3id.org/cdisc/cosmos/dss/RS/CPS0105A/RSEVAL> ;
    rdf:_9 <https://w3id.org/cdisc/cosmos/dss/RS/CPS0105A/RSDTC> ;
    cosmos_sdtm:biomedicalConceptId NCIT:C121072 ;
    cosmos_sdtm:domain "RS" ;
    cosmos_sdtm:packageDate "2026-05-26"^^xsd:date ;
    cosmos_sdtm:packageType <https://www.cdisc.org/cosmos/sdtm_v1.0/PackageTypeEnum#sdtm> ;
    cosmos_sdtm:sdtmigStartVersion "3-2" ;
    cosmos_sdtm:shortName "CPS01-PT, Sec Prolonged" ;
    cosmos_sdtm:source "RS.RSTESTCD" ;
    cosmos_sdtm:variables <https://w3id.org/cdisc/cosmos/dss/RS/CPS0105A/RSCAT>,
        <https://w3id.org/cdisc/cosmos/dss/RS/CPS0105A/RSDTC>,
        <https://w3id.org/cdisc/cosmos/dss/RS/CPS0105A/RSEVAL>,
        <https://w3id.org/cdisc/cosmos/dss/RS/CPS0105A/RSORRES>,
        <https://w3id.org/cdisc/cosmos/dss/RS/CPS0105A/RSORRESU>,
        <https://w3id.org/cdisc/cosmos/dss/RS/CPS0105A/RSSTRESC>,
        <https://w3id.org/cdisc/cosmos/dss/RS/CPS0105A/RSSTRESN>,
        <https://w3id.org/cdisc/cosmos/dss/RS/CPS0105A/RSTEST>,
        <https://w3id.org/cdisc/cosmos/dss/RS/CPS0105A/RSTESTCD> .

<https://w3id.org/cdisc/cosmos/dss/RS/CPS0105B> a cosmos_sdtm:SDTMGroup ;
    dcterms:identifier "CPS0105B" ;
    rdf:_1 <https://w3id.org/cdisc/cosmos/dss/RS/CPS0105B/RSTESTCD> ;
    rdf:_2 <https://w3id.org/cdisc/cosmos/dss/RS/CPS0105B/RSTEST> ;
    rdf:_3 <https://w3id.org/cdisc/cosmos/dss/RS/CPS0105B/RSCAT> ;
    rdf:_4 <https://w3id.org/cdisc/cosmos/dss/RS/CPS0105B/RSORRES> ;
    rdf:_5 <https://w3id.org/cdisc/cosmos/dss/RS/CPS0105B/RSSTRESC> ;
    rdf:_6 <https://w3id.org/cdisc/cosmos/dss/RS/CPS0105B/RSSTRESN> ;
    rdf:_7 <https://w3id.org/cdisc/cosmos/dss/RS/CPS0105B/RSEVAL> ;
    rdf:_8 <https://w3id.org/cdisc/cosmos/dss/RS/CPS0105B/RSDTC> ;
    cosmos_sdtm:biomedicalConceptId NCIT:C121073 ;
    cosmos_sdtm:domain "RS" ;
    cosmos_sdtm:packageDate "2026-05-26"^^xsd:date ;
    cosmos_sdtm:packageType <https://www.cdisc.org/cosmos/sdtm_v1.0/PackageTypeEnum#sdtm> ;
    cosmos_sdtm:sdtmigStartVersion "3-2" ;
    cosmos_sdtm:shortName "CPS01-PT, INR" ;
    cosmos_sdtm:source "RS.RSTESTCD" ;
    cosmos_sdtm:variables <https://w3id.org/cdisc/cosmos/dss/RS/CPS0105B/RSCAT>,
        <https://w3id.org/cdisc/cosmos/dss/RS/CPS0105B/RSDTC>,
        <https://w3id.org/cdisc/cosmos/dss/RS/CPS0105B/RSEVAL>,
        <https://w3id.org/cdisc/cosmos/dss/RS/CPS0105B/RSORRES>,
        <https://w3id.org/cdisc/cosmos/dss/RS/CPS0105B/RSSTRESC>,
        <https://w3id.org/cdisc/cosmos/dss/RS/CPS0105B/RSSTRESN>,
        <https://w3id.org/cdisc/cosmos/dss/RS/CPS0105B/RSTEST>,
        <https://w3id.org/cdisc/cosmos/dss/RS/CPS0105B/RSTESTCD> .

<https://w3id.org/cdisc/cosmos/dss/RS/CPS0106> a cosmos_sdtm:SDTMGroup ;
    dcterms:identifier "CPS0106" ;
    rdf:_1 <https://w3id.org/cdisc/cosmos/dss/RS/CPS0106/RSTESTCD> ;
    rdf:_2 <https://w3id.org/cdisc/cosmos/dss/RS/CPS0106/RSTEST> ;
    rdf:_3 <https://w3id.org/cdisc/cosmos/dss/RS/CPS0106/RSCAT> ;
    rdf:_4 <https://w3id.org/cdisc/cosmos/dss/RS/CPS0106/RSORRES> ;
    rdf:_5 <https://w3id.org/cdisc/cosmos/dss/RS/CPS0106/RSSTRESC> ;
    rdf:_6 <https://w3id.org/cdisc/cosmos/dss/RS/CPS0106/RSEVAL> ;
    rdf:_7 <https://w3id.org/cdisc/cosmos/dss/RS/CPS0106/RSDTC> ;
    cosmos_sdtm:biomedicalConceptId NCIT:C121074 ;
    cosmos_sdtm:domain "RS" ;
    cosmos_sdtm:packageDate "2026-05-26"^^xsd:date ;
    cosmos_sdtm:packageType <https://www.cdisc.org/cosmos/sdtm_v1.0/PackageTypeEnum#sdtm> ;
    cosmos_sdtm:sdtmigStartVersion "3-2" ;
    cosmos_sdtm:shortName "CPS01-Total Score" ;
    cosmos_sdtm:source "RS.RSTESTCD" ;
    cosmos_sdtm:variables <https://w3id.org/cdisc/cosmos/dss/RS/CPS0106/RSCAT>,
        <https://w3id.org/cdisc/cosmos/dss/RS/CPS0106/RSDTC>,
        <https://w3id.org/cdisc/cosmos/dss/RS/CPS0106/RSEVAL>,
        <https://w3id.org/cdisc/cosmos/dss/RS/CPS0106/RSORRES>,
        <https://w3id.org/cdisc/cosmos/dss/RS/CPS0106/RSSTRESC>,
        <https://w3id.org/cdisc/cosmos/dss/RS/CPS0106/RSTEST>,
        <https://w3id.org/cdisc/cosmos/dss/RS/CPS0106/RSTESTCD> .

<https://w3id.org/cdisc/cosmos/dss/RS/CPS0107> a cosmos_sdtm:SDTMGroup ;
    dcterms:identifier "CPS0107" ;
    rdf:_1 <https://w3id.org/cdisc/cosmos/dss/RS/CPS0107/RSTESTCD> ;
    rdf:_2 <https://w3id.org/cdisc/cosmos/dss/RS/CPS0107/RSTEST> ;
    rdf:_3 <https://w3id.org/cdisc/cosmos/dss/RS/CPS0107/RSCAT> ;
    rdf:_4 <https://w3id.org/cdisc/cosmos/dss/RS/CPS0107/RSORRES> ;
    rdf:_5 <https://w3id.org/cdisc/cosmos/dss/RS/CPS0107/RSSTRESC> ;
    rdf:_6 <https://w3id.org/cdisc/cosmos/dss/RS/CPS0107/RSEVAL> ;
    rdf:_7 <https://w3id.org/cdisc/cosmos/dss/RS/CPS0107/RSDTC> ;
    cosmos_sdtm:biomedicalConceptId NCIT:C121075 ;
    cosmos_sdtm:domain "RS" ;
    cosmos_sdtm:packageDate "2026-05-26"^^xsd:date ;
    cosmos_sdtm:packageType <https://www.cdisc.org/cosmos/sdtm_v1.0/PackageTypeEnum#sdtm> ;
    cosmos_sdtm:sdtmigStartVersion "3-2" ;
    cosmos_sdtm:shortName "CPS01-Grade" ;
    cosmos_sdtm:source "RS.RSTESTCD" ;
    cosmos_sdtm:variables <https://w3id.org/cdisc/cosmos/dss/RS/CPS0107/RSCAT>,
        <https://w3id.org/cdisc/cosmos/dss/RS/CPS0107/RSDTC>,
        <https://w3id.org/cdisc/cosmos/dss/RS/CPS0107/RSEVAL>,
        <https://w3id.org/cdisc/cosmos/dss/RS/CPS0107/RSORRES>,
        <https://w3id.org/cdisc/cosmos/dss/RS/CPS0107/RSSTRESC>,
        <https://w3id.org/cdisc/cosmos/dss/RS/CPS0107/RSTEST>,
        <https://w3id.org/cdisc/cosmos/dss/RS/CPS0107/RSTESTCD> .

<https://w3id.org/cdisc/cosmos/dss/RS/DRCRIND> a cosmos_sdtm:SDTMGroup ;
    dcterms:identifier "DRCRIND" ;
    rdf:_1 <https://w3id.org/cdisc/cosmos/dss/RS/DRCRIND/RSTESTCD> ;
    rdf:_2 <https://w3id.org/cdisc/cosmos/dss/RS/DRCRIND/RSTEST> ;
    rdf:_3 <https://w3id.org/cdisc/cosmos/dss/RS/DRCRIND/RSORRES> ;
    rdf:_4 <https://w3id.org/cdisc/cosmos/dss/RS/DRCRIND/RSSTRESC> ;
    rdf:_5 <https://w3id.org/cdisc/cosmos/dss/RS/DRCRIND/RSEVAL> ;
    rdf:_6 <https://w3id.org/cdisc/cosmos/dss/RS/DRCRIND/RSEVALID> ;
    rdf:_7 <https://w3id.org/cdisc/cosmos/dss/RS/DRCRIND/RSDTC> ;
    cosmos_sdtm:biomedicalConceptId NCIT:C123621 ;
    cosmos_sdtm:domain "RS" ;
    cosmos_sdtm:packageDate "2026-07-14"^^xsd:date ;
    cosmos_sdtm:packageType <https://www.cdisc.org/cosmos/sdtm_v1.0/PackageTypeEnum#sdtm> ;
    cosmos_sdtm:sdtmigStartVersion "3-2" ;
    cosmos_sdtm:shortName "Disease Recurrence Indicator" ;
    cosmos_sdtm:source "RS.RSTESTCD" ;
    cosmos_sdtm:variables <https://w3id.org/cdisc/cosmos/dss/RS/DRCRIND/RSDTC>,
        <https://w3id.org/cdisc/cosmos/dss/RS/DRCRIND/RSEVAL>,
        <https://w3id.org/cdisc/cosmos/dss/RS/DRCRIND/RSEVALID>,
        <https://w3id.org/cdisc/cosmos/dss/RS/DRCRIND/RSORRES>,
        <https://w3id.org/cdisc/cosmos/dss/RS/DRCRIND/RSSTRESC>,
        <https://w3id.org/cdisc/cosmos/dss/RS/DRCRIND/RSTEST>,
        <https://w3id.org/cdisc/cosmos/dss/RS/DRCRIND/RSTESTCD> .

<https://w3id.org/cdisc/cosmos/dss/RS/ECOG101> a cosmos_sdtm:SDTMGroup ;
    dcterms:identifier "ECOG101" ;
    rdf:_1 <https://w3id.org/cdisc/cosmos/dss/RS/ECOG101/RSTESTCD> ;
    rdf:_2 <https://w3id.org/cdisc/cosmos/dss/RS/ECOG101/RSTEST> ;
    rdf:_3 <https://w3id.org/cdisc/cosmos/dss/RS/ECOG101/RSCAT> ;
    rdf:_4 <https://w3id.org/cdisc/cosmos/dss/RS/ECOG101/RSORRES> ;
    rdf:_5 <https://w3id.org/cdisc/cosmos/dss/RS/ECOG101/RSSTRESC> ;
    rdf:_6 <https://w3id.org/cdisc/cosmos/dss/RS/ECOG101/RSSTRESN> ;
    rdf:_7 <https://w3id.org/cdisc/cosmos/dss/RS/ECOG101/RSDTC> ;
    cosmos_sdtm:biomedicalConceptId NCIT:C102408 ;
    cosmos_sdtm:domain "RS" ;
    cosmos_sdtm:packageDate "2026-05-26"^^xsd:date ;
    cosmos_sdtm:packageType <https://www.cdisc.org/cosmos/sdtm_v1.0/PackageTypeEnum#sdtm> ;
    cosmos_sdtm:sdtmigStartVersion "3-2" ;
    cosmos_sdtm:shortName "ECOG1-Performance Status" ;
    cosmos_sdtm:source "RS.RSTESTCD" ;
    cosmos_sdtm:variables <https://w3id.org/cdisc/cosmos/dss/RS/ECOG101/RSCAT>,
        <https://w3id.org/cdisc/cosmos/dss/RS/ECOG101/RSDTC>,
        <https://w3id.org/cdisc/cosmos/dss/RS/ECOG101/RSORRES>,
        <https://w3id.org/cdisc/cosmos/dss/RS/ECOG101/RSSTRESC>,
        <https://w3id.org/cdisc/cosmos/dss/RS/ECOG101/RSSTRESN>,
        <https://w3id.org/cdisc/cosmos/dss/RS/ECOG101/RSTEST>,
        <https://w3id.org/cdisc/cosmos/dss/RS/ECOG101/RSTESTCD> .

<https://w3id.org/cdisc/cosmos/dss/RS/HAMA101> a cosmos_sdtm:SDTMGroup ;
    dcterms:identifier "HAMA101" ;
    rdf:_1 <https://w3id.org/cdisc/cosmos/dss/RS/HAMA101/RSTESTCD> ;
    rdf:_2 <https://w3id.org/cdisc/cosmos/dss/RS/HAMA101/RSTEST> ;
    rdf:_3 <https://w3id.org/cdisc/cosmos/dss/RS/HAMA101/RSCAT> ;
    rdf:_4 <https://w3id.org/cdisc/cosmos/dss/RS/HAMA101/RSORRES> ;
    rdf:_5 <https://w3id.org/cdisc/cosmos/dss/RS/HAMA101/RSSTRESC> ;
    rdf:_6 <https://w3id.org/cdisc/cosmos/dss/RS/HAMA101/RSSTRESN> ;
    rdf:_7 <https://w3id.org/cdisc/cosmos/dss/RS/HAMA101/RSDTC> ;
    cosmos_sdtm:biomedicalConceptId NCIT:C102073 ;
    cosmos_sdtm:domain "RS" ;
    cosmos_sdtm:packageDate "2026-05-26"^^xsd:date ;
    cosmos_sdtm:packageType <https://www.cdisc.org/cosmos/sdtm_v1.0/PackageTypeEnum#sdtm> ;
    cosmos_sdtm:sdtmigStartVersion "3-2" ;
    cosmos_sdtm:shortName "HAMA1-Anxious Mood" ;
    cosmos_sdtm:source "RS.RSTESTCD" ;
    cosmos_sdtm:variables <https://w3id.org/cdisc/cosmos/dss/RS/HAMA101/RSCAT>,
        <https://w3id.org/cdisc/cosmos/dss/RS/HAMA101/RSDTC>,
        <https://w3id.org/cdisc/cosmos/dss/RS/HAMA101/RSORRES>,
        <https://w3id.org/cdisc/cosmos/dss/RS/HAMA101/RSSTRESC>,
        <https://w3id.org/cdisc/cosmos/dss/RS/HAMA101/RSSTRESN>,
        <https://w3id.org/cdisc/cosmos/dss/RS/HAMA101/RSTEST>,
        <https://w3id.org/cdisc/cosmos/dss/RS/HAMA101/RSTESTCD> .

<https://w3id.org/cdisc/cosmos/dss/RS/HAMA102> a cosmos_sdtm:SDTMGroup ;
    dcterms:identifier "HAMA102" ;
    rdf:_1 <https://w3id.org/cdisc/cosmos/dss/RS/HAMA102/RSTESTCD> ;
    rdf:_2 <https://w3id.org/cdisc/cosmos/dss/RS/HAMA102/RSTEST> ;
    rdf:_3 <https://w3id.org/cdisc/cosmos/dss/RS/HAMA102/RSCAT> ;
    rdf:_4 <https://w3id.org/cdisc/cosmos/dss/RS/HAMA102/RSORRES> ;
    rdf:_5 <https://w3id.org/cdisc/cosmos/dss/RS/HAMA102/RSSTRESC> ;
    rdf:_6 <https://w3id.org/cdisc/cosmos/dss/RS/HAMA102/RSSTRESN> ;
    rdf:_7 <https://w3id.org/cdisc/cosmos/dss/RS/HAMA102/RSDTC> ;
    cosmos_sdtm:biomedicalConceptId NCIT:C102074 ;
    cosmos_sdtm:domain "RS" ;
    cosmos_sdtm:packageDate "2026-05-26"^^xsd:date ;
    cosmos_sdtm:packageType <https://www.cdisc.org/cosmos/sdtm_v1.0/PackageTypeEnum#sdtm> ;
    cosmos_sdtm:sdtmigStartVersion "3-2" ;
    cosmos_sdtm:shortName "HAMA1-Tension" ;
    cosmos_sdtm:source "RS.RSTESTCD" ;
    cosmos_sdtm:variables <https://w3id.org/cdisc/cosmos/dss/RS/HAMA102/RSCAT>,
        <https://w3id.org/cdisc/cosmos/dss/RS/HAMA102/RSDTC>,
        <https://w3id.org/cdisc/cosmos/dss/RS/HAMA102/RSORRES>,
        <https://w3id.org/cdisc/cosmos/dss/RS/HAMA102/RSSTRESC>,
        <https://w3id.org/cdisc/cosmos/dss/RS/HAMA102/RSSTRESN>,
        <https://w3id.org/cdisc/cosmos/dss/RS/HAMA102/RSTEST>,
        <https://w3id.org/cdisc/cosmos/dss/RS/HAMA102/RSTESTCD> .

<https://w3id.org/cdisc/cosmos/dss/RS/HAMA103> a cosmos_sdtm:SDTMGroup ;
    dcterms:identifier "HAMA103" ;
    rdf:_1 <https://w3id.org/cdisc/cosmos/dss/RS/HAMA103/RSTESTCD> ;
    rdf:_2 <https://w3id.org/cdisc/cosmos/dss/RS/HAMA103/RSTEST> ;
    rdf:_3 <https://w3id.org/cdisc/cosmos/dss/RS/HAMA103/RSCAT> ;
    rdf:_4 <https://w3id.org/cdisc/cosmos/dss/RS/HAMA103/RSORRES> ;
    rdf:_5 <https://w3id.org/cdisc/cosmos/dss/RS/HAMA103/RSSTRESC> ;
    rdf:_6 <https://w3id.org/cdisc/cosmos/dss/RS/HAMA103/RSSTRESN> ;
    rdf:_7 <https://w3id.org/cdisc/cosmos/dss/RS/HAMA103/RSDTC> ;
    cosmos_sdtm:biomedicalConceptId NCIT:C102075 ;
    cosmos_sdtm:domain "RS" ;
    cosmos_sdtm:packageDate "2026-05-26"^^xsd:date ;
    cosmos_sdtm:packageType <https://www.cdisc.org/cosmos/sdtm_v1.0/PackageTypeEnum#sdtm> ;
    cosmos_sdtm:sdtmigStartVersion "3-2" ;
    cosmos_sdtm:shortName "HAMA1-Fears" ;
    cosmos_sdtm:source "RS.RSTESTCD" ;
    cosmos_sdtm:variables <https://w3id.org/cdisc/cosmos/dss/RS/HAMA103/RSCAT>,
        <https://w3id.org/cdisc/cosmos/dss/RS/HAMA103/RSDTC>,
        <https://w3id.org/cdisc/cosmos/dss/RS/HAMA103/RSORRES>,
        <https://w3id.org/cdisc/cosmos/dss/RS/HAMA103/RSSTRESC>,
        <https://w3id.org/cdisc/cosmos/dss/RS/HAMA103/RSSTRESN>,
        <https://w3id.org/cdisc/cosmos/dss/RS/HAMA103/RSTEST>,
        <https://w3id.org/cdisc/cosmos/dss/RS/HAMA103/RSTESTCD> .

<https://w3id.org/cdisc/cosmos/dss/RS/HAMA104> a cosmos_sdtm:SDTMGroup ;
    dcterms:identifier "HAMA104" ;
    rdf:_1 <https://w3id.org/cdisc/cosmos/dss/RS/HAMA104/RSTESTCD> ;
    rdf:_2 <https://w3id.org/cdisc/cosmos/dss/RS/HAMA104/RSTEST> ;
    rdf:_3 <https://w3id.org/cdisc/cosmos/dss/RS/HAMA104/RSCAT> ;
    rdf:_4 <https://w3id.org/cdisc/cosmos/dss/RS/HAMA104/RSORRES> ;
    rdf:_5 <https://w3id.org/cdisc/cosmos/dss/RS/HAMA104/RSSTRESC> ;
    rdf:_6 <https://w3id.org/cdisc/cosmos/dss/RS/HAMA104/RSSTRESN> ;
    rdf:_7 <https://w3id.org/cdisc/cosmos/dss/RS/HAMA104/RSDTC> ;
    cosmos_sdtm:biomedicalConceptId NCIT:C102076 ;
    cosmos_sdtm:domain "RS" ;
    cosmos_sdtm:packageDate "2026-05-26"^^xsd:date ;
    cosmos_sdtm:packageType <https://www.cdisc.org/cosmos/sdtm_v1.0/PackageTypeEnum#sdtm> ;
    cosmos_sdtm:sdtmigStartVersion "3-2" ;
    cosmos_sdtm:shortName "HAMA1-Insomnia" ;
    cosmos_sdtm:source "RS.RSTESTCD" ;
    cosmos_sdtm:variables <https://w3id.org/cdisc/cosmos/dss/RS/HAMA104/RSCAT>,
        <https://w3id.org/cdisc/cosmos/dss/RS/HAMA104/RSDTC>,
        <https://w3id.org/cdisc/cosmos/dss/RS/HAMA104/RSORRES>,
        <https://w3id.org/cdisc/cosmos/dss/RS/HAMA104/RSSTRESC>,
        <https://w3id.org/cdisc/cosmos/dss/RS/HAMA104/RSSTRESN>,
        <https://w3id.org/cdisc/cosmos/dss/RS/HAMA104/RSTEST>,
        <https://w3id.org/cdisc/cosmos/dss/RS/HAMA104/RSTESTCD> .

<https://w3id.org/cdisc/cosmos/dss/RS/HAMA105> a cosmos_sdtm:SDTMGroup ;
    dcterms:identifier "HAMA105" ;
    rdf:_1 <https://w3id.org/cdisc/cosmos/dss/RS/HAMA105/RSTESTCD> ;
    rdf:_2 <https://w3id.org/cdisc/cosmos/dss/RS/HAMA105/RSTEST> ;
    rdf:_3 <https://w3id.org/cdisc/cosmos/dss/RS/HAMA105/RSCAT> ;
    rdf:_4 <https://w3id.org/cdisc/cosmos/dss/RS/HAMA105/RSORRES> ;
    rdf:_5 <https://w3id.org/cdisc/cosmos/dss/RS/HAMA105/RSSTRESC> ;
    rdf:_6 <https://w3id.org/cdisc/cosmos/dss/RS/HAMA105/RSSTRESN> ;
    rdf:_7 <https://w3id.org/cdisc/cosmos/dss/RS/HAMA105/RSDTC> ;
    cosmos_sdtm:biomedicalConceptId NCIT:C102077 ;
    cosmos_sdtm:domain "RS" ;
    cosmos_sdtm:packageDate "2026-05-26"^^xsd:date ;
    cosmos_sdtm:packageType <https://www.cdisc.org/cosmos/sdtm_v1.0/PackageTypeEnum#sdtm> ;
    cosmos_sdtm:sdtmigStartVersion "3-2" ;
    cosmos_sdtm:shortName "HAMA1-Intellectual" ;
    cosmos_sdtm:source "RS.RSTESTCD" ;
    cosmos_sdtm:variables <https://w3id.org/cdisc/cosmos/dss/RS/HAMA105/RSCAT>,
        <https://w3id.org/cdisc/cosmos/dss/RS/HAMA105/RSDTC>,
        <https://w3id.org/cdisc/cosmos/dss/RS/HAMA105/RSORRES>,
        <https://w3id.org/cdisc/cosmos/dss/RS/HAMA105/RSSTRESC>,
        <https://w3id.org/cdisc/cosmos/dss/RS/HAMA105/RSSTRESN>,
        <https://w3id.org/cdisc/cosmos/dss/RS/HAMA105/RSTEST>,
        <https://w3id.org/cdisc/cosmos/dss/RS/HAMA105/RSTESTCD> .

<https://w3id.org/cdisc/cosmos/dss/RS/HAMA106> a cosmos_sdtm:SDTMGroup ;
    dcterms:identifier "HAMA106" ;
    rdf:_1 <https://w3id.org/cdisc/cosmos/dss/RS/HAMA106/RSTESTCD> ;
    rdf:_2 <https://w3id.org/cdisc/cosmos/dss/RS/HAMA106/RSTEST> ;
    rdf:_3 <https://w3id.org/cdisc/cosmos/dss/RS/HAMA106/RSCAT> ;
    rdf:_4 <https://w3id.org/cdisc/cosmos/dss/RS/HAMA106/RSORRES> ;
    rdf:_5 <https://w3id.org/cdisc/cosmos/dss/RS/HAMA106/RSSTRESC> ;
    rdf:_6 <https://w3id.org/cdisc/cosmos/dss/RS/HAMA106/RSSTRESN> ;
    rdf:_7 <https://w3id.org/cdisc/cosmos/dss/RS/HAMA106/RSDTC> ;
    cosmos_sdtm:biomedicalConceptId NCIT:C102078 ;
    cosmos_sdtm:domain "RS" ;
    cosmos_sdtm:packageDate "2026-05-26"^^xsd:date ;
    cosmos_sdtm:packageType <https://www.cdisc.org/cosmos/sdtm_v1.0/PackageTypeEnum#sdtm> ;
    cosmos_sdtm:sdtmigStartVersion "3-2" ;
    cosmos_sdtm:shortName "HAMA1-Depressed Mood" ;
    cosmos_sdtm:source "RS.RSTESTCD" ;
    cosmos_sdtm:variables <https://w3id.org/cdisc/cosmos/dss/RS/HAMA106/RSCAT>,
        <https://w3id.org/cdisc/cosmos/dss/RS/HAMA106/RSDTC>,
        <https://w3id.org/cdisc/cosmos/dss/RS/HAMA106/RSORRES>,
        <https://w3id.org/cdisc/cosmos/dss/RS/HAMA106/RSSTRESC>,
        <https://w3id.org/cdisc/cosmos/dss/RS/HAMA106/RSSTRESN>,
        <https://w3id.org/cdisc/cosmos/dss/RS/HAMA106/RSTEST>,
        <https://w3id.org/cdisc/cosmos/dss/RS/HAMA106/RSTESTCD> .

<https://w3id.org/cdisc/cosmos/dss/RS/HAMA107> a cosmos_sdtm:SDTMGroup ;
    dcterms:identifier "HAMA107" ;
    rdf:_1 <https://w3id.org/cdisc/cosmos/dss/RS/HAMA107/RSTESTCD> ;
    rdf:_2 <https://w3id.org/cdisc/cosmos/dss/RS/HAMA107/RSTEST> ;
    rdf:_3 <https://w3id.org/cdisc/cosmos/dss/RS/HAMA107/RSCAT> ;
    rdf:_4 <https://w3id.org/cdisc/cosmos/dss/RS/HAMA107/RSORRES> ;
    rdf:_5 <https://w3id.org/cdisc/cosmos/dss/RS/HAMA107/RSSTRESC> ;
    rdf:_6 <https://w3id.org/cdisc/cosmos/dss/RS/HAMA107/RSSTRESN> ;
    rdf:_7 <https://w3id.org/cdisc/cosmos/dss/RS/HAMA107/RSDTC> ;
    cosmos_sdtm:biomedicalConceptId NCIT:C102079 ;
    cosmos_sdtm:domain "RS" ;
    cosmos_sdtm:packageDate "2026-05-26"^^xsd:date ;
    cosmos_sdtm:packageType <https://www.cdisc.org/cosmos/sdtm_v1.0/PackageTypeEnum#sdtm> ;
    cosmos_sdtm:sdtmigStartVersion "3-2" ;
    cosmos_sdtm:shortName "HAMA1-Somatic (Muscular)" ;
    cosmos_sdtm:source "RS.RSTESTCD" ;
    cosmos_sdtm:variables <https://w3id.org/cdisc/cosmos/dss/RS/HAMA107/RSCAT>,
        <https://w3id.org/cdisc/cosmos/dss/RS/HAMA107/RSDTC>,
        <https://w3id.org/cdisc/cosmos/dss/RS/HAMA107/RSORRES>,
        <https://w3id.org/cdisc/cosmos/dss/RS/HAMA107/RSSTRESC>,
        <https://w3id.org/cdisc/cosmos/dss/RS/HAMA107/RSSTRESN>,
        <https://w3id.org/cdisc/cosmos/dss/RS/HAMA107/RSTEST>,
        <https://w3id.org/cdisc/cosmos/dss/RS/HAMA107/RSTESTCD> .

<https://w3id.org/cdisc/cosmos/dss/RS/HAMA108> a cosmos_sdtm:SDTMGroup ;
    dcterms:identifier "HAMA108" ;
    rdf:_1 <https://w3id.org/cdisc/cosmos/dss/RS/HAMA108/RSTESTCD> ;
    rdf:_2 <https://w3id.org/cdisc/cosmos/dss/RS/HAMA108/RSTEST> ;
    rdf:_3 <https://w3id.org/cdisc/cosmos/dss/RS/HAMA108/RSCAT> ;
    rdf:_4 <https://w3id.org/cdisc/cosmos/dss/RS/HAMA108/RSORRES> ;
    rdf:_5 <https://w3id.org/cdisc/cosmos/dss/RS/HAMA108/RSSTRESC> ;
    rdf:_6 <https://w3id.org/cdisc/cosmos/dss/RS/HAMA108/RSSTRESN> ;
    rdf:_7 <https://w3id.org/cdisc/cosmos/dss/RS/HAMA108/RSDTC> ;
    cosmos_sdtm:biomedicalConceptId NCIT:C102080 ;
    cosmos_sdtm:domain "RS" ;
    cosmos_sdtm:packageDate "2026-05-26"^^xsd:date ;
    cosmos_sdtm:packageType <https://www.cdisc.org/cosmos/sdtm_v1.0/PackageTypeEnum#sdtm> ;
    cosmos_sdtm:sdtmigStartVersion "3-2" ;
    cosmos_sdtm:shortName "HAMA1-Somatic (Sensory)" ;
    cosmos_sdtm:source "RS.RSTESTCD" ;
    cosmos_sdtm:variables <https://w3id.org/cdisc/cosmos/dss/RS/HAMA108/RSCAT>,
        <https://w3id.org/cdisc/cosmos/dss/RS/HAMA108/RSDTC>,
        <https://w3id.org/cdisc/cosmos/dss/RS/HAMA108/RSORRES>,
        <https://w3id.org/cdisc/cosmos/dss/RS/HAMA108/RSSTRESC>,
        <https://w3id.org/cdisc/cosmos/dss/RS/HAMA108/RSSTRESN>,
        <https://w3id.org/cdisc/cosmos/dss/RS/HAMA108/RSTEST>,
        <https://w3id.org/cdisc/cosmos/dss/RS/HAMA108/RSTESTCD> .

<https://w3id.org/cdisc/cosmos/dss/RS/HAMA109> a cosmos_sdtm:SDTMGroup ;
    dcterms:identifier "HAMA109" ;
    rdf:_1 <https://w3id.org/cdisc/cosmos/dss/RS/HAMA109/RSTESTCD> ;
    rdf:_2 <https://w3id.org/cdisc/cosmos/dss/RS/HAMA109/RSTEST> ;
    rdf:_3 <https://w3id.org/cdisc/cosmos/dss/RS/HAMA109/RSCAT> ;
    rdf:_4 <https://w3id.org/cdisc/cosmos/dss/RS/HAMA109/RSORRES> ;
    rdf:_5 <https://w3id.org/cdisc/cosmos/dss/RS/HAMA109/RSSTRESC> ;
    rdf:_6 <https://w3id.org/cdisc/cosmos/dss/RS/HAMA109/RSSTRESN> ;
    rdf:_7 <https://w3id.org/cdisc/cosmos/dss/RS/HAMA109/RSDTC> ;
    cosmos_sdtm:biomedicalConceptId NCIT:C102081 ;
    cosmos_sdtm:domain "RS" ;
    cosmos_sdtm:packageDate "2026-05-26"^^xsd:date ;
    cosmos_sdtm:packageType <https://www.cdisc.org/cosmos/sdtm_v1.0/PackageTypeEnum#sdtm> ;
    cosmos_sdtm:sdtmigStartVersion "3-2" ;
    cosmos_sdtm:shortName "HAMA1-Cardiovascular Symptoms" ;
    cosmos_sdtm:source "RS.RSTESTCD" ;
    cosmos_sdtm:variables <https://w3id.org/cdisc/cosmos/dss/RS/HAMA109/RSCAT>,
        <https://w3id.org/cdisc/cosmos/dss/RS/HAMA109/RSDTC>,
        <https://w3id.org/cdisc/cosmos/dss/RS/HAMA109/RSORRES>,
        <https://w3id.org/cdisc/cosmos/dss/RS/HAMA109/RSSTRESC>,
        <https://w3id.org/cdisc/cosmos/dss/RS/HAMA109/RSSTRESN>,
        <https://w3id.org/cdisc/cosmos/dss/RS/HAMA109/RSTEST>,
        <https://w3id.org/cdisc/cosmos/dss/RS/HAMA109/RSTESTCD> .

<https://w3id.org/cdisc/cosmos/dss/RS/HAMA110> a cosmos_sdtm:SDTMGroup ;
    dcterms:identifier "HAMA110" ;
    rdf:_1 <https://w3id.org/cdisc/cosmos/dss/RS/HAMA110/RSTESTCD> ;
    rdf:_2 <https://w3id.org/cdisc/cosmos/dss/RS/HAMA110/RSTEST> ;
    rdf:_3 <https://w3id.org/cdisc/cosmos/dss/RS/HAMA110/RSCAT> ;
    rdf:_4 <https://w3id.org/cdisc/cosmos/dss/RS/HAMA110/RSORRES> ;
    rdf:_5 <https://w3id.org/cdisc/cosmos/dss/RS/HAMA110/RSSTRESC> ;
    rdf:_6 <https://w3id.org/cdisc/cosmos/dss/RS/HAMA110/RSSTRESN> ;
    rdf:_7 <https://w3id.org/cdisc/cosmos/dss/RS/HAMA110/RSDTC> ;
    cosmos_sdtm:biomedicalConceptId NCIT:C102082 ;
    cosmos_sdtm:domain "RS" ;
    cosmos_sdtm:packageDate "2026-05-26"^^xsd:date ;
    cosmos_sdtm:packageType <https://www.cdisc.org/cosmos/sdtm_v1.0/PackageTypeEnum#sdtm> ;
    cosmos_sdtm:sdtmigStartVersion "3-2" ;
    cosmos_sdtm:shortName "HAMA1-Respiratory Symptoms" ;
    cosmos_sdtm:source "RS.RSTESTCD" ;
    cosmos_sdtm:variables <https://w3id.org/cdisc/cosmos/dss/RS/HAMA110/RSCAT>,
        <https://w3id.org/cdisc/cosmos/dss/RS/HAMA110/RSDTC>,
        <https://w3id.org/cdisc/cosmos/dss/RS/HAMA110/RSORRES>,
        <https://w3id.org/cdisc/cosmos/dss/RS/HAMA110/RSSTRESC>,
        <https://w3id.org/cdisc/cosmos/dss/RS/HAMA110/RSSTRESN>,
        <https://w3id.org/cdisc/cosmos/dss/RS/HAMA110/RSTEST>,
        <https://w3id.org/cdisc/cosmos/dss/RS/HAMA110/RSTESTCD> .

<https://w3id.org/cdisc/cosmos/dss/RS/HAMA111> a cosmos_sdtm:SDTMGroup ;
    dcterms:identifier "HAMA111" ;
    rdf:_1 <https://w3id.org/cdisc/cosmos/dss/RS/HAMA111/RSTESTCD> ;
    rdf:_2 <https://w3id.org/cdisc/cosmos/dss/RS/HAMA111/RSTEST> ;
    rdf:_3 <https://w3id.org/cdisc/cosmos/dss/RS/HAMA111/RSCAT> ;
    rdf:_4 <https://w3id.org/cdisc/cosmos/dss/RS/HAMA111/RSORRES> ;
    rdf:_5 <https://w3id.org/cdisc/cosmos/dss/RS/HAMA111/RSSTRESC> ;
    rdf:_6 <https://w3id.org/cdisc/cosmos/dss/RS/HAMA111/RSSTRESN> ;
    rdf:_7 <https://w3id.org/cdisc/cosmos/dss/RS/HAMA111/RSDTC> ;
    cosmos_sdtm:biomedicalConceptId NCIT:C102083 ;
    cosmos_sdtm:domain "RS" ;
    cosmos_sdtm:packageDate "2026-05-26"^^xsd:date ;
    cosmos_sdtm:packageType <https://www.cdisc.org/cosmos/sdtm_v1.0/PackageTypeEnum#sdtm> ;
    cosmos_sdtm:sdtmigStartVersion "3-2" ;
    cosmos_sdtm:shortName "HAMA1-Gastrointestinal Symptoms" ;
    cosmos_sdtm:source "RS.RSTESTCD" ;
    cosmos_sdtm:variables <https://w3id.org/cdisc/cosmos/dss/RS/HAMA111/RSCAT>,
        <https://w3id.org/cdisc/cosmos/dss/RS/HAMA111/RSDTC>,
        <https://w3id.org/cdisc/cosmos/dss/RS/HAMA111/RSORRES>,
        <https://w3id.org/cdisc/cosmos/dss/RS/HAMA111/RSSTRESC>,
        <https://w3id.org/cdisc/cosmos/dss/RS/HAMA111/RSSTRESN>,
        <https://w3id.org/cdisc/cosmos/dss/RS/HAMA111/RSTEST>,
        <https://w3id.org/cdisc/cosmos/dss/RS/HAMA111/RSTESTCD> .

<https://w3id.org/cdisc/cosmos/dss/RS/HAMA112> a cosmos_sdtm:SDTMGroup ;
    dcterms:identifier "HAMA112" ;
    rdf:_1 <https://w3id.org/cdisc/cosmos/dss/RS/HAMA112/RSTESTCD> ;
    rdf:_2 <https://w3id.org/cdisc/cosmos/dss/RS/HAMA112/RSTEST> ;
    rdf:_3 <https://w3id.org/cdisc/cosmos/dss/RS/HAMA112/RSCAT> ;
    rdf:_4 <https://w3id.org/cdisc/cosmos/dss/RS/HAMA112/RSORRES> ;
    rdf:_5 <https://w3id.org/cdisc/cosmos/dss/RS/HAMA112/RSSTRESC> ;
    rdf:_6 <https://w3id.org/cdisc/cosmos/dss/RS/HAMA112/RSSTRESN> ;
    rdf:_7 <https://w3id.org/cdisc/cosmos/dss/RS/HAMA112/RSDTC> ;
    cosmos_sdtm:biomedicalConceptId NCIT:C102084 ;
    cosmos_sdtm:domain "RS" ;
    cosmos_sdtm:packageDate "2026-05-26"^^xsd:date ;
    cosmos_sdtm:packageType <https://www.cdisc.org/cosmos/sdtm_v1.0/PackageTypeEnum#sdtm> ;
    cosmos_sdtm:sdtmigStartVersion "3-2" ;
    cosmos_sdtm:shortName "HAMA1-Genitourinary Symptoms" ;
    cosmos_sdtm:source "RS.RSTESTCD" ;
    cosmos_sdtm:variables <https://w3id.org/cdisc/cosmos/dss/RS/HAMA112/RSCAT>,
        <https://w3id.org/cdisc/cosmos/dss/RS/HAMA112/RSDTC>,
        <https://w3id.org/cdisc/cosmos/dss/RS/HAMA112/RSORRES>,
        <https://w3id.org/cdisc/cosmos/dss/RS/HAMA112/RSSTRESC>,
        <https://w3id.org/cdisc/cosmos/dss/RS/HAMA112/RSSTRESN>,
        <https://w3id.org/cdisc/cosmos/dss/RS/HAMA112/RSTEST>,
        <https://w3id.org/cdisc/cosmos/dss/RS/HAMA112/RSTESTCD> .

<https://w3id.org/cdisc/cosmos/dss/RS/HAMA113> a cosmos_sdtm:SDTMGroup ;
    dcterms:identifier "HAMA113" ;
    rdf:_1 <https://w3id.org/cdisc/cosmos/dss/RS/HAMA113/RSTESTCD> ;
    rdf:_2 <https://w3id.org/cdisc/cosmos/dss/RS/HAMA113/RSTEST> ;
    rdf:_3 <https://w3id.org/cdisc/cosmos/dss/RS/HAMA113/RSCAT> ;
    rdf:_4 <https://w3id.org/cdisc/cosmos/dss/RS/HAMA113/RSORRES> ;
    rdf:_5 <https://w3id.org/cdisc/cosmos/dss/RS/HAMA113/RSSTRESC> ;
    rdf:_6 <https://w3id.org/cdisc/cosmos/dss/RS/HAMA113/RSSTRESN> ;
    rdf:_7 <https://w3id.org/cdisc/cosmos/dss/RS/HAMA113/RSDTC> ;
    cosmos_sdtm:biomedicalConceptId NCIT:C102085 ;
    cosmos_sdtm:domain "RS" ;
    cosmos_sdtm:packageDate "2026-05-26"^^xsd:date ;
    cosmos_sdtm:packageType <https://www.cdisc.org/cosmos/sdtm_v1.0/PackageTypeEnum#sdtm> ;
    cosmos_sdtm:sdtmigStartVersion "3-2" ;
    cosmos_sdtm:shortName "HAMA1-Autonomic Symptoms" ;
    cosmos_sdtm:source "RS.RSTESTCD" ;
    cosmos_sdtm:variables <https://w3id.org/cdisc/cosmos/dss/RS/HAMA113/RSCAT>,
        <https://w3id.org/cdisc/cosmos/dss/RS/HAMA113/RSDTC>,
        <https://w3id.org/cdisc/cosmos/dss/RS/HAMA113/RSORRES>,
        <https://w3id.org/cdisc/cosmos/dss/RS/HAMA113/RSSTRESC>,
        <https://w3id.org/cdisc/cosmos/dss/RS/HAMA113/RSSTRESN>,
        <https://w3id.org/cdisc/cosmos/dss/RS/HAMA113/RSTEST>,
        <https://w3id.org/cdisc/cosmos/dss/RS/HAMA113/RSTESTCD> .

<https://w3id.org/cdisc/cosmos/dss/RS/HAMA114> a cosmos_sdtm:SDTMGroup ;
    dcterms:identifier "HAMA114" ;
    rdf:_1 <https://w3id.org/cdisc/cosmos/dss/RS/HAMA114/RSTESTCD> ;
    rdf:_2 <https://w3id.org/cdisc/cosmos/dss/RS/HAMA114/RSTEST> ;
    rdf:_3 <https://w3id.org/cdisc/cosmos/dss/RS/HAMA114/RSCAT> ;
    rdf:_4 <https://w3id.org/cdisc/cosmos/dss/RS/HAMA114/RSORRES> ;
    rdf:_5 <https://w3id.org/cdisc/cosmos/dss/RS/HAMA114/RSSTRESC> ;
    rdf:_6 <https://w3id.org/cdisc/cosmos/dss/RS/HAMA114/RSSTRESN> ;
    rdf:_7 <https://w3id.org/cdisc/cosmos/dss/RS/HAMA114/RSDTC> ;
    cosmos_sdtm:biomedicalConceptId NCIT:C102086 ;
    cosmos_sdtm:domain "RS" ;
    cosmos_sdtm:packageDate "2026-05-26"^^xsd:date ;
    cosmos_sdtm:packageType <https://www.cdisc.org/cosmos/sdtm_v1.0/PackageTypeEnum#sdtm> ;
    cosmos_sdtm:sdtmigStartVersion "3-2" ;
    cosmos_sdtm:shortName "HAMA1-Behavior at Interview" ;
    cosmos_sdtm:source "RS.RSTESTCD" ;
    cosmos_sdtm:variables <https://w3id.org/cdisc/cosmos/dss/RS/HAMA114/RSCAT>,
        <https://w3id.org/cdisc/cosmos/dss/RS/HAMA114/RSDTC>,
        <https://w3id.org/cdisc/cosmos/dss/RS/HAMA114/RSORRES>,
        <https://w3id.org/cdisc/cosmos/dss/RS/HAMA114/RSSTRESC>,
        <https://w3id.org/cdisc/cosmos/dss/RS/HAMA114/RSSTRESN>,
        <https://w3id.org/cdisc/cosmos/dss/RS/HAMA114/RSTEST>,
        <https://w3id.org/cdisc/cosmos/dss/RS/HAMA114/RSTESTCD> .

<https://w3id.org/cdisc/cosmos/dss/RS/HAMA115> a cosmos_sdtm:SDTMGroup ;
    dcterms:identifier "HAMA115" ;
    rdf:_1 <https://w3id.org/cdisc/cosmos/dss/RS/HAMA115/RSTESTCD> ;
    rdf:_2 <https://w3id.org/cdisc/cosmos/dss/RS/HAMA115/RSTEST> ;
    rdf:_3 <https://w3id.org/cdisc/cosmos/dss/RS/HAMA115/RSCAT> ;
    rdf:_4 <https://w3id.org/cdisc/cosmos/dss/RS/HAMA115/RSORRES> ;
    rdf:_5 <https://w3id.org/cdisc/cosmos/dss/RS/HAMA115/RSSTRESC> ;
    rdf:_6 <https://w3id.org/cdisc/cosmos/dss/RS/HAMA115/RSSTRESN> ;
    rdf:_7 <https://w3id.org/cdisc/cosmos/dss/RS/HAMA115/RSDTC> ;
    cosmos_sdtm:biomedicalConceptId NCIT:C155646 ;
    cosmos_sdtm:domain "RS" ;
    cosmos_sdtm:packageDate "2026-05-26"^^xsd:date ;
    cosmos_sdtm:packageType <https://www.cdisc.org/cosmos/sdtm_v1.0/PackageTypeEnum#sdtm> ;
    cosmos_sdtm:sdtmigStartVersion "3-2" ;
    cosmos_sdtm:shortName "HAMA1-Total Score" ;
    cosmos_sdtm:source "RS.RSTESTCD" ;
    cosmos_sdtm:variables <https://w3id.org/cdisc/cosmos/dss/RS/HAMA115/RSCAT>,
        <https://w3id.org/cdisc/cosmos/dss/RS/HAMA115/RSDTC>,
        <https://w3id.org/cdisc/cosmos/dss/RS/HAMA115/RSORRES>,
        <https://w3id.org/cdisc/cosmos/dss/RS/HAMA115/RSSTRESC>,
        <https://w3id.org/cdisc/cosmos/dss/RS/HAMA115/RSSTRESN>,
        <https://w3id.org/cdisc/cosmos/dss/RS/HAMA115/RSTEST>,
        <https://w3id.org/cdisc/cosmos/dss/RS/HAMA115/RSTESTCD> .

<https://w3id.org/cdisc/cosmos/dss/RS/HBI0101> a cosmos_sdtm:SDTMGroup ;
    dcterms:identifier "HBI0101" ;
    rdf:_1 <https://w3id.org/cdisc/cosmos/dss/RS/HBI0101/RSTESTCD> ;
    rdf:_2 <https://w3id.org/cdisc/cosmos/dss/RS/HBI0101/RSTEST> ;
    rdf:_3 <https://w3id.org/cdisc/cosmos/dss/RS/HBI0101/RSCAT> ;
    rdf:_4 <https://w3id.org/cdisc/cosmos/dss/RS/HBI0101/RSORRES> ;
    rdf:_5 <https://w3id.org/cdisc/cosmos/dss/RS/HBI0101/RSSTRESC> ;
    rdf:_6 <https://w3id.org/cdisc/cosmos/dss/RS/HBI0101/RSSTRESN> ;
    rdf:_7 <https://w3id.org/cdisc/cosmos/dss/RS/HBI0101/RSDTC> ;
    rdf:_8 <https://w3id.org/cdisc/cosmos/dss/RS/HBI0101/RSEVLINT> ;
    cosmos_sdtm:biomedicalConceptId NCIT:C191044 ;
    cosmos_sdtm:domain "RS" ;
    cosmos_sdtm:packageDate "2026-05-26"^^xsd:date ;
    cosmos_sdtm:packageType <https://www.cdisc.org/cosmos/sdtm_v1.0/PackageTypeEnum#sdtm> ;
    cosmos_sdtm:sdtmigStartVersion "3-2" ;
    cosmos_sdtm:shortName "HBI01-General Well-being" ;
    cosmos_sdtm:source "RS.RSTESTCD" ;
    cosmos_sdtm:variables <https://w3id.org/cdisc/cosmos/dss/RS/HBI0101/RSCAT>,
        <https://w3id.org/cdisc/cosmos/dss/RS/HBI0101/RSDTC>,
        <https://w3id.org/cdisc/cosmos/dss/RS/HBI0101/RSEVLINT>,
        <https://w3id.org/cdisc/cosmos/dss/RS/HBI0101/RSORRES>,
        <https://w3id.org/cdisc/cosmos/dss/RS/HBI0101/RSSTRESC>,
        <https://w3id.org/cdisc/cosmos/dss/RS/HBI0101/RSSTRESN>,
        <https://w3id.org/cdisc/cosmos/dss/RS/HBI0101/RSTEST>,
        <https://w3id.org/cdisc/cosmos/dss/RS/HBI0101/RSTESTCD> .

<https://w3id.org/cdisc/cosmos/dss/RS/HBI0102> a cosmos_sdtm:SDTMGroup ;
    dcterms:identifier "HBI0102" ;
    rdf:_1 <https://w3id.org/cdisc/cosmos/dss/RS/HBI0102/RSTESTCD> ;
    rdf:_2 <https://w3id.org/cdisc/cosmos/dss/RS/HBI0102/RSTEST> ;
    rdf:_3 <https://w3id.org/cdisc/cosmos/dss/RS/HBI0102/RSCAT> ;
    rdf:_4 <https://w3id.org/cdisc/cosmos/dss/RS/HBI0102/RSORRES> ;
    rdf:_5 <https://w3id.org/cdisc/cosmos/dss/RS/HBI0102/RSSTRESC> ;
    rdf:_6 <https://w3id.org/cdisc/cosmos/dss/RS/HBI0102/RSSTRESN> ;
    rdf:_7 <https://w3id.org/cdisc/cosmos/dss/RS/HBI0102/RSDTC> ;
    rdf:_8 <https://w3id.org/cdisc/cosmos/dss/RS/HBI0102/RSEVLINT> ;
    cosmos_sdtm:biomedicalConceptId NCIT:C191045 ;
    cosmos_sdtm:domain "RS" ;
    cosmos_sdtm:packageDate "2026-05-26"^^xsd:date ;
    cosmos_sdtm:packageType <https://www.cdisc.org/cosmos/sdtm_v1.0/PackageTypeEnum#sdtm> ;
    cosmos_sdtm:sdtmigStartVersion "3-2" ;
    cosmos_sdtm:shortName "HBI01-Abdominal Pain" ;
    cosmos_sdtm:source "RS.RSTESTCD" ;
    cosmos_sdtm:variables <https://w3id.org/cdisc/cosmos/dss/RS/HBI0102/RSCAT>,
        <https://w3id.org/cdisc/cosmos/dss/RS/HBI0102/RSDTC>,
        <https://w3id.org/cdisc/cosmos/dss/RS/HBI0102/RSEVLINT>,
        <https://w3id.org/cdisc/cosmos/dss/RS/HBI0102/RSORRES>,
        <https://w3id.org/cdisc/cosmos/dss/RS/HBI0102/RSSTRESC>,
        <https://w3id.org/cdisc/cosmos/dss/RS/HBI0102/RSSTRESN>,
        <https://w3id.org/cdisc/cosmos/dss/RS/HBI0102/RSTEST>,
        <https://w3id.org/cdisc/cosmos/dss/RS/HBI0102/RSTESTCD> .

<https://w3id.org/cdisc/cosmos/dss/RS/HBI0103> a cosmos_sdtm:SDTMGroup ;
    dcterms:identifier "HBI0103" ;
    rdf:_1 <https://w3id.org/cdisc/cosmos/dss/RS/HBI0103/RSTESTCD> ;
    rdf:_2 <https://w3id.org/cdisc/cosmos/dss/RS/HBI0103/RSTEST> ;
    rdf:_3 <https://w3id.org/cdisc/cosmos/dss/RS/HBI0103/RSCAT> ;
    rdf:_4 <https://w3id.org/cdisc/cosmos/dss/RS/HBI0103/RSORRES> ;
    rdf:_5 <https://w3id.org/cdisc/cosmos/dss/RS/HBI0103/RSSTRESC> ;
    rdf:_6 <https://w3id.org/cdisc/cosmos/dss/RS/HBI0103/RSSTRESN> ;
    rdf:_7 <https://w3id.org/cdisc/cosmos/dss/RS/HBI0103/RSDTC> ;
    rdf:_8 <https://w3id.org/cdisc/cosmos/dss/RS/HBI0103/RSEVLINT> ;
    cosmos_sdtm:biomedicalConceptId NCIT:C191046 ;
    cosmos_sdtm:domain "RS" ;
    cosmos_sdtm:packageDate "2026-05-26"^^xsd:date ;
    cosmos_sdtm:packageType <https://www.cdisc.org/cosmos/sdtm_v1.0/PackageTypeEnum#sdtm> ;
    cosmos_sdtm:sdtmigStartVersion "3-2" ;
    cosmos_sdtm:shortName "HBI01-Number Liquid Stools" ;
    cosmos_sdtm:source "RS.RSTESTCD" ;
    cosmos_sdtm:variables <https://w3id.org/cdisc/cosmos/dss/RS/HBI0103/RSCAT>,
        <https://w3id.org/cdisc/cosmos/dss/RS/HBI0103/RSDTC>,
        <https://w3id.org/cdisc/cosmos/dss/RS/HBI0103/RSEVLINT>,
        <https://w3id.org/cdisc/cosmos/dss/RS/HBI0103/RSORRES>,
        <https://w3id.org/cdisc/cosmos/dss/RS/HBI0103/RSSTRESC>,
        <https://w3id.org/cdisc/cosmos/dss/RS/HBI0103/RSSTRESN>,
        <https://w3id.org/cdisc/cosmos/dss/RS/HBI0103/RSTEST>,
        <https://w3id.org/cdisc/cosmos/dss/RS/HBI0103/RSTESTCD> .

<https://w3id.org/cdisc/cosmos/dss/RS/HBI0104> a cosmos_sdtm:SDTMGroup ;
    dcterms:identifier "HBI0104" ;
    rdf:_1 <https://w3id.org/cdisc/cosmos/dss/RS/HBI0104/RSTESTCD> ;
    rdf:_2 <https://w3id.org/cdisc/cosmos/dss/RS/HBI0104/RSTEST> ;
    rdf:_3 <https://w3id.org/cdisc/cosmos/dss/RS/HBI0104/RSCAT> ;
    rdf:_4 <https://w3id.org/cdisc/cosmos/dss/RS/HBI0104/RSORRES> ;
    rdf:_5 <https://w3id.org/cdisc/cosmos/dss/RS/HBI0104/RSSTRESC> ;
    rdf:_6 <https://w3id.org/cdisc/cosmos/dss/RS/HBI0104/RSSTRESN> ;
    rdf:_7 <https://w3id.org/cdisc/cosmos/dss/RS/HBI0104/RSDTC> ;
    cosmos_sdtm:biomedicalConceptId NCIT:C191047 ;
    cosmos_sdtm:domain "RS" ;
    cosmos_sdtm:packageDate "2026-05-26"^^xsd:date ;
    cosmos_sdtm:packageType <https://www.cdisc.org/cosmos/sdtm_v1.0/PackageTypeEnum#sdtm> ;
    cosmos_sdtm:sdtmigStartVersion "3-2" ;
    cosmos_sdtm:shortName "HBI01-Abdominal Mass" ;
    cosmos_sdtm:source "RS.RSTESTCD" ;
    cosmos_sdtm:variables <https://w3id.org/cdisc/cosmos/dss/RS/HBI0104/RSCAT>,
        <https://w3id.org/cdisc/cosmos/dss/RS/HBI0104/RSDTC>,
        <https://w3id.org/cdisc/cosmos/dss/RS/HBI0104/RSORRES>,
        <https://w3id.org/cdisc/cosmos/dss/RS/HBI0104/RSSTRESC>,
        <https://w3id.org/cdisc/cosmos/dss/RS/HBI0104/RSSTRESN>,
        <https://w3id.org/cdisc/cosmos/dss/RS/HBI0104/RSTEST>,
        <https://w3id.org/cdisc/cosmos/dss/RS/HBI0104/RSTESTCD> .

<https://w3id.org/cdisc/cosmos/dss/RS/HBI0105A> a cosmos_sdtm:SDTMGroup ;
    dcterms:identifier "HBI0105A" ;
    rdf:_1 <https://w3id.org/cdisc/cosmos/dss/RS/HBI0105A/RSTESTCD> ;
    rdf:_2 <https://w3id.org/cdisc/cosmos/dss/RS/HBI0105A/RSTEST> ;
    rdf:_3 <https://w3id.org/cdisc/cosmos/dss/RS/HBI0105A/RSCAT> ;
    rdf:_4 <https://w3id.org/cdisc/cosmos/dss/RS/HBI0105A/RSORRES> ;
    rdf:_5 <https://w3id.org/cdisc/cosmos/dss/RS/HBI0105A/RSSTRESC> ;
    rdf:_6 <https://w3id.org/cdisc/cosmos/dss/RS/HBI0105A/RSSTRESN> ;
    rdf:_7 <https://w3id.org/cdisc/cosmos/dss/RS/HBI0105A/RSDTC> ;
    cosmos_sdtm:biomedicalConceptId NCIT:C191048 ;
    cosmos_sdtm:domain "RS" ;
    cosmos_sdtm:packageDate "2026-05-26"^^xsd:date ;
    cosmos_sdtm:packageType <https://www.cdisc.org/cosmos/sdtm_v1.0/PackageTypeEnum#sdtm> ;
    cosmos_sdtm:sdtmigStartVersion "3-2" ;
    cosmos_sdtm:shortName "HBI01-Complication: Arthralgia" ;
    cosmos_sdtm:source "RS.RSTESTCD" ;
    cosmos_sdtm:variables <https://w3id.org/cdisc/cosmos/dss/RS/HBI0105A/RSCAT>,
        <https://w3id.org/cdisc/cosmos/dss/RS/HBI0105A/RSDTC>,
        <https://w3id.org/cdisc/cosmos/dss/RS/HBI0105A/RSORRES>,
        <https://w3id.org/cdisc/cosmos/dss/RS/HBI0105A/RSSTRESC>,
        <https://w3id.org/cdisc/cosmos/dss/RS/HBI0105A/RSSTRESN>,
        <https://w3id.org/cdisc/cosmos/dss/RS/HBI0105A/RSTEST>,
        <https://w3id.org/cdisc/cosmos/dss/RS/HBI0105A/RSTESTCD> .

<https://w3id.org/cdisc/cosmos/dss/RS/HBI0105B> a cosmos_sdtm:SDTMGroup ;
    dcterms:identifier "HBI0105B" ;
    rdf:_1 <https://w3id.org/cdisc/cosmos/dss/RS/HBI0105B/RSTESTCD> ;
    rdf:_2 <https://w3id.org/cdisc/cosmos/dss/RS/HBI0105B/RSTEST> ;
    rdf:_3 <https://w3id.org/cdisc/cosmos/dss/RS/HBI0105B/RSCAT> ;
    rdf:_4 <https://w3id.org/cdisc/cosmos/dss/RS/HBI0105B/RSORRES> ;
    rdf:_5 <https://w3id.org/cdisc/cosmos/dss/RS/HBI0105B/RSSTRESC> ;
    rdf:_6 <https://w3id.org/cdisc/cosmos/dss/RS/HBI0105B/RSSTRESN> ;
    rdf:_7 <https://w3id.org/cdisc/cosmos/dss/RS/HBI0105B/RSDTC> ;
    cosmos_sdtm:biomedicalConceptId NCIT:C191049 ;
    cosmos_sdtm:domain "RS" ;
    cosmos_sdtm:packageDate "2026-05-26"^^xsd:date ;
    cosmos_sdtm:packageType <https://www.cdisc.org/cosmos/sdtm_v1.0/PackageTypeEnum#sdtm> ;
    cosmos_sdtm:sdtmigStartVersion "3-2" ;
    cosmos_sdtm:shortName "HBI01-Complication: Uveitis" ;
    cosmos_sdtm:source "RS.RSTESTCD" ;
    cosmos_sdtm:variables <https://w3id.org/cdisc/cosmos/dss/RS/HBI0105B/RSCAT>,
        <https://w3id.org/cdisc/cosmos/dss/RS/HBI0105B/RSDTC>,
        <https://w3id.org/cdisc/cosmos/dss/RS/HBI0105B/RSORRES>,
        <https://w3id.org/cdisc/cosmos/dss/RS/HBI0105B/RSSTRESC>,
        <https://w3id.org/cdisc/cosmos/dss/RS/HBI0105B/RSSTRESN>,
        <https://w3id.org/cdisc/cosmos/dss/RS/HBI0105B/RSTEST>,
        <https://w3id.org/cdisc/cosmos/dss/RS/HBI0105B/RSTESTCD> .

<https://w3id.org/cdisc/cosmos/dss/RS/HBI0105C> a cosmos_sdtm:SDTMGroup ;
    dcterms:identifier "HBI0105C" ;
    rdf:_1 <https://w3id.org/cdisc/cosmos/dss/RS/HBI0105C/RSTESTCD> ;
    rdf:_2 <https://w3id.org/cdisc/cosmos/dss/RS/HBI0105C/RSTEST> ;
    rdf:_3 <https://w3id.org/cdisc/cosmos/dss/RS/HBI0105C/RSCAT> ;
    rdf:_4 <https://w3id.org/cdisc/cosmos/dss/RS/HBI0105C/RSORRES> ;
    rdf:_5 <https://w3id.org/cdisc/cosmos/dss/RS/HBI0105C/RSSTRESC> ;
    rdf:_6 <https://w3id.org/cdisc/cosmos/dss/RS/HBI0105C/RSSTRESN> ;
    rdf:_7 <https://w3id.org/cdisc/cosmos/dss/RS/HBI0105C/RSDTC> ;
    cosmos_sdtm:biomedicalConceptId NCIT:C191050 ;
    cosmos_sdtm:domain "RS" ;
    cosmos_sdtm:packageDate "2026-05-26"^^xsd:date ;
    cosmos_sdtm:packageType <https://www.cdisc.org/cosmos/sdtm_v1.0/PackageTypeEnum#sdtm> ;
    cosmos_sdtm:sdtmigStartVersion "3-2" ;
    cosmos_sdtm:shortName "HBI01-Complication: Erythema Nodosum" ;
    cosmos_sdtm:source "RS.RSTESTCD" ;
    cosmos_sdtm:variables <https://w3id.org/cdisc/cosmos/dss/RS/HBI0105C/RSCAT>,
        <https://w3id.org/cdisc/cosmos/dss/RS/HBI0105C/RSDTC>,
        <https://w3id.org/cdisc/cosmos/dss/RS/HBI0105C/RSORRES>,
        <https://w3id.org/cdisc/cosmos/dss/RS/HBI0105C/RSSTRESC>,
        <https://w3id.org/cdisc/cosmos/dss/RS/HBI0105C/RSSTRESN>,
        <https://w3id.org/cdisc/cosmos/dss/RS/HBI0105C/RSTEST>,
        <https://w3id.org/cdisc/cosmos/dss/RS/HBI0105C/RSTESTCD> .

<https://w3id.org/cdisc/cosmos/dss/RS/HBI0105D> a cosmos_sdtm:SDTMGroup ;
    dcterms:identifier "HBI0105D" ;
    rdf:_1 <https://w3id.org/cdisc/cosmos/dss/RS/HBI0105D/RSTESTCD> ;
    rdf:_2 <https://w3id.org/cdisc/cosmos/dss/RS/HBI0105D/RSTEST> ;
    rdf:_3 <https://w3id.org/cdisc/cosmos/dss/RS/HBI0105D/RSCAT> ;
    rdf:_4 <https://w3id.org/cdisc/cosmos/dss/RS/HBI0105D/RSORRES> ;
    rdf:_5 <https://w3id.org/cdisc/cosmos/dss/RS/HBI0105D/RSSTRESC> ;
    rdf:_6 <https://w3id.org/cdisc/cosmos/dss/RS/HBI0105D/RSSTRESN> ;
    rdf:_7 <https://w3id.org/cdisc/cosmos/dss/RS/HBI0105D/RSDTC> ;
    cosmos_sdtm:biomedicalConceptId NCIT:C191051 ;
    cosmos_sdtm:domain "RS" ;
    cosmos_sdtm:packageDate "2026-05-26"^^xsd:date ;
    cosmos_sdtm:packageType <https://www.cdisc.org/cosmos/sdtm_v1.0/PackageTypeEnum#sdtm> ;
    cosmos_sdtm:sdtmigStartVersion "3-2" ;
    cosmos_sdtm:shortName "HBI01-Complication: Aphthous Ulcers" ;
    cosmos_sdtm:source "RS.RSTESTCD" ;
    cosmos_sdtm:variables <https://w3id.org/cdisc/cosmos/dss/RS/HBI0105D/RSCAT>,
        <https://w3id.org/cdisc/cosmos/dss/RS/HBI0105D/RSDTC>,
        <https://w3id.org/cdisc/cosmos/dss/RS/HBI0105D/RSORRES>,
        <https://w3id.org/cdisc/cosmos/dss/RS/HBI0105D/RSSTRESC>,
        <https://w3id.org/cdisc/cosmos/dss/RS/HBI0105D/RSSTRESN>,
        <https://w3id.org/cdisc/cosmos/dss/RS/HBI0105D/RSTEST>,
        <https://w3id.org/cdisc/cosmos/dss/RS/HBI0105D/RSTESTCD> .

<https://w3id.org/cdisc/cosmos/dss/RS/HBI0105E> a cosmos_sdtm:SDTMGroup ;
    dcterms:identifier "HBI0105E" ;
    rdf:_1 <https://w3id.org/cdisc/cosmos/dss/RS/HBI0105E/RSTESTCD> ;
    rdf:_2 <https://w3id.org/cdisc/cosmos/dss/RS/HBI0105E/RSTEST> ;
    rdf:_3 <https://w3id.org/cdisc/cosmos/dss/RS/HBI0105E/RSCAT> ;
    rdf:_4 <https://w3id.org/cdisc/cosmos/dss/RS/HBI0105E/RSORRES> ;
    rdf:_5 <https://w3id.org/cdisc/cosmos/dss/RS/HBI0105E/RSSTRESC> ;
    rdf:_6 <https://w3id.org/cdisc/cosmos/dss/RS/HBI0105E/RSSTRESN> ;
    rdf:_7 <https://w3id.org/cdisc/cosmos/dss/RS/HBI0105E/RSDTC> ;
    cosmos_sdtm:biomedicalConceptId NCIT:C191052 ;
    cosmos_sdtm:domain "RS" ;
    cosmos_sdtm:packageDate "2026-05-26"^^xsd:date ;
    cosmos_sdtm:packageType <https://www.cdisc.org/cosmos/sdtm_v1.0/PackageTypeEnum#sdtm> ;
    cosmos_sdtm:sdtmigStartVersion "3-2" ;
    cosmos_sdtm:shortName "HBI01-Complication: Pyoderma Gangrenosum" ;
    cosmos_sdtm:source "RS.RSTESTCD" ;
    cosmos_sdtm:variables <https://w3id.org/cdisc/cosmos/dss/RS/HBI0105E/RSCAT>,
        <https://w3id.org/cdisc/cosmos/dss/RS/HBI0105E/RSDTC>,
        <https://w3id.org/cdisc/cosmos/dss/RS/HBI0105E/RSORRES>,
        <https://w3id.org/cdisc/cosmos/dss/RS/HBI0105E/RSSTRESC>,
        <https://w3id.org/cdisc/cosmos/dss/RS/HBI0105E/RSSTRESN>,
        <https://w3id.org/cdisc/cosmos/dss/RS/HBI0105E/RSTEST>,
        <https://w3id.org/cdisc/cosmos/dss/RS/HBI0105E/RSTESTCD> .

<https://w3id.org/cdisc/cosmos/dss/RS/HBI0105F> a cosmos_sdtm:SDTMGroup ;
    dcterms:identifier "HBI0105F" ;
    rdf:_1 <https://w3id.org/cdisc/cosmos/dss/RS/HBI0105F/RSTESTCD> ;
    rdf:_2 <https://w3id.org/cdisc/cosmos/dss/RS/HBI0105F/RSTEST> ;
    rdf:_3 <https://w3id.org/cdisc/cosmos/dss/RS/HBI0105F/RSCAT> ;
    rdf:_4 <https://w3id.org/cdisc/cosmos/dss/RS/HBI0105F/RSORRES> ;
    rdf:_5 <https://w3id.org/cdisc/cosmos/dss/RS/HBI0105F/RSSTRESC> ;
    rdf:_6 <https://w3id.org/cdisc/cosmos/dss/RS/HBI0105F/RSSTRESN> ;
    rdf:_7 <https://w3id.org/cdisc/cosmos/dss/RS/HBI0105F/RSDTC> ;
    cosmos_sdtm:biomedicalConceptId NCIT:C191053 ;
    cosmos_sdtm:domain "RS" ;
    cosmos_sdtm:packageDate "2026-05-26"^^xsd:date ;
    cosmos_sdtm:packageType <https://www.cdisc.org/cosmos/sdtm_v1.0/PackageTypeEnum#sdtm> ;
    cosmos_sdtm:sdtmigStartVersion "3-2" ;
    cosmos_sdtm:shortName "HBI - Complication: Anal Fissures" ;
    cosmos_sdtm:source "RS.RSTESTCD" ;
    cosmos_sdtm:variables <https://w3id.org/cdisc/cosmos/dss/RS/HBI0105F/RSCAT>,
        <https://w3id.org/cdisc/cosmos/dss/RS/HBI0105F/RSDTC>,
        <https://w3id.org/cdisc/cosmos/dss/RS/HBI0105F/RSORRES>,
        <https://w3id.org/cdisc/cosmos/dss/RS/HBI0105F/RSSTRESC>,
        <https://w3id.org/cdisc/cosmos/dss/RS/HBI0105F/RSSTRESN>,
        <https://w3id.org/cdisc/cosmos/dss/RS/HBI0105F/RSTEST>,
        <https://w3id.org/cdisc/cosmos/dss/RS/HBI0105F/RSTESTCD> .

<https://w3id.org/cdisc/cosmos/dss/RS/HBI0105G> a cosmos_sdtm:SDTMGroup ;
    dcterms:identifier "HBI0105G" ;
    rdf:_1 <https://w3id.org/cdisc/cosmos/dss/RS/HBI0105G/RSTESTCD> ;
    rdf:_2 <https://w3id.org/cdisc/cosmos/dss/RS/HBI0105G/RSTEST> ;
    rdf:_3 <https://w3id.org/cdisc/cosmos/dss/RS/HBI0105G/RSCAT> ;
    rdf:_4 <https://w3id.org/cdisc/cosmos/dss/RS/HBI0105G/RSORRES> ;
    rdf:_5 <https://w3id.org/cdisc/cosmos/dss/RS/HBI0105G/RSSTRESC> ;
    rdf:_6 <https://w3id.org/cdisc/cosmos/dss/RS/HBI0105G/RSSTRESN> ;
    rdf:_7 <https://w3id.org/cdisc/cosmos/dss/RS/HBI0105G/RSDTC> ;
    cosmos_sdtm:biomedicalConceptId NCIT:C191054 ;
    cosmos_sdtm:domain "RS" ;
    cosmos_sdtm:packageDate "2026-05-26"^^xsd:date ;
    cosmos_sdtm:packageType <https://www.cdisc.org/cosmos/sdtm_v1.0/PackageTypeEnum#sdtm> ;
    cosmos_sdtm:sdtmigStartVersion "3-2" ;
    cosmos_sdtm:shortName "HBI01-Complication: New Fistula" ;
    cosmos_sdtm:source "RS.RSTESTCD" ;
    cosmos_sdtm:variables <https://w3id.org/cdisc/cosmos/dss/RS/HBI0105G/RSCAT>,
        <https://w3id.org/cdisc/cosmos/dss/RS/HBI0105G/RSDTC>,
        <https://w3id.org/cdisc/cosmos/dss/RS/HBI0105G/RSORRES>,
        <https://w3id.org/cdisc/cosmos/dss/RS/HBI0105G/RSSTRESC>,
        <https://w3id.org/cdisc/cosmos/dss/RS/HBI0105G/RSSTRESN>,
        <https://w3id.org/cdisc/cosmos/dss/RS/HBI0105G/RSTEST>,
        <https://w3id.org/cdisc/cosmos/dss/RS/HBI0105G/RSTESTCD> .

<https://w3id.org/cdisc/cosmos/dss/RS/HBI0105H> a cosmos_sdtm:SDTMGroup ;
    dcterms:identifier "HBI0105H" ;
    rdf:_1 <https://w3id.org/cdisc/cosmos/dss/RS/HBI0105H/RSTESTCD> ;
    rdf:_2 <https://w3id.org/cdisc/cosmos/dss/RS/HBI0105H/RSTEST> ;
    rdf:_3 <https://w3id.org/cdisc/cosmos/dss/RS/HBI0105H/RSCAT> ;
    rdf:_4 <https://w3id.org/cdisc/cosmos/dss/RS/HBI0105H/RSORRES> ;
    rdf:_5 <https://w3id.org/cdisc/cosmos/dss/RS/HBI0105H/RSSTRESC> ;
    rdf:_6 <https://w3id.org/cdisc/cosmos/dss/RS/HBI0105H/RSSTRESN> ;
    rdf:_7 <https://w3id.org/cdisc/cosmos/dss/RS/HBI0105H/RSDTC> ;
    cosmos_sdtm:biomedicalConceptId NCIT:C191055 ;
    cosmos_sdtm:domain "RS" ;
    cosmos_sdtm:packageDate "2026-05-26"^^xsd:date ;
    cosmos_sdtm:packageType <https://www.cdisc.org/cosmos/sdtm_v1.0/PackageTypeEnum#sdtm> ;
    cosmos_sdtm:sdtmigStartVersion "3-2" ;
    cosmos_sdtm:shortName "HBI01-Complication: Abscess" ;
    cosmos_sdtm:source "RS.RSTESTCD" ;
    cosmos_sdtm:variables <https://w3id.org/cdisc/cosmos/dss/RS/HBI0105H/RSCAT>,
        <https://w3id.org/cdisc/cosmos/dss/RS/HBI0105H/RSDTC>,
        <https://w3id.org/cdisc/cosmos/dss/RS/HBI0105H/RSORRES>,
        <https://w3id.org/cdisc/cosmos/dss/RS/HBI0105H/RSSTRESC>,
        <https://w3id.org/cdisc/cosmos/dss/RS/HBI0105H/RSSTRESN>,
        <https://w3id.org/cdisc/cosmos/dss/RS/HBI0105H/RSTEST>,
        <https://w3id.org/cdisc/cosmos/dss/RS/HBI0105H/RSTESTCD> .

<https://w3id.org/cdisc/cosmos/dss/RS/HBI0106> a cosmos_sdtm:SDTMGroup ;
    dcterms:identifier "HBI0106" ;
    rdf:_1 <https://w3id.org/cdisc/cosmos/dss/RS/HBI0106/RSTESTCD> ;
    rdf:_2 <https://w3id.org/cdisc/cosmos/dss/RS/HBI0106/RSTEST> ;
    rdf:_3 <https://w3id.org/cdisc/cosmos/dss/RS/HBI0106/RSCAT> ;
    rdf:_4 <https://w3id.org/cdisc/cosmos/dss/RS/HBI0106/RSORRES> ;
    rdf:_5 <https://w3id.org/cdisc/cosmos/dss/RS/HBI0106/RSSTRESC> ;
    rdf:_6 <https://w3id.org/cdisc/cosmos/dss/RS/HBI0106/RSSTRESN> ;
    rdf:_7 <https://w3id.org/cdisc/cosmos/dss/RS/HBI0106/RSDTC> ;
    cosmos_sdtm:biomedicalConceptId NCIT:C191056 ;
    cosmos_sdtm:domain "RS" ;
    cosmos_sdtm:packageDate "2026-05-26"^^xsd:date ;
    cosmos_sdtm:packageType <https://www.cdisc.org/cosmos/sdtm_v1.0/PackageTypeEnum#sdtm> ;
    cosmos_sdtm:sdtmigStartVersion "3-2" ;
    cosmos_sdtm:shortName "HBI01-Total Score" ;
    cosmos_sdtm:source "RS.RSTESTCD" ;
    cosmos_sdtm:variables <https://w3id.org/cdisc/cosmos/dss/RS/HBI0106/RSCAT>,
        <https://w3id.org/cdisc/cosmos/dss/RS/HBI0106/RSDTC>,
        <https://w3id.org/cdisc/cosmos/dss/RS/HBI0106/RSORRES>,
        <https://w3id.org/cdisc/cosmos/dss/RS/HBI0106/RSSTRESC>,
        <https://w3id.org/cdisc/cosmos/dss/RS/HBI0106/RSSTRESN>,
        <https://w3id.org/cdisc/cosmos/dss/RS/HBI0106/RSTEST>,
        <https://w3id.org/cdisc/cosmos/dss/RS/HBI0106/RSTESTCD> .

<https://w3id.org/cdisc/cosmos/dss/RS/KFSS101> a cosmos_sdtm:SDTMGroup ;
    dcterms:identifier "KFSS101" ;
    rdf:_1 <https://w3id.org/cdisc/cosmos/dss/RS/KFSS101/RSTESTCD> ;
    rdf:_2 <https://w3id.org/cdisc/cosmos/dss/RS/KFSS101/RSTEST> ;
    rdf:_3 <https://w3id.org/cdisc/cosmos/dss/RS/KFSS101/RSCAT> ;
    rdf:_4 <https://w3id.org/cdisc/cosmos/dss/RS/KFSS101/RSORRES> ;
    rdf:_5 <https://w3id.org/cdisc/cosmos/dss/RS/KFSS101/RSSTRESC> ;
    rdf:_6 <https://w3id.org/cdisc/cosmos/dss/RS/KFSS101/RSSTRESN> ;
    rdf:_7 <https://w3id.org/cdisc/cosmos/dss/RS/KFSS101/RSDTC> ;
    cosmos_sdtm:biomedicalConceptId NCIT:C112609 ;
    cosmos_sdtm:domain "RS" ;
    cosmos_sdtm:packageDate "2026-05-26"^^xsd:date ;
    cosmos_sdtm:packageType <https://www.cdisc.org/cosmos/sdtm_v1.0/PackageTypeEnum#sdtm> ;
    cosmos_sdtm:sdtmigStartVersion "3-2" ;
    cosmos_sdtm:shortName "KFSS1-Pyramidal Functions" ;
    cosmos_sdtm:source "RS.RSTESTCD" ;
    cosmos_sdtm:variables <https://w3id.org/cdisc/cosmos/dss/RS/KFSS101/RSCAT>,
        <https://w3id.org/cdisc/cosmos/dss/RS/KFSS101/RSDTC>,
        <https://w3id.org/cdisc/cosmos/dss/RS/KFSS101/RSORRES>,
        <https://w3id.org/cdisc/cosmos/dss/RS/KFSS101/RSSTRESC>,
        <https://w3id.org/cdisc/cosmos/dss/RS/KFSS101/RSSTRESN>,
        <https://w3id.org/cdisc/cosmos/dss/RS/KFSS101/RSTEST>,
        <https://w3id.org/cdisc/cosmos/dss/RS/KFSS101/RSTESTCD> .

<https://w3id.org/cdisc/cosmos/dss/RS/KFSS102> a cosmos_sdtm:SDTMGroup ;
    dcterms:identifier "KFSS102" ;
    rdf:_1 <https://w3id.org/cdisc/cosmos/dss/RS/KFSS102/RSTESTCD> ;
    rdf:_2 <https://w3id.org/cdisc/cosmos/dss/RS/KFSS102/RSTEST> ;
    rdf:_3 <https://w3id.org/cdisc/cosmos/dss/RS/KFSS102/RSCAT> ;
    rdf:_4 <https://w3id.org/cdisc/cosmos/dss/RS/KFSS102/RSORRES> ;
    rdf:_5 <https://w3id.org/cdisc/cosmos/dss/RS/KFSS102/RSSTRESC> ;
    rdf:_6 <https://w3id.org/cdisc/cosmos/dss/RS/KFSS102/RSSTRESN> ;
    rdf:_7 <https://w3id.org/cdisc/cosmos/dss/RS/KFSS102/RSDTC> ;
    cosmos_sdtm:biomedicalConceptId NCIT:C112610 ;
    cosmos_sdtm:domain "RS" ;
    cosmos_sdtm:packageDate "2026-05-26"^^xsd:date ;
    cosmos_sdtm:packageType <https://www.cdisc.org/cosmos/sdtm_v1.0/PackageTypeEnum#sdtm> ;
    cosmos_sdtm:sdtmigStartVersion "3-2" ;
    cosmos_sdtm:shortName "KFSS1-Cerebellar Functions" ;
    cosmos_sdtm:source "RS.RSTESTCD" ;
    cosmos_sdtm:variables <https://w3id.org/cdisc/cosmos/dss/RS/KFSS102/RSCAT>,
        <https://w3id.org/cdisc/cosmos/dss/RS/KFSS102/RSDTC>,
        <https://w3id.org/cdisc/cosmos/dss/RS/KFSS102/RSORRES>,
        <https://w3id.org/cdisc/cosmos/dss/RS/KFSS102/RSSTRESC>,
        <https://w3id.org/cdisc/cosmos/dss/RS/KFSS102/RSSTRESN>,
        <https://w3id.org/cdisc/cosmos/dss/RS/KFSS102/RSTEST>,
        <https://w3id.org/cdisc/cosmos/dss/RS/KFSS102/RSTESTCD> .

<https://w3id.org/cdisc/cosmos/dss/RS/KFSS102A> a cosmos_sdtm:SDTMGroup ;
    dcterms:identifier "KFSS102A" ;
    rdf:_1 <https://w3id.org/cdisc/cosmos/dss/RS/KFSS102A/RSTESTCD> ;
    rdf:_2 <https://w3id.org/cdisc/cosmos/dss/RS/KFSS102A/RSTEST> ;
    rdf:_3 <https://w3id.org/cdisc/cosmos/dss/RS/KFSS102A/RSCAT> ;
    rdf:_4 <https://w3id.org/cdisc/cosmos/dss/RS/KFSS102A/RSORRES> ;
    rdf:_5 <https://w3id.org/cdisc/cosmos/dss/RS/KFSS102A/RSSTRESC> ;
    rdf:_6 <https://w3id.org/cdisc/cosmos/dss/RS/KFSS102A/RSDTC> ;
    cosmos_sdtm:biomedicalConceptId NCIT:C112611 ;
    cosmos_sdtm:domain "RS" ;
    cosmos_sdtm:packageDate "2026-05-26"^^xsd:date ;
    cosmos_sdtm:packageType <https://www.cdisc.org/cosmos/sdtm_v1.0/PackageTypeEnum#sdtm> ;
    cosmos_sdtm:sdtmigStartVersion "3-2" ;
    cosmos_sdtm:shortName "KFSS1-Weakness Interferes With Testing" ;
    cosmos_sdtm:source "RS.RSTESTCD" ;
    cosmos_sdtm:variables <https://w3id.org/cdisc/cosmos/dss/RS/KFSS102A/RSCAT>,
        <https://w3id.org/cdisc/cosmos/dss/RS/KFSS102A/RSDTC>,
        <https://w3id.org/cdisc/cosmos/dss/RS/KFSS102A/RSORRES>,
        <https://w3id.org/cdisc/cosmos/dss/RS/KFSS102A/RSSTRESC>,
        <https://w3id.org/cdisc/cosmos/dss/RS/KFSS102A/RSTEST>,
        <https://w3id.org/cdisc/cosmos/dss/RS/KFSS102A/RSTESTCD> .

<https://w3id.org/cdisc/cosmos/dss/RS/KFSS103> a cosmos_sdtm:SDTMGroup ;
    dcterms:identifier "KFSS103" ;
    rdf:_1 <https://w3id.org/cdisc/cosmos/dss/RS/KFSS103/RSTESTCD> ;
    rdf:_2 <https://w3id.org/cdisc/cosmos/dss/RS/KFSS103/RSTEST> ;
    rdf:_3 <https://w3id.org/cdisc/cosmos/dss/RS/KFSS103/RSCAT> ;
    rdf:_4 <https://w3id.org/cdisc/cosmos/dss/RS/KFSS103/RSORRES> ;
    rdf:_5 <https://w3id.org/cdisc/cosmos/dss/RS/KFSS103/RSSTRESC> ;
    rdf:_6 <https://w3id.org/cdisc/cosmos/dss/RS/KFSS103/RSSTRESN> ;
    rdf:_7 <https://w3id.org/cdisc/cosmos/dss/RS/KFSS103/RSDTC> ;
    cosmos_sdtm:biomedicalConceptId NCIT:C112612 ;
    cosmos_sdtm:domain "RS" ;
    cosmos_sdtm:packageDate "2026-05-26"^^xsd:date ;
    cosmos_sdtm:packageType <https://www.cdisc.org/cosmos/sdtm_v1.0/PackageTypeEnum#sdtm> ;
    cosmos_sdtm:sdtmigStartVersion "3-2" ;
    cosmos_sdtm:shortName "KFSS1-Brain Stem Functions" ;
    cosmos_sdtm:source "RS.RSTESTCD" ;
    cosmos_sdtm:variables <https://w3id.org/cdisc/cosmos/dss/RS/KFSS103/RSCAT>,
        <https://w3id.org/cdisc/cosmos/dss/RS/KFSS103/RSDTC>,
        <https://w3id.org/cdisc/cosmos/dss/RS/KFSS103/RSORRES>,
        <https://w3id.org/cdisc/cosmos/dss/RS/KFSS103/RSSTRESC>,
        <https://w3id.org/cdisc/cosmos/dss/RS/KFSS103/RSSTRESN>,
        <https://w3id.org/cdisc/cosmos/dss/RS/KFSS103/RSTEST>,
        <https://w3id.org/cdisc/cosmos/dss/RS/KFSS103/RSTESTCD> .

<https://w3id.org/cdisc/cosmos/dss/RS/KFSS104> a cosmos_sdtm:SDTMGroup ;
    dcterms:identifier "KFSS104" ;
    rdf:_1 <https://w3id.org/cdisc/cosmos/dss/RS/KFSS104/RSTESTCD> ;
    rdf:_2 <https://w3id.org/cdisc/cosmos/dss/RS/KFSS104/RSTEST> ;
    rdf:_3 <https://w3id.org/cdisc/cosmos/dss/RS/KFSS104/RSCAT> ;
    rdf:_4 <https://w3id.org/cdisc/cosmos/dss/RS/KFSS104/RSORRES> ;
    rdf:_5 <https://w3id.org/cdisc/cosmos/dss/RS/KFSS104/RSSTRESC> ;
    rdf:_6 <https://w3id.org/cdisc/cosmos/dss/RS/KFSS104/RSSTRESN> ;
    rdf:_7 <https://w3id.org/cdisc/cosmos/dss/RS/KFSS104/RSDTC> ;
    cosmos_sdtm:biomedicalConceptId NCIT:C112613 ;
    cosmos_sdtm:domain "RS" ;
    cosmos_sdtm:packageDate "2026-05-26"^^xsd:date ;
    cosmos_sdtm:packageType <https://www.cdisc.org/cosmos/sdtm_v1.0/PackageTypeEnum#sdtm> ;
    cosmos_sdtm:sdtmigStartVersion "3-2" ;
    cosmos_sdtm:shortName "KFSS1-Sensory Functions" ;
    cosmos_sdtm:source "RS.RSTESTCD" ;
    cosmos_sdtm:variables <https://w3id.org/cdisc/cosmos/dss/RS/KFSS104/RSCAT>,
        <https://w3id.org/cdisc/cosmos/dss/RS/KFSS104/RSDTC>,
        <https://w3id.org/cdisc/cosmos/dss/RS/KFSS104/RSORRES>,
        <https://w3id.org/cdisc/cosmos/dss/RS/KFSS104/RSSTRESC>,
        <https://w3id.org/cdisc/cosmos/dss/RS/KFSS104/RSSTRESN>,
        <https://w3id.org/cdisc/cosmos/dss/RS/KFSS104/RSTEST>,
        <https://w3id.org/cdisc/cosmos/dss/RS/KFSS104/RSTESTCD> .

<https://w3id.org/cdisc/cosmos/dss/RS/KFSS105> a cosmos_sdtm:SDTMGroup ;
    dcterms:identifier "KFSS105" ;
    rdf:_1 <https://w3id.org/cdisc/cosmos/dss/RS/KFSS105/RSTESTCD> ;
    rdf:_2 <https://w3id.org/cdisc/cosmos/dss/RS/KFSS105/RSTEST> ;
    rdf:_3 <https://w3id.org/cdisc/cosmos/dss/RS/KFSS105/RSCAT> ;
    rdf:_4 <https://w3id.org/cdisc/cosmos/dss/RS/KFSS105/RSORRES> ;
    rdf:_5 <https://w3id.org/cdisc/cosmos/dss/RS/KFSS105/RSSTRESC> ;
    rdf:_6 <https://w3id.org/cdisc/cosmos/dss/RS/KFSS105/RSSTRESN> ;
    rdf:_7 <https://w3id.org/cdisc/cosmos/dss/RS/KFSS105/RSDTC> ;
    cosmos_sdtm:biomedicalConceptId NCIT:C112614 ;
    cosmos_sdtm:domain "RS" ;
    cosmos_sdtm:packageDate "2026-05-26"^^xsd:date ;
    cosmos_sdtm:packageType <https://www.cdisc.org/cosmos/sdtm_v1.0/PackageTypeEnum#sdtm> ;
    cosmos_sdtm:sdtmigStartVersion "3-2" ;
    cosmos_sdtm:shortName "KFSS1-Bowel and Bladder Functions" ;
    cosmos_sdtm:source "RS.RSTESTCD" ;
    cosmos_sdtm:variables <https://w3id.org/cdisc/cosmos/dss/RS/KFSS105/RSCAT>,
        <https://w3id.org/cdisc/cosmos/dss/RS/KFSS105/RSDTC>,
        <https://w3id.org/cdisc/cosmos/dss/RS/KFSS105/RSORRES>,
        <https://w3id.org/cdisc/cosmos/dss/RS/KFSS105/RSSTRESC>,
        <https://w3id.org/cdisc/cosmos/dss/RS/KFSS105/RSSTRESN>,
        <https://w3id.org/cdisc/cosmos/dss/RS/KFSS105/RSTEST>,
        <https://w3id.org/cdisc/cosmos/dss/RS/KFSS105/RSTESTCD> .

<https://w3id.org/cdisc/cosmos/dss/RS/KFSS106> a cosmos_sdtm:SDTMGroup ;
    dcterms:identifier "KFSS106" ;
    rdf:_1 <https://w3id.org/cdisc/cosmos/dss/RS/KFSS106/RSTESTCD> ;
    rdf:_2 <https://w3id.org/cdisc/cosmos/dss/RS/KFSS106/RSTEST> ;
    rdf:_3 <https://w3id.org/cdisc/cosmos/dss/RS/KFSS106/RSCAT> ;
    rdf:_4 <https://w3id.org/cdisc/cosmos/dss/RS/KFSS106/RSORRES> ;
    rdf:_5 <https://w3id.org/cdisc/cosmos/dss/RS/KFSS106/RSSTRESC> ;
    rdf:_6 <https://w3id.org/cdisc/cosmos/dss/RS/KFSS106/RSSTRESN> ;
    rdf:_7 <https://w3id.org/cdisc/cosmos/dss/RS/KFSS106/RSDTC> ;
    cosmos_sdtm:biomedicalConceptId NCIT:C112615 ;
    cosmos_sdtm:domain "RS" ;
    cosmos_sdtm:packageDate "2026-05-26"^^xsd:date ;
    cosmos_sdtm:packageType <https://www.cdisc.org/cosmos/sdtm_v1.0/PackageTypeEnum#sdtm> ;
    cosmos_sdtm:sdtmigStartVersion "3-2" ;
    cosmos_sdtm:shortName "KFSS1-Visual or Optic Functions" ;
    cosmos_sdtm:source "RS.RSTESTCD" ;
    cosmos_sdtm:variables <https://w3id.org/cdisc/cosmos/dss/RS/KFSS106/RSCAT>,
        <https://w3id.org/cdisc/cosmos/dss/RS/KFSS106/RSDTC>,
        <https://w3id.org/cdisc/cosmos/dss/RS/KFSS106/RSORRES>,
        <https://w3id.org/cdisc/cosmos/dss/RS/KFSS106/RSSTRESC>,
        <https://w3id.org/cdisc/cosmos/dss/RS/KFSS106/RSSTRESN>,
        <https://w3id.org/cdisc/cosmos/dss/RS/KFSS106/RSTEST>,
        <https://w3id.org/cdisc/cosmos/dss/RS/KFSS106/RSTESTCD> .

<https://w3id.org/cdisc/cosmos/dss/RS/KFSS106A> a cosmos_sdtm:SDTMGroup ;
    dcterms:identifier "KFSS106A" ;
    rdf:_1 <https://w3id.org/cdisc/cosmos/dss/RS/KFSS106A/RSTESTCD> ;
    rdf:_2 <https://w3id.org/cdisc/cosmos/dss/RS/KFSS106A/RSTEST> ;
    rdf:_3 <https://w3id.org/cdisc/cosmos/dss/RS/KFSS106A/RSCAT> ;
    rdf:_4 <https://w3id.org/cdisc/cosmos/dss/RS/KFSS106A/RSORRES> ;
    rdf:_5 <https://w3id.org/cdisc/cosmos/dss/RS/KFSS106A/RSSTRESC> ;
    rdf:_6 <https://w3id.org/cdisc/cosmos/dss/RS/KFSS106A/RSDTC> ;
    cosmos_sdtm:biomedicalConceptId NCIT:C112616 ;
    cosmos_sdtm:domain "RS" ;
    cosmos_sdtm:packageDate "2026-05-26"^^xsd:date ;
    cosmos_sdtm:packageType <https://www.cdisc.org/cosmos/sdtm_v1.0/PackageTypeEnum#sdtm> ;
    cosmos_sdtm:sdtmigStartVersion "3-2" ;
    cosmos_sdtm:shortName "KFSS1-Presence of Temporal Pallor" ;
    cosmos_sdtm:source "RS.RSTESTCD" ;
    cosmos_sdtm:variables <https://w3id.org/cdisc/cosmos/dss/RS/KFSS106A/RSCAT>,
        <https://w3id.org/cdisc/cosmos/dss/RS/KFSS106A/RSDTC>,
        <https://w3id.org/cdisc/cosmos/dss/RS/KFSS106A/RSORRES>,
        <https://w3id.org/cdisc/cosmos/dss/RS/KFSS106A/RSSTRESC>,
        <https://w3id.org/cdisc/cosmos/dss/RS/KFSS106A/RSTEST>,
        <https://w3id.org/cdisc/cosmos/dss/RS/KFSS106A/RSTESTCD> .

<https://w3id.org/cdisc/cosmos/dss/RS/KFSS107> a cosmos_sdtm:SDTMGroup ;
    dcterms:identifier "KFSS107" ;
    rdf:_1 <https://w3id.org/cdisc/cosmos/dss/RS/KFSS107/RSTESTCD> ;
    rdf:_2 <https://w3id.org/cdisc/cosmos/dss/RS/KFSS107/RSTEST> ;
    rdf:_3 <https://w3id.org/cdisc/cosmos/dss/RS/KFSS107/RSCAT> ;
    rdf:_4 <https://w3id.org/cdisc/cosmos/dss/RS/KFSS107/RSORRES> ;
    rdf:_5 <https://w3id.org/cdisc/cosmos/dss/RS/KFSS107/RSSTRESC> ;
    rdf:_6 <https://w3id.org/cdisc/cosmos/dss/RS/KFSS107/RSSTRESN> ;
    rdf:_7 <https://w3id.org/cdisc/cosmos/dss/RS/KFSS107/RSDTC> ;
    cosmos_sdtm:biomedicalConceptId NCIT:C112617 ;
    cosmos_sdtm:domain "RS" ;
    cosmos_sdtm:packageDate "2026-05-26"^^xsd:date ;
    cosmos_sdtm:packageType <https://www.cdisc.org/cosmos/sdtm_v1.0/PackageTypeEnum#sdtm> ;
    cosmos_sdtm:sdtmigStartVersion "3-2" ;
    cosmos_sdtm:shortName "KFSS1-Cerebral or Mental Functions" ;
    cosmos_sdtm:source "RS.RSTESTCD" ;
    cosmos_sdtm:variables <https://w3id.org/cdisc/cosmos/dss/RS/KFSS107/RSCAT>,
        <https://w3id.org/cdisc/cosmos/dss/RS/KFSS107/RSDTC>,
        <https://w3id.org/cdisc/cosmos/dss/RS/KFSS107/RSORRES>,
        <https://w3id.org/cdisc/cosmos/dss/RS/KFSS107/RSSTRESC>,
        <https://w3id.org/cdisc/cosmos/dss/RS/KFSS107/RSSTRESN>,
        <https://w3id.org/cdisc/cosmos/dss/RS/KFSS107/RSTEST>,
        <https://w3id.org/cdisc/cosmos/dss/RS/KFSS107/RSTESTCD> .

<https://w3id.org/cdisc/cosmos/dss/RS/KFSS108> a cosmos_sdtm:SDTMGroup ;
    dcterms:identifier "KFSS108" ;
    rdf:_1 <https://w3id.org/cdisc/cosmos/dss/RS/KFSS108/RSTESTCD> ;
    rdf:_2 <https://w3id.org/cdisc/cosmos/dss/RS/KFSS108/RSTEST> ;
    rdf:_3 <https://w3id.org/cdisc/cosmos/dss/RS/KFSS108/RSCAT> ;
    rdf:_4 <https://w3id.org/cdisc/cosmos/dss/RS/KFSS108/RSORRES> ;
    rdf:_5 <https://w3id.org/cdisc/cosmos/dss/RS/KFSS108/RSSTRESC> ;
    rdf:_6 <https://w3id.org/cdisc/cosmos/dss/RS/KFSS108/RSSTRESN> ;
    rdf:_7 <https://w3id.org/cdisc/cosmos/dss/RS/KFSS108/RSDTC> ;
    cosmos_sdtm:biomedicalConceptId NCIT:C113884 ;
    cosmos_sdtm:domain "RS" ;
    cosmos_sdtm:packageDate "2026-05-26"^^xsd:date ;
    cosmos_sdtm:packageType <https://www.cdisc.org/cosmos/sdtm_v1.0/PackageTypeEnum#sdtm> ;
    cosmos_sdtm:sdtmigStartVersion "3-2" ;
    cosmos_sdtm:shortName "KFSS1-Other Functions" ;
    cosmos_sdtm:source "RS.RSTESTCD" ;
    cosmos_sdtm:variables <https://w3id.org/cdisc/cosmos/dss/RS/KFSS108/RSCAT>,
        <https://w3id.org/cdisc/cosmos/dss/RS/KFSS108/RSDTC>,
        <https://w3id.org/cdisc/cosmos/dss/RS/KFSS108/RSORRES>,
        <https://w3id.org/cdisc/cosmos/dss/RS/KFSS108/RSSTRESC>,
        <https://w3id.org/cdisc/cosmos/dss/RS/KFSS108/RSSTRESN>,
        <https://w3id.org/cdisc/cosmos/dss/RS/KFSS108/RSTEST>,
        <https://w3id.org/cdisc/cosmos/dss/RS/KFSS108/RSTESTCD> .

<https://w3id.org/cdisc/cosmos/dss/RS/KFSS108A> a cosmos_sdtm:SDTMGroup ;
    dcterms:identifier "KFSS108A" ;
    rdf:_1 <https://w3id.org/cdisc/cosmos/dss/RS/KFSS108A/RSTESTCD> ;
    rdf:_2 <https://w3id.org/cdisc/cosmos/dss/RS/KFSS108A/RSTEST> ;
    rdf:_3 <https://w3id.org/cdisc/cosmos/dss/RS/KFSS108A/RSCAT> ;
    rdf:_4 <https://w3id.org/cdisc/cosmos/dss/RS/KFSS108A/RSORRES> ;
    rdf:_5 <https://w3id.org/cdisc/cosmos/dss/RS/KFSS108A/RSSTRESC> ;
    rdf:_6 <https://w3id.org/cdisc/cosmos/dss/RS/KFSS108A/RSDTC> ;
    cosmos_sdtm:biomedicalConceptId NCIT:C113885 ;
    cosmos_sdtm:domain "RS" ;
    cosmos_sdtm:packageDate "2026-05-26"^^xsd:date ;
    cosmos_sdtm:packageType <https://www.cdisc.org/cosmos/sdtm_v1.0/PackageTypeEnum#sdtm> ;
    cosmos_sdtm:sdtmigStartVersion "3-2" ;
    cosmos_sdtm:shortName "KFSS1-Other Functions Specify" ;
    cosmos_sdtm:source "RS.RSTESTCD" ;
    cosmos_sdtm:variables <https://w3id.org/cdisc/cosmos/dss/RS/KFSS108A/RSCAT>,
        <https://w3id.org/cdisc/cosmos/dss/RS/KFSS108A/RSDTC>,
        <https://w3id.org/cdisc/cosmos/dss/RS/KFSS108A/RSORRES>,
        <https://w3id.org/cdisc/cosmos/dss/RS/KFSS108A/RSSTRESC>,
        <https://w3id.org/cdisc/cosmos/dss/RS/KFSS108A/RSTEST>,
        <https://w3id.org/cdisc/cosmos/dss/RS/KFSS108A/RSTESTCD> .

<https://w3id.org/cdisc/cosmos/dss/RS/KPSS0101> a cosmos_sdtm:SDTMGroup ;
    dcterms:identifier "KPSS0101" ;
    rdf:_1 <https://w3id.org/cdisc/cosmos/dss/RS/KPSS0101/RSTESTCD> ;
    rdf:_2 <https://w3id.org/cdisc/cosmos/dss/RS/KPSS0101/RSTEST> ;
    rdf:_3 <https://w3id.org/cdisc/cosmos/dss/RS/KPSS0101/RSCAT> ;
    rdf:_4 <https://w3id.org/cdisc/cosmos/dss/RS/KPSS0101/RSORRES> ;
    rdf:_5 <https://w3id.org/cdisc/cosmos/dss/RS/KPSS0101/RSSTRESC> ;
    rdf:_6 <https://w3id.org/cdisc/cosmos/dss/RS/KPSS0101/RSSTRESN> ;
    rdf:_7 <https://w3id.org/cdisc/cosmos/dss/RS/KPSS0101/RSDTC> ;
    cosmos_sdtm:biomedicalConceptId NCIT:C100417 ;
    cosmos_sdtm:domain "RS" ;
    cosmos_sdtm:packageDate "2026-05-26"^^xsd:date ;
    cosmos_sdtm:packageType <https://www.cdisc.org/cosmos/sdtm_v1.0/PackageTypeEnum#sdtm> ;
    cosmos_sdtm:sdtmigStartVersion "3-2" ;
    cosmos_sdtm:shortName "KPSS01-Karnofsky Performance Status" ;
    cosmos_sdtm:source "RS.RSTESTCD" ;
    cosmos_sdtm:variables <https://w3id.org/cdisc/cosmos/dss/RS/KPSS0101/RSCAT>,
        <https://w3id.org/cdisc/cosmos/dss/RS/KPSS0101/RSDTC>,
        <https://w3id.org/cdisc/cosmos/dss/RS/KPSS0101/RSORRES>,
        <https://w3id.org/cdisc/cosmos/dss/RS/KPSS0101/RSSTRESC>,
        <https://w3id.org/cdisc/cosmos/dss/RS/KPSS0101/RSSTRESN>,
        <https://w3id.org/cdisc/cosmos/dss/RS/KPSS0101/RSTEST>,
        <https://w3id.org/cdisc/cosmos/dss/RS/KPSS0101/RSTESTCD> .

<https://w3id.org/cdisc/cosmos/dss/RS/METBRESP_LUGANO> a cosmos_sdtm:SDTMGroup ;
    dcterms:identifier "METBRESP_LUGANO" ;
    rdf:_1 <https://w3id.org/cdisc/cosmos/dss/RS/METBRESP_LUGANO/RSTESTCD> ;
    rdf:_2 <https://w3id.org/cdisc/cosmos/dss/RS/METBRESP_LUGANO/RSTEST> ;
    rdf:_3 <https://w3id.org/cdisc/cosmos/dss/RS/METBRESP_LUGANO/RSCAT> ;
    rdf:_4 <https://w3id.org/cdisc/cosmos/dss/RS/METBRESP_LUGANO/RSORRES> ;
    rdf:_5 <https://w3id.org/cdisc/cosmos/dss/RS/METBRESP_LUGANO/RSSTRESC> ;
    rdf:_6 <https://w3id.org/cdisc/cosmos/dss/RS/METBRESP_LUGANO/RSEVAL> ;
    rdf:_7 <https://w3id.org/cdisc/cosmos/dss/RS/METBRESP_LUGANO/RSEVALID> ;
    rdf:_8 <https://w3id.org/cdisc/cosmos/dss/RS/METBRESP_LUGANO/RSDTC> ;
    cosmos_sdtm:biomedicalConceptId NCIT:C123623 ;
    cosmos_sdtm:domain "RS" ;
    cosmos_sdtm:packageDate "2026-05-26"^^xsd:date ;
    cosmos_sdtm:packageType <https://www.cdisc.org/cosmos/sdtm_v1.0/PackageTypeEnum#sdtm> ;
    cosmos_sdtm:sdtmigStartVersion "3-2" ;
    cosmos_sdtm:shortName "Metabolic Response (Lugano Classfication)" ;
    cosmos_sdtm:source "RS.RSTESTCD" ;
    cosmos_sdtm:variables <https://w3id.org/cdisc/cosmos/dss/RS/METBRESP_LUGANO/RSCAT>,
        <https://w3id.org/cdisc/cosmos/dss/RS/METBRESP_LUGANO/RSDTC>,
        <https://w3id.org/cdisc/cosmos/dss/RS/METBRESP_LUGANO/RSEVAL>,
        <https://w3id.org/cdisc/cosmos/dss/RS/METBRESP_LUGANO/RSEVALID>,
        <https://w3id.org/cdisc/cosmos/dss/RS/METBRESP_LUGANO/RSORRES>,
        <https://w3id.org/cdisc/cosmos/dss/RS/METBRESP_LUGANO/RSSTRESC>,
        <https://w3id.org/cdisc/cosmos/dss/RS/METBRESP_LUGANO/RSTEST>,
        <https://w3id.org/cdisc/cosmos/dss/RS/METBRESP_LUGANO/RSTESTCD> .

<https://w3id.org/cdisc/cosmos/dss/RS/MVAI101> a cosmos_sdtm:SDTMGroup ;
    dcterms:identifier "MVAI101" ;
    rdf:_1 <https://w3id.org/cdisc/cosmos/dss/RS/MVAI101/RSTESTCD> ;
    rdf:_2 <https://w3id.org/cdisc/cosmos/dss/RS/MVAI101/RSTEST> ;
    rdf:_3 <https://w3id.org/cdisc/cosmos/dss/RS/MVAI101/RSCAT> ;
    rdf:_4 <https://w3id.org/cdisc/cosmos/dss/RS/MVAI101/RSORRES> ;
    rdf:_5 <https://w3id.org/cdisc/cosmos/dss/RS/MVAI101/RSSTRESC> ;
    rdf:_6 <https://w3id.org/cdisc/cosmos/dss/RS/MVAI101/RSSTRESN> ;
    rdf:_7 <https://w3id.org/cdisc/cosmos/dss/RS/MVAI101/RSDTC> ;
    cosmos_sdtm:biomedicalConceptId NCIT:C191060 ;
    cosmos_sdtm:domain "RS" ;
    cosmos_sdtm:packageDate "2026-05-26"^^xsd:date ;
    cosmos_sdtm:packageType <https://www.cdisc.org/cosmos/sdtm_v1.0/PackageTypeEnum#sdtm> ;
    cosmos_sdtm:sdtmigStartVersion "3-2" ;
    cosmos_sdtm:shortName "MVAI1-Extension" ;
    cosmos_sdtm:source "RS.RSTESTCD" ;
    cosmos_sdtm:variables <https://w3id.org/cdisc/cosmos/dss/RS/MVAI101/RSCAT>,
        <https://w3id.org/cdisc/cosmos/dss/RS/MVAI101/RSDTC>,
        <https://w3id.org/cdisc/cosmos/dss/RS/MVAI101/RSORRES>,
        <https://w3id.org/cdisc/cosmos/dss/RS/MVAI101/RSSTRESC>,
        <https://w3id.org/cdisc/cosmos/dss/RS/MVAI101/RSSTRESN>,
        <https://w3id.org/cdisc/cosmos/dss/RS/MVAI101/RSTEST>,
        <https://w3id.org/cdisc/cosmos/dss/RS/MVAI101/RSTESTCD> .

<https://w3id.org/cdisc/cosmos/dss/RS/MVAI102> a cosmos_sdtm:SDTMGroup ;
    dcterms:identifier "MVAI102" ;
    rdf:_1 <https://w3id.org/cdisc/cosmos/dss/RS/MVAI102/RSTESTCD> ;
    rdf:_2 <https://w3id.org/cdisc/cosmos/dss/RS/MVAI102/RSTEST> ;
    rdf:_3 <https://w3id.org/cdisc/cosmos/dss/RS/MVAI102/RSCAT> ;
    rdf:_4 <https://w3id.org/cdisc/cosmos/dss/RS/MVAI102/RSORRES> ;
    rdf:_5 <https://w3id.org/cdisc/cosmos/dss/RS/MVAI102/RSSTRESC> ;
    rdf:_6 <https://w3id.org/cdisc/cosmos/dss/RS/MVAI102/RSSTRESN> ;
    rdf:_7 <https://w3id.org/cdisc/cosmos/dss/RS/MVAI102/RSDTC> ;
    cosmos_sdtm:biomedicalConceptId NCIT:C191061 ;
    cosmos_sdtm:domain "RS" ;
    cosmos_sdtm:packageDate "2026-05-26"^^xsd:date ;
    cosmos_sdtm:packageType <https://www.cdisc.org/cosmos/sdtm_v1.0/PackageTypeEnum#sdtm> ;
    cosmos_sdtm:sdtmigStartVersion "3-2" ;
    cosmos_sdtm:shortName "MVAI1-Hyperintensity T2-weighted Images" ;
    cosmos_sdtm:source "RS.RSTESTCD" ;
    cosmos_sdtm:variables <https://w3id.org/cdisc/cosmos/dss/RS/MVAI102/RSCAT>,
        <https://w3id.org/cdisc/cosmos/dss/RS/MVAI102/RSDTC>,
        <https://w3id.org/cdisc/cosmos/dss/RS/MVAI102/RSORRES>,
        <https://w3id.org/cdisc/cosmos/dss/RS/MVAI102/RSSTRESC>,
        <https://w3id.org/cdisc/cosmos/dss/RS/MVAI102/RSSTRESN>,
        <https://w3id.org/cdisc/cosmos/dss/RS/MVAI102/RSTEST>,
        <https://w3id.org/cdisc/cosmos/dss/RS/MVAI102/RSTESTCD> .

<https://w3id.org/cdisc/cosmos/dss/RS/MVAI103> a cosmos_sdtm:SDTMGroup ;
    dcterms:identifier "MVAI103" ;
    rdf:_1 <https://w3id.org/cdisc/cosmos/dss/RS/MVAI103/RSTESTCD> ;
    rdf:_2 <https://w3id.org/cdisc/cosmos/dss/RS/MVAI103/RSTEST> ;
    rdf:_3 <https://w3id.org/cdisc/cosmos/dss/RS/MVAI103/RSCAT> ;
    rdf:_4 <https://w3id.org/cdisc/cosmos/dss/RS/MVAI103/RSORRES> ;
    rdf:_5 <https://w3id.org/cdisc/cosmos/dss/RS/MVAI103/RSSTRESC> ;
    rdf:_6 <https://w3id.org/cdisc/cosmos/dss/RS/MVAI103/RSSTRESN> ;
    rdf:_7 <https://w3id.org/cdisc/cosmos/dss/RS/MVAI103/RSDTC> ;
    cosmos_sdtm:biomedicalConceptId NCIT:C191062 ;
    cosmos_sdtm:domain "RS" ;
    cosmos_sdtm:packageDate "2026-05-26"^^xsd:date ;
    cosmos_sdtm:packageType <https://www.cdisc.org/cosmos/sdtm_v1.0/PackageTypeEnum#sdtm> ;
    cosmos_sdtm:sdtmigStartVersion "3-2" ;
    cosmos_sdtm:shortName "MVAI1-Rectal Wall Involvement" ;
    cosmos_sdtm:source "RS.RSTESTCD" ;
    cosmos_sdtm:variables <https://w3id.org/cdisc/cosmos/dss/RS/MVAI103/RSCAT>,
        <https://w3id.org/cdisc/cosmos/dss/RS/MVAI103/RSDTC>,
        <https://w3id.org/cdisc/cosmos/dss/RS/MVAI103/RSORRES>,
        <https://w3id.org/cdisc/cosmos/dss/RS/MVAI103/RSSTRESC>,
        <https://w3id.org/cdisc/cosmos/dss/RS/MVAI103/RSSTRESN>,
        <https://w3id.org/cdisc/cosmos/dss/RS/MVAI103/RSTEST>,
        <https://w3id.org/cdisc/cosmos/dss/RS/MVAI103/RSTESTCD> .

<https://w3id.org/cdisc/cosmos/dss/RS/MVAI104> a cosmos_sdtm:SDTMGroup ;
    dcterms:identifier "MVAI104" ;
    rdf:_1 <https://w3id.org/cdisc/cosmos/dss/RS/MVAI104/RSTESTCD> ;
    rdf:_2 <https://w3id.org/cdisc/cosmos/dss/RS/MVAI104/RSTEST> ;
    rdf:_3 <https://w3id.org/cdisc/cosmos/dss/RS/MVAI104/RSCAT> ;
    rdf:_4 <https://w3id.org/cdisc/cosmos/dss/RS/MVAI104/RSORRES> ;
    rdf:_5 <https://w3id.org/cdisc/cosmos/dss/RS/MVAI104/RSSTRESC> ;
    rdf:_6 <https://w3id.org/cdisc/cosmos/dss/RS/MVAI104/RSSTRESN> ;
    rdf:_7 <https://w3id.org/cdisc/cosmos/dss/RS/MVAI104/RSDTC> ;
    cosmos_sdtm:biomedicalConceptId NCIT:C191063 ;
    cosmos_sdtm:domain "RS" ;
    cosmos_sdtm:packageDate "2026-05-26"^^xsd:date ;
    cosmos_sdtm:packageType <https://www.cdisc.org/cosmos/sdtm_v1.0/PackageTypeEnum#sdtm> ;
    cosmos_sdtm:sdtmigStartVersion "3-2" ;
    cosmos_sdtm:shortName "MVAI1-Inflammatory Mass" ;
    cosmos_sdtm:source "RS.RSTESTCD" ;
    cosmos_sdtm:variables <https://w3id.org/cdisc/cosmos/dss/RS/MVAI104/RSCAT>,
        <https://w3id.org/cdisc/cosmos/dss/RS/MVAI104/RSDTC>,
        <https://w3id.org/cdisc/cosmos/dss/RS/MVAI104/RSORRES>,
        <https://w3id.org/cdisc/cosmos/dss/RS/MVAI104/RSSTRESC>,
        <https://w3id.org/cdisc/cosmos/dss/RS/MVAI104/RSSTRESN>,
        <https://w3id.org/cdisc/cosmos/dss/RS/MVAI104/RSTEST>,
        <https://w3id.org/cdisc/cosmos/dss/RS/MVAI104/RSTESTCD> .

<https://w3id.org/cdisc/cosmos/dss/RS/MVAI105> a cosmos_sdtm:SDTMGroup ;
    dcterms:identifier "MVAI105" ;
    rdf:_1 <https://w3id.org/cdisc/cosmos/dss/RS/MVAI105/RSTESTCD> ;
    rdf:_2 <https://w3id.org/cdisc/cosmos/dss/RS/MVAI105/RSTEST> ;
    rdf:_3 <https://w3id.org/cdisc/cosmos/dss/RS/MVAI105/RSCAT> ;
    rdf:_4 <https://w3id.org/cdisc/cosmos/dss/RS/MVAI105/RSORRES> ;
    rdf:_5 <https://w3id.org/cdisc/cosmos/dss/RS/MVAI105/RSSTRESC> ;
    rdf:_6 <https://w3id.org/cdisc/cosmos/dss/RS/MVAI105/RSSTRESN> ;
    rdf:_7 <https://w3id.org/cdisc/cosmos/dss/RS/MVAI105/RSDTC> ;
    cosmos_sdtm:biomedicalConceptId NCIT:C191064 ;
    cosmos_sdtm:domain "RS" ;
    cosmos_sdtm:packageDate "2026-05-26"^^xsd:date ;
    cosmos_sdtm:packageType <https://www.cdisc.org/cosmos/sdtm_v1.0/PackageTypeEnum#sdtm> ;
    cosmos_sdtm:sdtmigStartVersion "3-2" ;
    cosmos_sdtm:shortName "MVAI1-Dominant Feature" ;
    cosmos_sdtm:source "RS.RSTESTCD" ;
    cosmos_sdtm:variables <https://w3id.org/cdisc/cosmos/dss/RS/MVAI105/RSCAT>,
        <https://w3id.org/cdisc/cosmos/dss/RS/MVAI105/RSDTC>,
        <https://w3id.org/cdisc/cosmos/dss/RS/MVAI105/RSORRES>,
        <https://w3id.org/cdisc/cosmos/dss/RS/MVAI105/RSSTRESC>,
        <https://w3id.org/cdisc/cosmos/dss/RS/MVAI105/RSSTRESN>,
        <https://w3id.org/cdisc/cosmos/dss/RS/MVAI105/RSTEST>,
        <https://w3id.org/cdisc/cosmos/dss/RS/MVAI105/RSTESTCD> .

<https://w3id.org/cdisc/cosmos/dss/RS/MVAI106> a cosmos_sdtm:SDTMGroup ;
    dcterms:identifier "MVAI106" ;
    rdf:_1 <https://w3id.org/cdisc/cosmos/dss/RS/MVAI106/RSTESTCD> ;
    rdf:_2 <https://w3id.org/cdisc/cosmos/dss/RS/MVAI106/RSTEST> ;
    rdf:_3 <https://w3id.org/cdisc/cosmos/dss/RS/MVAI106/RSCAT> ;
    rdf:_4 <https://w3id.org/cdisc/cosmos/dss/RS/MVAI106/RSORRES> ;
    rdf:_5 <https://w3id.org/cdisc/cosmos/dss/RS/MVAI106/RSSTRESC> ;
    rdf:_6 <https://w3id.org/cdisc/cosmos/dss/RS/MVAI106/RSSTRESN> ;
    rdf:_7 <https://w3id.org/cdisc/cosmos/dss/RS/MVAI106/RSDTC> ;
    cosmos_sdtm:biomedicalConceptId NCIT:C191065 ;
    cosmos_sdtm:domain "RS" ;
    cosmos_sdtm:packageDate "2026-05-26"^^xsd:date ;
    cosmos_sdtm:packageType <https://www.cdisc.org/cosmos/sdtm_v1.0/PackageTypeEnum#sdtm> ;
    cosmos_sdtm:sdtmigStartVersion "3-2" ;
    cosmos_sdtm:shortName "MVAI1-Total Score" ;
    cosmos_sdtm:source "RS.RSTESTCD" ;
    cosmos_sdtm:variables <https://w3id.org/cdisc/cosmos/dss/RS/MVAI106/RSCAT>,
        <https://w3id.org/cdisc/cosmos/dss/RS/MVAI106/RSDTC>,
        <https://w3id.org/cdisc/cosmos/dss/RS/MVAI106/RSORRES>,
        <https://w3id.org/cdisc/cosmos/dss/RS/MVAI106/RSSTRESC>,
        <https://w3id.org/cdisc/cosmos/dss/RS/MVAI106/RSSTRESN>,
        <https://w3id.org/cdisc/cosmos/dss/RS/MVAI106/RSTEST>,
        <https://w3id.org/cdisc/cosmos/dss/RS/MVAI106/RSTESTCD> .

<https://w3id.org/cdisc/cosmos/dss/RS/NEWLIND_LUGANO> a cosmos_sdtm:SDTMGroup ;
    dcterms:identifier "NEWLIND_LUGANO" ;
    rdf:_1 <https://w3id.org/cdisc/cosmos/dss/RS/NEWLIND_LUGANO/RSTESTCD> ;
    rdf:_2 <https://w3id.org/cdisc/cosmos/dss/RS/NEWLIND_LUGANO/RSTEST> ;
    rdf:_3 <https://w3id.org/cdisc/cosmos/dss/RS/NEWLIND_LUGANO/RSCAT> ;
    rdf:_4 <https://w3id.org/cdisc/cosmos/dss/RS/NEWLIND_LUGANO/RSORRES> ;
    rdf:_5 <https://w3id.org/cdisc/cosmos/dss/RS/NEWLIND_LUGANO/RSSTRESC> ;
    rdf:_6 <https://w3id.org/cdisc/cosmos/dss/RS/NEWLIND_LUGANO/RSEVAL> ;
    rdf:_7 <https://w3id.org/cdisc/cosmos/dss/RS/NEWLIND_LUGANO/RSEVALID> ;
    rdf:_8 <https://w3id.org/cdisc/cosmos/dss/RS/NEWLIND_LUGANO/RSDTC> ;
    cosmos_sdtm:biomedicalConceptId NCIT:C142362 ;
    cosmos_sdtm:domain "RS" ;
    cosmos_sdtm:packageDate "2026-05-26"^^xsd:date ;
    cosmos_sdtm:packageType <https://www.cdisc.org/cosmos/sdtm_v1.0/PackageTypeEnum#sdtm> ;
    cosmos_sdtm:sdtmigStartVersion "3-2" ;
    cosmos_sdtm:shortName "New Lesion Indicator (Lugano Classfication)" ;
    cosmos_sdtm:source "RS.RSTESTCD" ;
    cosmos_sdtm:variables <https://w3id.org/cdisc/cosmos/dss/RS/NEWLIND_LUGANO/RSCAT>,
        <https://w3id.org/cdisc/cosmos/dss/RS/NEWLIND_LUGANO/RSDTC>,
        <https://w3id.org/cdisc/cosmos/dss/RS/NEWLIND_LUGANO/RSEVAL>,
        <https://w3id.org/cdisc/cosmos/dss/RS/NEWLIND_LUGANO/RSEVALID>,
        <https://w3id.org/cdisc/cosmos/dss/RS/NEWLIND_LUGANO/RSORRES>,
        <https://w3id.org/cdisc/cosmos/dss/RS/NEWLIND_LUGANO/RSSTRESC>,
        <https://w3id.org/cdisc/cosmos/dss/RS/NEWLIND_LUGANO/RSTEST>,
        <https://w3id.org/cdisc/cosmos/dss/RS/NEWLIND_LUGANO/RSTESTCD> .

<https://w3id.org/cdisc/cosmos/dss/RS/NEWLIND_RANO> a cosmos_sdtm:SDTMGroup ;
    dcterms:identifier "NEWLIND_RANO" ;
    rdf:_1 <https://w3id.org/cdisc/cosmos/dss/RS/NEWLIND_RANO/RSTESTCD> ;
    rdf:_2 <https://w3id.org/cdisc/cosmos/dss/RS/NEWLIND_RANO/RSTEST> ;
    rdf:_3 <https://w3id.org/cdisc/cosmos/dss/RS/NEWLIND_RANO/RSCAT> ;
    rdf:_4 <https://w3id.org/cdisc/cosmos/dss/RS/NEWLIND_RANO/RSORRES> ;
    rdf:_5 <https://w3id.org/cdisc/cosmos/dss/RS/NEWLIND_RANO/RSSTRESC> ;
    rdf:_6 <https://w3id.org/cdisc/cosmos/dss/RS/NEWLIND_RANO/RSEVAL> ;
    rdf:_7 <https://w3id.org/cdisc/cosmos/dss/RS/NEWLIND_RANO/RSEVALID> ;
    rdf:_8 <https://w3id.org/cdisc/cosmos/dss/RS/NEWLIND_RANO/RSDTC> ;
    cosmos_sdtm:biomedicalConceptId NCIT:C142362 ;
    cosmos_sdtm:domain "RS" ;
    cosmos_sdtm:packageDate "2026-05-26"^^xsd:date ;
    cosmos_sdtm:packageType <https://www.cdisc.org/cosmos/sdtm_v1.0/PackageTypeEnum#sdtm> ;
    cosmos_sdtm:sdtmigStartVersion "3-2" ;
    cosmos_sdtm:shortName "New Lesion Indicator (Rano)" ;
    cosmos_sdtm:source "RS.RSTESTCD" ;
    cosmos_sdtm:variables <https://w3id.org/cdisc/cosmos/dss/RS/NEWLIND_RANO/RSCAT>,
        <https://w3id.org/cdisc/cosmos/dss/RS/NEWLIND_RANO/RSDTC>,
        <https://w3id.org/cdisc/cosmos/dss/RS/NEWLIND_RANO/RSEVAL>,
        <https://w3id.org/cdisc/cosmos/dss/RS/NEWLIND_RANO/RSEVALID>,
        <https://w3id.org/cdisc/cosmos/dss/RS/NEWLIND_RANO/RSORRES>,
        <https://w3id.org/cdisc/cosmos/dss/RS/NEWLIND_RANO/RSSTRESC>,
        <https://w3id.org/cdisc/cosmos/dss/RS/NEWLIND_RANO/RSTEST>,
        <https://w3id.org/cdisc/cosmos/dss/RS/NEWLIND_RANO/RSTESTCD> .

<https://w3id.org/cdisc/cosmos/dss/RS/NEWLPROG> a cosmos_sdtm:SDTMGroup ;
    dcterms:identifier "NEWLPROG" ;
    rdf:_1 <https://w3id.org/cdisc/cosmos/dss/RS/NEWLPROG/RSTESTCD> ;
    rdf:_2 <https://w3id.org/cdisc/cosmos/dss/RS/NEWLPROG/RSTEST> ;
    rdf:_3 <https://w3id.org/cdisc/cosmos/dss/RS/NEWLPROG/RSCAT> ;
    rdf:_4 <https://w3id.org/cdisc/cosmos/dss/RS/NEWLPROG/RSORRES> ;
    rdf:_5 <https://w3id.org/cdisc/cosmos/dss/RS/NEWLPROG/RSSTRESC> ;
    rdf:_6 <https://w3id.org/cdisc/cosmos/dss/RS/NEWLPROG/RSEVAL> ;
    rdf:_7 <https://w3id.org/cdisc/cosmos/dss/RS/NEWLPROG/RSEVALID> ;
    rdf:_8 <https://w3id.org/cdisc/cosmos/dss/RS/NEWLPROG/RSDTC> ;
    cosmos_sdtm:biomedicalConceptId NCIT:C103420 ;
    cosmos_sdtm:domain "RS" ;
    cosmos_sdtm:packageDate "2026-05-26"^^xsd:date ;
    cosmos_sdtm:packageType <https://www.cdisc.org/cosmos/sdtm_v1.0/PackageTypeEnum#sdtm> ;
    cosmos_sdtm:sdtmigStartVersion "3-2" ;
    cosmos_sdtm:shortName "New Lesion Progression (RECIST 1.1)" ;
    cosmos_sdtm:source "RS.RSTESTCD" ;
    cosmos_sdtm:variables <https://w3id.org/cdisc/cosmos/dss/RS/NEWLPROG/RSCAT>,
        <https://w3id.org/cdisc/cosmos/dss/RS/NEWLPROG/RSDTC>,
        <https://w3id.org/cdisc/cosmos/dss/RS/NEWLPROG/RSEVAL>,
        <https://w3id.org/cdisc/cosmos/dss/RS/NEWLPROG/RSEVALID>,
        <https://w3id.org/cdisc/cosmos/dss/RS/NEWLPROG/RSORRES>,
        <https://w3id.org/cdisc/cosmos/dss/RS/NEWLPROG/RSSTRESC>,
        <https://w3id.org/cdisc/cosmos/dss/RS/NEWLPROG/RSTEST>,
        <https://w3id.org/cdisc/cosmos/dss/RS/NEWLPROG/RSTESTCD> .

<https://w3id.org/cdisc/cosmos/dss/RS/NTERESP_RANO> a cosmos_sdtm:SDTMGroup ;
    dcterms:identifier "NTERESP_RANO" ;
    rdf:_1 <https://w3id.org/cdisc/cosmos/dss/RS/NTERESP_RANO/RSTESTCD> ;
    rdf:_2 <https://w3id.org/cdisc/cosmos/dss/RS/NTERESP_RANO/RSTEST> ;
    rdf:_3 <https://w3id.org/cdisc/cosmos/dss/RS/NTERESP_RANO/RSCAT> ;
    rdf:_4 <https://w3id.org/cdisc/cosmos/dss/RS/NTERESP_RANO/RSORRES> ;
    rdf:_5 <https://w3id.org/cdisc/cosmos/dss/RS/NTERESP_RANO/RSSTRESC> ;
    rdf:_6 <https://w3id.org/cdisc/cosmos/dss/RS/NTERESP_RANO/RSEVAL> ;
    rdf:_7 <https://w3id.org/cdisc/cosmos/dss/RS/NTERESP_RANO/RSEVALID> ;
    rdf:_8 <https://w3id.org/cdisc/cosmos/dss/RS/NTERESP_RANO/RSDTC> ;
    cosmos_sdtm:biomedicalConceptId NCIT:C135480 ;
    cosmos_sdtm:domain "RS" ;
    cosmos_sdtm:packageDate "2026-05-26"^^xsd:date ;
    cosmos_sdtm:packageType <https://www.cdisc.org/cosmos/sdtm_v1.0/PackageTypeEnum#sdtm> ;
    cosmos_sdtm:sdtmigStartVersion "3-2" ;
    cosmos_sdtm:shortName "Non-Target Enhancing Response (Rano)" ;
    cosmos_sdtm:source "RS.RSTESTCD" ;
    cosmos_sdtm:variables <https://w3id.org/cdisc/cosmos/dss/RS/NTERESP_RANO/RSCAT>,
        <https://w3id.org/cdisc/cosmos/dss/RS/NTERESP_RANO/RSDTC>,
        <https://w3id.org/cdisc/cosmos/dss/RS/NTERESP_RANO/RSEVAL>,
        <https://w3id.org/cdisc/cosmos/dss/RS/NTERESP_RANO/RSEVALID>,
        <https://w3id.org/cdisc/cosmos/dss/RS/NTERESP_RANO/RSORRES>,
        <https://w3id.org/cdisc/cosmos/dss/RS/NTERESP_RANO/RSSTRESC>,
        <https://w3id.org/cdisc/cosmos/dss/RS/NTERESP_RANO/RSTEST>,
        <https://w3id.org/cdisc/cosmos/dss/RS/NTERESP_RANO/RSTESTCD> .

<https://w3id.org/cdisc/cosmos/dss/RS/NTNERESP_RANO> a cosmos_sdtm:SDTMGroup ;
    dcterms:identifier "NTNERESP_RANO" ;
    rdf:_1 <https://w3id.org/cdisc/cosmos/dss/RS/NTNERESP_RANO/RSTESTCD> ;
    rdf:_2 <https://w3id.org/cdisc/cosmos/dss/RS/NTNERESP_RANO/RSTEST> ;
    rdf:_3 <https://w3id.org/cdisc/cosmos/dss/RS/NTNERESP_RANO/RSCAT> ;
    rdf:_4 <https://w3id.org/cdisc/cosmos/dss/RS/NTNERESP_RANO/RSORRES> ;
    rdf:_5 <https://w3id.org/cdisc/cosmos/dss/RS/NTNERESP_RANO/RSSTRESC> ;
    rdf:_6 <https://w3id.org/cdisc/cosmos/dss/RS/NTNERESP_RANO/RSEVAL> ;
    rdf:_7 <https://w3id.org/cdisc/cosmos/dss/RS/NTNERESP_RANO/RSEVALID> ;
    rdf:_8 <https://w3id.org/cdisc/cosmos/dss/RS/NTNERESP_RANO/RSDTC> ;
    cosmos_sdtm:biomedicalConceptId NCIT:C135481 ;
    cosmos_sdtm:domain "RS" ;
    cosmos_sdtm:packageDate "2026-05-26"^^xsd:date ;
    cosmos_sdtm:packageType <https://www.cdisc.org/cosmos/sdtm_v1.0/PackageTypeEnum#sdtm> ;
    cosmos_sdtm:sdtmigStartVersion "3-2" ;
    cosmos_sdtm:shortName "Non-Target Non-Enhancing Response(Rano)" ;
    cosmos_sdtm:source "RS.RSTESTCD" ;
    cosmos_sdtm:variables <https://w3id.org/cdisc/cosmos/dss/RS/NTNERESP_RANO/RSCAT>,
        <https://w3id.org/cdisc/cosmos/dss/RS/NTNERESP_RANO/RSDTC>,
        <https://w3id.org/cdisc/cosmos/dss/RS/NTNERESP_RANO/RSEVAL>,
        <https://w3id.org/cdisc/cosmos/dss/RS/NTNERESP_RANO/RSEVALID>,
        <https://w3id.org/cdisc/cosmos/dss/RS/NTNERESP_RANO/RSORRES>,
        <https://w3id.org/cdisc/cosmos/dss/RS/NTNERESP_RANO/RSSTRESC>,
        <https://w3id.org/cdisc/cosmos/dss/RS/NTNERESP_RANO/RSTEST>,
        <https://w3id.org/cdisc/cosmos/dss/RS/NTNERESP_RANO/RSTESTCD> .

<https://w3id.org/cdisc/cosmos/dss/RS/NTRGRESP> a cosmos_sdtm:SDTMGroup ;
    dcterms:identifier "NTRGRESP" ;
    rdf:_1 <https://w3id.org/cdisc/cosmos/dss/RS/NTRGRESP/RSTESTCD> ;
    rdf:_2 <https://w3id.org/cdisc/cosmos/dss/RS/NTRGRESP/RSTEST> ;
    rdf:_3 <https://w3id.org/cdisc/cosmos/dss/RS/NTRGRESP/RSCAT> ;
    rdf:_4 <https://w3id.org/cdisc/cosmos/dss/RS/NTRGRESP/RSORRES> ;
    rdf:_5 <https://w3id.org/cdisc/cosmos/dss/RS/NTRGRESP/RSSTRESC> ;
    rdf:_6 <https://w3id.org/cdisc/cosmos/dss/RS/NTRGRESP/RSEVAL> ;
    rdf:_7 <https://w3id.org/cdisc/cosmos/dss/RS/NTRGRESP/RSEVALID> ;
    rdf:_8 <https://w3id.org/cdisc/cosmos/dss/RS/NTRGRESP/RSDTC> ;
    cosmos_sdtm:biomedicalConceptId NCIT:C94535 ;
    cosmos_sdtm:domain "RS" ;
    cosmos_sdtm:packageDate "2026-05-26"^^xsd:date ;
    cosmos_sdtm:packageType <https://www.cdisc.org/cosmos/sdtm_v1.0/PackageTypeEnum#sdtm> ;
    cosmos_sdtm:sdtmigStartVersion "3-2" ;
    cosmos_sdtm:shortName "Non-Target Response (RECIST 1.1)" ;
    cosmos_sdtm:source "RS.RSTESTCD" ;
    cosmos_sdtm:variables <https://w3id.org/cdisc/cosmos/dss/RS/NTRGRESP/RSCAT>,
        <https://w3id.org/cdisc/cosmos/dss/RS/NTRGRESP/RSDTC>,
        <https://w3id.org/cdisc/cosmos/dss/RS/NTRGRESP/RSEVAL>,
        <https://w3id.org/cdisc/cosmos/dss/RS/NTRGRESP/RSEVALID>,
        <https://w3id.org/cdisc/cosmos/dss/RS/NTRGRESP/RSORRES>,
        <https://w3id.org/cdisc/cosmos/dss/RS/NTRGRESP/RSSTRESC>,
        <https://w3id.org/cdisc/cosmos/dss/RS/NTRGRESP/RSTEST>,
        <https://w3id.org/cdisc/cosmos/dss/RS/NTRGRESP/RSTESTCD> .

<https://w3id.org/cdisc/cosmos/dss/RS/NTRGRESP_LUGANO> a cosmos_sdtm:SDTMGroup ;
    dcterms:identifier "NTRGRESP_LUGANO" ;
    rdf:_1 <https://w3id.org/cdisc/cosmos/dss/RS/NTRGRESP_LUGANO/RSTESTCD> ;
    rdf:_2 <https://w3id.org/cdisc/cosmos/dss/RS/NTRGRESP_LUGANO/RSTEST> ;
    rdf:_3 <https://w3id.org/cdisc/cosmos/dss/RS/NTRGRESP_LUGANO/RSCAT> ;
    rdf:_4 <https://w3id.org/cdisc/cosmos/dss/RS/NTRGRESP_LUGANO/RSORRES> ;
    rdf:_5 <https://w3id.org/cdisc/cosmos/dss/RS/NTRGRESP_LUGANO/RSSTRESC> ;
    rdf:_6 <https://w3id.org/cdisc/cosmos/dss/RS/NTRGRESP_LUGANO/RSEVAL> ;
    rdf:_7 <https://w3id.org/cdisc/cosmos/dss/RS/NTRGRESP_LUGANO/RSEVALID> ;
    rdf:_8 <https://w3id.org/cdisc/cosmos/dss/RS/NTRGRESP_LUGANO/RSDTC> ;
    cosmos_sdtm:biomedicalConceptId NCIT:C94535 ;
    cosmos_sdtm:domain "RS" ;
    cosmos_sdtm:packageDate "2026-05-26"^^xsd:date ;
    cosmos_sdtm:packageType <https://www.cdisc.org/cosmos/sdtm_v1.0/PackageTypeEnum#sdtm> ;
    cosmos_sdtm:sdtmigStartVersion "3-2" ;
    cosmos_sdtm:shortName "Non-target Response (Lugano Classfication)" ;
    cosmos_sdtm:source "RS.RSTESTCD" ;
    cosmos_sdtm:variables <https://w3id.org/cdisc/cosmos/dss/RS/NTRGRESP_LUGANO/RSCAT>,
        <https://w3id.org/cdisc/cosmos/dss/RS/NTRGRESP_LUGANO/RSDTC>,
        <https://w3id.org/cdisc/cosmos/dss/RS/NTRGRESP_LUGANO/RSEVAL>,
        <https://w3id.org/cdisc/cosmos/dss/RS/NTRGRESP_LUGANO/RSEVALID>,
        <https://w3id.org/cdisc/cosmos/dss/RS/NTRGRESP_LUGANO/RSORRES>,
        <https://w3id.org/cdisc/cosmos/dss/RS/NTRGRESP_LUGANO/RSSTRESC>,
        <https://w3id.org/cdisc/cosmos/dss/RS/NTRGRESP_LUGANO/RSTEST>,
        <https://w3id.org/cdisc/cosmos/dss/RS/NTRGRESP_LUGANO/RSTESTCD> .

<https://w3id.org/cdisc/cosmos/dss/RS/OVRLRESP> a cosmos_sdtm:SDTMGroup ;
    dcterms:identifier "OVRLRESP" ;
    rdf:_1 <https://w3id.org/cdisc/cosmos/dss/RS/OVRLRESP/RSLNKGRP> ;
    rdf:_2 <https://w3id.org/cdisc/cosmos/dss/RS/OVRLRESP/RSTESTCD> ;
    rdf:_3 <https://w3id.org/cdisc/cosmos/dss/RS/OVRLRESP/RSTEST> ;
    rdf:_4 <https://w3id.org/cdisc/cosmos/dss/RS/OVRLRESP/RSCAT> ;
    rdf:_5 <https://w3id.org/cdisc/cosmos/dss/RS/OVRLRESP/RSORRES> ;
    rdf:_6 <https://w3id.org/cdisc/cosmos/dss/RS/OVRLRESP/RSSTRESC> ;
    rdf:_7 <https://w3id.org/cdisc/cosmos/dss/RS/OVRLRESP/RSEVAL> ;
    rdf:_8 <https://w3id.org/cdisc/cosmos/dss/RS/OVRLRESP/RSEVALID> ;
    rdf:_9 <https://w3id.org/cdisc/cosmos/dss/RS/OVRLRESP/RSDTC> ;
    cosmos_sdtm:biomedicalConceptId NCIT:C96613 ;
    cosmos_sdtm:domain "RS" ;
    cosmos_sdtm:packageDate "2026-05-26"^^xsd:date ;
    cosmos_sdtm:packageType <https://www.cdisc.org/cosmos/sdtm_v1.0/PackageTypeEnum#sdtm> ;
    cosmos_sdtm:sdtmigStartVersion "3-2" ;
    cosmos_sdtm:shortName "Overall Response (RECIST 1.1)" ;
    cosmos_sdtm:source "RS.RSTESTCD" ;
    cosmos_sdtm:variables <https://w3id.org/cdisc/cosmos/dss/RS/OVRLRESP/RSCAT>,
        <https://w3id.org/cdisc/cosmos/dss/RS/OVRLRESP/RSDTC>,
        <https://w3id.org/cdisc/cosmos/dss/RS/OVRLRESP/RSEVAL>,
        <https://w3id.org/cdisc/cosmos/dss/RS/OVRLRESP/RSEVALID>,
        <https://w3id.org/cdisc/cosmos/dss/RS/OVRLRESP/RSLNKGRP>,
        <https://w3id.org/cdisc/cosmos/dss/RS/OVRLRESP/RSORRES>,
        <https://w3id.org/cdisc/cosmos/dss/RS/OVRLRESP/RSSTRESC>,
        <https://w3id.org/cdisc/cosmos/dss/RS/OVRLRESP/RSTEST>,
        <https://w3id.org/cdisc/cosmos/dss/RS/OVRLRESP/RSTESTCD> .

<https://w3id.org/cdisc/cosmos/dss/RS/OVRLRESP_LUGANO> a cosmos_sdtm:SDTMGroup ;
    dcterms:identifier "OVRLRESP_LUGANO" ;
    rdf:_1 <https://w3id.org/cdisc/cosmos/dss/RS/OVRLRESP_LUGANO/RSLNKGRP> ;
    rdf:_2 <https://w3id.org/cdisc/cosmos/dss/RS/OVRLRESP_LUGANO/RSTESTCD> ;
    rdf:_3 <https://w3id.org/cdisc/cosmos/dss/RS/OVRLRESP_LUGANO/RSTEST> ;
    rdf:_4 <https://w3id.org/cdisc/cosmos/dss/RS/OVRLRESP_LUGANO/RSCAT> ;
    rdf:_5 <https://w3id.org/cdisc/cosmos/dss/RS/OVRLRESP_LUGANO/RSORRES> ;
    rdf:_6 <https://w3id.org/cdisc/cosmos/dss/RS/OVRLRESP_LUGANO/RSSTRESC> ;
    rdf:_7 <https://w3id.org/cdisc/cosmos/dss/RS/OVRLRESP_LUGANO/RSEVAL> ;
    rdf:_8 <https://w3id.org/cdisc/cosmos/dss/RS/OVRLRESP_LUGANO/RSEVALID> ;
    rdf:_9 <https://w3id.org/cdisc/cosmos/dss/RS/OVRLRESP_LUGANO/RSDTC> ;
    cosmos_sdtm:biomedicalConceptId NCIT:C96613 ;
    cosmos_sdtm:domain "RS" ;
    cosmos_sdtm:packageDate "2026-05-26"^^xsd:date ;
    cosmos_sdtm:packageType <https://www.cdisc.org/cosmos/sdtm_v1.0/PackageTypeEnum#sdtm> ;
    cosmos_sdtm:sdtmigStartVersion "3-2" ;
    cosmos_sdtm:shortName "Overall Response (Lugano Classfication)" ;
    cosmos_sdtm:source "RS.RSTESTCD" ;
    cosmos_sdtm:variables <https://w3id.org/cdisc/cosmos/dss/RS/OVRLRESP_LUGANO/RSCAT>,
        <https://w3id.org/cdisc/cosmos/dss/RS/OVRLRESP_LUGANO/RSDTC>,
        <https://w3id.org/cdisc/cosmos/dss/RS/OVRLRESP_LUGANO/RSEVAL>,
        <https://w3id.org/cdisc/cosmos/dss/RS/OVRLRESP_LUGANO/RSEVALID>,
        <https://w3id.org/cdisc/cosmos/dss/RS/OVRLRESP_LUGANO/RSLNKGRP>,
        <https://w3id.org/cdisc/cosmos/dss/RS/OVRLRESP_LUGANO/RSORRES>,
        <https://w3id.org/cdisc/cosmos/dss/RS/OVRLRESP_LUGANO/RSSTRESC>,
        <https://w3id.org/cdisc/cosmos/dss/RS/OVRLRESP_LUGANO/RSTEST>,
        <https://w3id.org/cdisc/cosmos/dss/RS/OVRLRESP_LUGANO/RSTESTCD> .

<https://w3id.org/cdisc/cosmos/dss/RS/OVRLRESP_RANO> a cosmos_sdtm:SDTMGroup ;
    dcterms:identifier "OVRLRESP_RANO" ;
    rdf:_1 <https://w3id.org/cdisc/cosmos/dss/RS/OVRLRESP_RANO/RSLNKGRP> ;
    rdf:_2 <https://w3id.org/cdisc/cosmos/dss/RS/OVRLRESP_RANO/RSTESTCD> ;
    rdf:_3 <https://w3id.org/cdisc/cosmos/dss/RS/OVRLRESP_RANO/RSTEST> ;
    rdf:_4 <https://w3id.org/cdisc/cosmos/dss/RS/OVRLRESP_RANO/RSCAT> ;
    rdf:_5 <https://w3id.org/cdisc/cosmos/dss/RS/OVRLRESP_RANO/RSORRES> ;
    rdf:_6 <https://w3id.org/cdisc/cosmos/dss/RS/OVRLRESP_RANO/RSSTRESC> ;
    rdf:_7 <https://w3id.org/cdisc/cosmos/dss/RS/OVRLRESP_RANO/RSEVAL> ;
    rdf:_8 <https://w3id.org/cdisc/cosmos/dss/RS/OVRLRESP_RANO/RSEVALID> ;
    rdf:_9 <https://w3id.org/cdisc/cosmos/dss/RS/OVRLRESP_RANO/RSDTC> ;
    cosmos_sdtm:biomedicalConceptId NCIT:C96613 ;
    cosmos_sdtm:domain "RS" ;
    cosmos_sdtm:packageDate "2026-05-26"^^xsd:date ;
    cosmos_sdtm:packageType <https://www.cdisc.org/cosmos/sdtm_v1.0/PackageTypeEnum#sdtm> ;
    cosmos_sdtm:sdtmigStartVersion "3-2" ;
    cosmos_sdtm:shortName "Overall Response (Rano)" ;
    cosmos_sdtm:source "RS.RSTESTCD" ;
    cosmos_sdtm:variables <https://w3id.org/cdisc/cosmos/dss/RS/OVRLRESP_RANO/RSCAT>,
        <https://w3id.org/cdisc/cosmos/dss/RS/OVRLRESP_RANO/RSDTC>,
        <https://w3id.org/cdisc/cosmos/dss/RS/OVRLRESP_RANO/RSEVAL>,
        <https://w3id.org/cdisc/cosmos/dss/RS/OVRLRESP_RANO/RSEVALID>,
        <https://w3id.org/cdisc/cosmos/dss/RS/OVRLRESP_RANO/RSLNKGRP>,
        <https://w3id.org/cdisc/cosmos/dss/RS/OVRLRESP_RANO/RSORRES>,
        <https://w3id.org/cdisc/cosmos/dss/RS/OVRLRESP_RANO/RSSTRESC>,
        <https://w3id.org/cdisc/cosmos/dss/RS/OVRLRESP_RANO/RSTEST>,
        <https://w3id.org/cdisc/cosmos/dss/RS/OVRLRESP_RANO/RSTESTCD> .

<https://w3id.org/cdisc/cosmos/dss/RS/PASI03HEADAREASCORE> a cosmos_sdtm:SDTMGroup ;
    dcterms:identifier "PASI03HEADAREASCORE" ;
    rdf:_1 <https://w3id.org/cdisc/cosmos/dss/RS/PASI03HEADAREASCORE/RSTESTCD> ;
    rdf:_2 <https://w3id.org/cdisc/cosmos/dss/RS/PASI03HEADAREASCORE/RSTEST> ;
    rdf:_3 <https://w3id.org/cdisc/cosmos/dss/RS/PASI03HEADAREASCORE/RSCAT> ;
    rdf:_4 <https://w3id.org/cdisc/cosmos/dss/RS/PASI03HEADAREASCORE/RSORRES> ;
    rdf:_5 <https://w3id.org/cdisc/cosmos/dss/RS/PASI03HEADAREASCORE/RSSTRESC> ;
    rdf:_6 <https://w3id.org/cdisc/cosmos/dss/RS/PASI03HEADAREASCORE/RSSTRESN> ;
    rdf:_7 <https://w3id.org/cdisc/cosmos/dss/RS/PASI03HEADAREASCORE/RSDTC> ;
    rdf:_8 <https://w3id.org/cdisc/cosmos/dss/RS/PASI03HEADAREASCORE/RSEVAL> ;
    cosmos_sdtm:biomedicalConceptId NCIT:C191069 ;
    cosmos_sdtm:domain "RS" ;
    cosmos_sdtm:packageDate "2026-07-14"^^xsd:date ;
    cosmos_sdtm:packageType <https://www.cdisc.org/cosmos/sdtm_v1.0/PackageTypeEnum#sdtm> ;
    cosmos_sdtm:sdtmigStartVersion "3-2" ;
    cosmos_sdtm:shortName "PASI Fredriksson Version - Head: Area Score" ;
    cosmos_sdtm:source "RS.RSTESTCD" ;
    cosmos_sdtm:variables <https://w3id.org/cdisc/cosmos/dss/RS/PASI03HEADAREASCORE/RSCAT>,
        <https://w3id.org/cdisc/cosmos/dss/RS/PASI03HEADAREASCORE/RSDTC>,
        <https://w3id.org/cdisc/cosmos/dss/RS/PASI03HEADAREASCORE/RSEVAL>,
        <https://w3id.org/cdisc/cosmos/dss/RS/PASI03HEADAREASCORE/RSORRES>,
        <https://w3id.org/cdisc/cosmos/dss/RS/PASI03HEADAREASCORE/RSSTRESC>,
        <https://w3id.org/cdisc/cosmos/dss/RS/PASI03HEADAREASCORE/RSSTRESN>,
        <https://w3id.org/cdisc/cosmos/dss/RS/PASI03HEADAREASCORE/RSTEST>,
        <https://w3id.org/cdisc/cosmos/dss/RS/PASI03HEADAREASCORE/RSTESTCD> .

<https://w3id.org/cdisc/cosmos/dss/RS/PASI03HEADERYTHEMA> a cosmos_sdtm:SDTMGroup ;
    dcterms:identifier "PASI03HEADERYTHEMA" ;
    rdf:_1 <https://w3id.org/cdisc/cosmos/dss/RS/PASI03HEADERYTHEMA/RSTESTCD> ;
