@prefix NCIT: <http://purl.obolibrary.org/obo/NCIT_> .
@prefix cosmos_sdtm: <https://www.cdisc.org/cosmos/sdtm_v1.0/> .
@prefix dcterms: <http://purl.org/dc/terms/> .
@prefix owl: <http://www.w3.org/2002/07/owl#> .
@prefix rdf: <http://www.w3.org/1999/02/22-rdf-syntax-ns#> .
@prefix rdfs: <http://www.w3.org/2000/01/rdf-schema#> .
@prefix skos: <http://www.w3.org/2004/02/skos/core#> .
@prefix xsd: <http://www.w3.org/2001/XMLSchema#> .

<https://w3id.org/cdisc/cosmos/dss/GF> a owl:Ontology ;
    rdfs:label "CDISC COSMoS Dataset Specializations, GF (instances)" ;
    dcterms:identifier "2026-07-14" ;
    dcterms:source <https://raw.githubusercontent.com/cdisc-org/COSMoS/031429b1d14823721991cd23ee88a11616686ce3/export/cdisc_sdtm_dataset_specializations_latest.csv> ;
    rdfs:comment "Dataset Specialization instances for domain GF, rendered from the pinned COSMoS export. Variable order is the export's row order, carried as rdf:_n membership beside the variables edges. length and significantDigits are cast from the export's decimal form to integer; packageType is not in the export and is set to the enum's single value. A biomedicalConceptId or dataElementConceptId that resolves to no node is carried as the published string. The concept nodes those edges reach are declared in the Biomedical Concept instance graph, which is not imported. Draft - not a normative CDISC artifact." ;
    owl:imports <https://w3id.org/cdisc/cosmos/sdtm/> ;
    owl:versionIRI <https://w3id.org/cdisc/cosmos/dss/GF/0.4.0> ;
    owl:versionInfo "v0.4.0" .

<https://w3id.org/cdisc/cosmos/dss/GF/CPNUMVARALTEXON> a cosmos_sdtm:SDTMGroup ;
    dcterms:identifier "CPNUMVARALTEXON" ;
    rdf:_1 <https://w3id.org/cdisc/cosmos/dss/GF/CPNUMVARALTEXON/SPDEVID> ;
    rdf:_10 <https://w3id.org/cdisc/cosmos/dss/GF/CPNUMVARALTEXON/GFGENREF> ;
    rdf:_11 <https://w3id.org/cdisc/cosmos/dss/GF/CPNUMVARALTEXON/GFCHROM> ;
    rdf:_12 <https://w3id.org/cdisc/cosmos/dss/GF/CPNUMVARALTEXON/GFSYM> ;
    rdf:_13 <https://w3id.org/cdisc/cosmos/dss/GF/CPNUMVARALTEXON/GFSYMTYP> ;
    rdf:_14 <https://w3id.org/cdisc/cosmos/dss/GF/CPNUMVARALTEXON/GFGENLOC> ;
    rdf:_15 <https://w3id.org/cdisc/cosmos/dss/GF/CPNUMVARALTEXON/GFGENSR> ;
    rdf:_16 <https://w3id.org/cdisc/cosmos/dss/GF/CPNUMVARALTEXON/GFSEQID> ;
    rdf:_17 <https://w3id.org/cdisc/cosmos/dss/GF/CPNUMVARALTEXON/GFPRVID> ;
    rdf:_18 <https://w3id.org/cdisc/cosmos/dss/GF/CPNUMVARALTEXON/GFSPEC> ;
    rdf:_19 <https://w3id.org/cdisc/cosmos/dss/GF/CPNUMVARALTEXON/GFMETHOD> ;
    rdf:_2 <https://w3id.org/cdisc/cosmos/dss/GF/CPNUMVARALTEXON/GFTESTCD> ;
    rdf:_20 <https://w3id.org/cdisc/cosmos/dss/GF/CPNUMVARALTEXON/GFDTC> ;
    rdf:_3 <https://w3id.org/cdisc/cosmos/dss/GF/CPNUMVARALTEXON/GFTEST> ;
    rdf:_4 <https://w3id.org/cdisc/cosmos/dss/GF/CPNUMVARALTEXON/GFTSTDTL> ;
    rdf:_5 <https://w3id.org/cdisc/cosmos/dss/GF/CPNUMVARALTEXON/GFCAT> ;
    rdf:_6 <https://w3id.org/cdisc/cosmos/dss/GF/CPNUMVARALTEXON/GFORRES> ;
    rdf:_7 <https://w3id.org/cdisc/cosmos/dss/GF/CPNUMVARALTEXON/GFSTRESC> ;
    rdf:_8 <https://w3id.org/cdisc/cosmos/dss/GF/CPNUMVARALTEXON/GFSTRESN> ;
    rdf:_9 <https://w3id.org/cdisc/cosmos/dss/GF/CPNUMVARALTEXON/GFINHERT> ;
    cosmos_sdtm:biomedicalConceptId NCIT:C181330 ;
    cosmos_sdtm:domain "GF" ;
    cosmos_sdtm:packageDate "2026-05-26"^^xsd:date ;
    cosmos_sdtm:packageType <https://www.cdisc.org/cosmos/sdtm_v1.0/PackageTypeEnum#sdtm> ;
    cosmos_sdtm:sdtmigStartVersion "3-4" ;
    cosmos_sdtm:shortName "Copy Number Variation Number of Altered Exons" ;
    cosmos_sdtm:source "GF.GFTESTCD" ;
    cosmos_sdtm:variables <https://w3id.org/cdisc/cosmos/dss/GF/CPNUMVARALTEXON/GFCAT>,
        <https://w3id.org/cdisc/cosmos/dss/GF/CPNUMVARALTEXON/GFCHROM>,
        <https://w3id.org/cdisc/cosmos/dss/GF/CPNUMVARALTEXON/GFDTC>,
        <https://w3id.org/cdisc/cosmos/dss/GF/CPNUMVARALTEXON/GFGENLOC>,
        <https://w3id.org/cdisc/cosmos/dss/GF/CPNUMVARALTEXON/GFGENREF>,
        <https://w3id.org/cdisc/cosmos/dss/GF/CPNUMVARALTEXON/GFGENSR>,
        <https://w3id.org/cdisc/cosmos/dss/GF/CPNUMVARALTEXON/GFINHERT>,
        <https://w3id.org/cdisc/cosmos/dss/GF/CPNUMVARALTEXON/GFMETHOD>,
        <https://w3id.org/cdisc/cosmos/dss/GF/CPNUMVARALTEXON/GFORRES>,
        <https://w3id.org/cdisc/cosmos/dss/GF/CPNUMVARALTEXON/GFPRVID>,
        <https://w3id.org/cdisc/cosmos/dss/GF/CPNUMVARALTEXON/GFSEQID>,
        <https://w3id.org/cdisc/cosmos/dss/GF/CPNUMVARALTEXON/GFSPEC>,
        <https://w3id.org/cdisc/cosmos/dss/GF/CPNUMVARALTEXON/GFSTRESC>,
        <https://w3id.org/cdisc/cosmos/dss/GF/CPNUMVARALTEXON/GFSTRESN>,
        <https://w3id.org/cdisc/cosmos/dss/GF/CPNUMVARALTEXON/GFSYM>,
        <https://w3id.org/cdisc/cosmos/dss/GF/CPNUMVARALTEXON/GFSYMTYP>,
        <https://w3id.org/cdisc/cosmos/dss/GF/CPNUMVARALTEXON/GFTEST>,
        <https://w3id.org/cdisc/cosmos/dss/GF/CPNUMVARALTEXON/GFTESTCD>,
        <https://w3id.org/cdisc/cosmos/dss/GF/CPNUMVARALTEXON/GFTSTDTL>,
        <https://w3id.org/cdisc/cosmos/dss/GF/CPNUMVARALTEXON/SPDEVID> .

<https://w3id.org/cdisc/cosmos/dss/GF/CPNUMVARATIO> a cosmos_sdtm:SDTMGroup ;
    dcterms:identifier "CPNUMVARATIO" ;
    rdf:_1 <https://w3id.org/cdisc/cosmos/dss/GF/CPNUMVARATIO/SPDEVID> ;
    rdf:_10 <https://w3id.org/cdisc/cosmos/dss/GF/CPNUMVARATIO/GFGENREF> ;
    rdf:_11 <https://w3id.org/cdisc/cosmos/dss/GF/CPNUMVARATIO/GFCHROM> ;
    rdf:_12 <https://w3id.org/cdisc/cosmos/dss/GF/CPNUMVARATIO/GFSYM> ;
    rdf:_13 <https://w3id.org/cdisc/cosmos/dss/GF/CPNUMVARATIO/GFSYMTYP> ;
    rdf:_14 <https://w3id.org/cdisc/cosmos/dss/GF/CPNUMVARATIO/GFGENLOC> ;
    rdf:_15 <https://w3id.org/cdisc/cosmos/dss/GF/CPNUMVARATIO/GFGENSR> ;
    rdf:_16 <https://w3id.org/cdisc/cosmos/dss/GF/CPNUMVARATIO/GFSEQID> ;
    rdf:_17 <https://w3id.org/cdisc/cosmos/dss/GF/CPNUMVARATIO/GFPRVID> ;
    rdf:_18 <https://w3id.org/cdisc/cosmos/dss/GF/CPNUMVARATIO/GFSPEC> ;
    rdf:_19 <https://w3id.org/cdisc/cosmos/dss/GF/CPNUMVARATIO/GFMETHOD> ;
    rdf:_2 <https://w3id.org/cdisc/cosmos/dss/GF/CPNUMVARATIO/GFTESTCD> ;
    rdf:_20 <https://w3id.org/cdisc/cosmos/dss/GF/CPNUMVARATIO/GFDTC> ;
    rdf:_3 <https://w3id.org/cdisc/cosmos/dss/GF/CPNUMVARATIO/GFTEST> ;
    rdf:_4 <https://w3id.org/cdisc/cosmos/dss/GF/CPNUMVARATIO/GFTSTDTL> ;
    rdf:_5 <https://w3id.org/cdisc/cosmos/dss/GF/CPNUMVARATIO/GFCAT> ;
    rdf:_6 <https://w3id.org/cdisc/cosmos/dss/GF/CPNUMVARATIO/GFORRES> ;
    rdf:_7 <https://w3id.org/cdisc/cosmos/dss/GF/CPNUMVARATIO/GFSTRESC> ;
    rdf:_8 <https://w3id.org/cdisc/cosmos/dss/GF/CPNUMVARATIO/GFSTRESN> ;
    rdf:_9 <https://w3id.org/cdisc/cosmos/dss/GF/CPNUMVARATIO/GFINHERT> ;
    cosmos_sdtm:biomedicalConceptId NCIT:C181330 ;
    cosmos_sdtm:domain "GF" ;
    cosmos_sdtm:packageDate "2026-05-26"^^xsd:date ;
    cosmos_sdtm:packageType <https://www.cdisc.org/cosmos/sdtm_v1.0/PackageTypeEnum#sdtm> ;
    cosmos_sdtm:sdtmigStartVersion "3-4" ;
    cosmos_sdtm:shortName "Copy Number Variation Ratio" ;
    cosmos_sdtm:source "GF.GFTESTCD" ;
    cosmos_sdtm:variables <https://w3id.org/cdisc/cosmos/dss/GF/CPNUMVARATIO/GFCAT>,
        <https://w3id.org/cdisc/cosmos/dss/GF/CPNUMVARATIO/GFCHROM>,
        <https://w3id.org/cdisc/cosmos/dss/GF/CPNUMVARATIO/GFDTC>,
        <https://w3id.org/cdisc/cosmos/dss/GF/CPNUMVARATIO/GFGENLOC>,
        <https://w3id.org/cdisc/cosmos/dss/GF/CPNUMVARATIO/GFGENREF>,
        <https://w3id.org/cdisc/cosmos/dss/GF/CPNUMVARATIO/GFGENSR>,
        <https://w3id.org/cdisc/cosmos/dss/GF/CPNUMVARATIO/GFINHERT>,
        <https://w3id.org/cdisc/cosmos/dss/GF/CPNUMVARATIO/GFMETHOD>,
        <https://w3id.org/cdisc/cosmos/dss/GF/CPNUMVARATIO/GFORRES>,
        <https://w3id.org/cdisc/cosmos/dss/GF/CPNUMVARATIO/GFPRVID>,
        <https://w3id.org/cdisc/cosmos/dss/GF/CPNUMVARATIO/GFSEQID>,
        <https://w3id.org/cdisc/cosmos/dss/GF/CPNUMVARATIO/GFSPEC>,
        <https://w3id.org/cdisc/cosmos/dss/GF/CPNUMVARATIO/GFSTRESC>,
        <https://w3id.org/cdisc/cosmos/dss/GF/CPNUMVARATIO/GFSTRESN>,
        <https://w3id.org/cdisc/cosmos/dss/GF/CPNUMVARATIO/GFSYM>,
        <https://w3id.org/cdisc/cosmos/dss/GF/CPNUMVARATIO/GFSYMTYP>,
        <https://w3id.org/cdisc/cosmos/dss/GF/CPNUMVARATIO/GFTEST>,
        <https://w3id.org/cdisc/cosmos/dss/GF/CPNUMVARATIO/GFTESTCD>,
        <https://w3id.org/cdisc/cosmos/dss/GF/CPNUMVARATIO/GFTSTDTL>,
        <https://w3id.org/cdisc/cosmos/dss/GF/CPNUMVARATIO/SPDEVID> .

<https://w3id.org/cdisc/cosmos/dss/GF/CPNUMVARINTP> a cosmos_sdtm:SDTMGroup ;
    dcterms:identifier "CPNUMVARINTP" ;
    rdf:_1 <https://w3id.org/cdisc/cosmos/dss/GF/CPNUMVARINTP/SPDEVID> ;
    rdf:_10 <https://w3id.org/cdisc/cosmos/dss/GF/CPNUMVARINTP/GFCHROM> ;
    rdf:_11 <https://w3id.org/cdisc/cosmos/dss/GF/CPNUMVARINTP/GFSYM> ;
    rdf:_12 <https://w3id.org/cdisc/cosmos/dss/GF/CPNUMVARINTP/GFSYMTYP> ;
    rdf:_13 <https://w3id.org/cdisc/cosmos/dss/GF/CPNUMVARINTP/GFGENLOC> ;
    rdf:_14 <https://w3id.org/cdisc/cosmos/dss/GF/CPNUMVARINTP/GFGENSR> ;
    rdf:_15 <https://w3id.org/cdisc/cosmos/dss/GF/CPNUMVARINTP/GFSEQID> ;
    rdf:_16 <https://w3id.org/cdisc/cosmos/dss/GF/CPNUMVARINTP/GFPRVID> ;
    rdf:_17 <https://w3id.org/cdisc/cosmos/dss/GF/CPNUMVARINTP/GFSPEC> ;
    rdf:_18 <https://w3id.org/cdisc/cosmos/dss/GF/CPNUMVARINTP/GFMETHOD> ;
    rdf:_19 <https://w3id.org/cdisc/cosmos/dss/GF/CPNUMVARINTP/GFDTC> ;
    rdf:_2 <https://w3id.org/cdisc/cosmos/dss/GF/CPNUMVARINTP/GFTESTCD> ;
    rdf:_3 <https://w3id.org/cdisc/cosmos/dss/GF/CPNUMVARINTP/GFTEST> ;
    rdf:_4 <https://w3id.org/cdisc/cosmos/dss/GF/CPNUMVARINTP/GFTSTDTL> ;
    rdf:_5 <https://w3id.org/cdisc/cosmos/dss/GF/CPNUMVARINTP/GFCAT> ;
    rdf:_6 <https://w3id.org/cdisc/cosmos/dss/GF/CPNUMVARINTP/GFORRES> ;
    rdf:_7 <https://w3id.org/cdisc/cosmos/dss/GF/CPNUMVARINTP/GFSTRESC> ;
    rdf:_8 <https://w3id.org/cdisc/cosmos/dss/GF/CPNUMVARINTP/GFINHERT> ;
    rdf:_9 <https://w3id.org/cdisc/cosmos/dss/GF/CPNUMVARINTP/GFGENREF> ;
    cosmos_sdtm:biomedicalConceptId NCIT:C181330 ;
    cosmos_sdtm:domain "GF" ;
    cosmos_sdtm:packageDate "2026-05-26"^^xsd:date ;
    cosmos_sdtm:packageType <https://www.cdisc.org/cosmos/sdtm_v1.0/PackageTypeEnum#sdtm> ;
    cosmos_sdtm:sdtmigStartVersion "3-4" ;
    cosmos_sdtm:shortName "Copy Number Variation Alteration Interpretation" ;
    cosmos_sdtm:source "GF.GFTESTCD" ;
    cosmos_sdtm:variables <https://w3id.org/cdisc/cosmos/dss/GF/CPNUMVARINTP/GFCAT>,
        <https://w3id.org/cdisc/cosmos/dss/GF/CPNUMVARINTP/GFCHROM>,
        <https://w3id.org/cdisc/cosmos/dss/GF/CPNUMVARINTP/GFDTC>,
        <https://w3id.org/cdisc/cosmos/dss/GF/CPNUMVARINTP/GFGENLOC>,
        <https://w3id.org/cdisc/cosmos/dss/GF/CPNUMVARINTP/GFGENREF>,
        <https://w3id.org/cdisc/cosmos/dss/GF/CPNUMVARINTP/GFGENSR>,
        <https://w3id.org/cdisc/cosmos/dss/GF/CPNUMVARINTP/GFINHERT>,
        <https://w3id.org/cdisc/cosmos/dss/GF/CPNUMVARINTP/GFMETHOD>,
        <https://w3id.org/cdisc/cosmos/dss/GF/CPNUMVARINTP/GFORRES>,
        <https://w3id.org/cdisc/cosmos/dss/GF/CPNUMVARINTP/GFPRVID>,
        <https://w3id.org/cdisc/cosmos/dss/GF/CPNUMVARINTP/GFSEQID>,
        <https://w3id.org/cdisc/cosmos/dss/GF/CPNUMVARINTP/GFSPEC>,
        <https://w3id.org/cdisc/cosmos/dss/GF/CPNUMVARINTP/GFSTRESC>,
        <https://w3id.org/cdisc/cosmos/dss/GF/CPNUMVARINTP/GFSYM>,
        <https://w3id.org/cdisc/cosmos/dss/GF/CPNUMVARINTP/GFSYMTYP>,
        <https://w3id.org/cdisc/cosmos/dss/GF/CPNUMVARINTP/GFTEST>,
        <https://w3id.org/cdisc/cosmos/dss/GF/CPNUMVARINTP/GFTESTCD>,
        <https://w3id.org/cdisc/cosmos/dss/GF/CPNUMVARINTP/GFTSTDTL>,
        <https://w3id.org/cdisc/cosmos/dss/GF/CPNUMVARINTP/SPDEVID> .

<https://w3id.org/cdisc/cosmos/dss/GF/CPNUMVARNUMGCPY> a cosmos_sdtm:SDTMGroup ;
    dcterms:identifier "CPNUMVARNUMGCPY" ;
    rdf:_1 <https://w3id.org/cdisc/cosmos/dss/GF/CPNUMVARNUMGCPY/SPDEVID> ;
    rdf:_10 <https://w3id.org/cdisc/cosmos/dss/GF/CPNUMVARNUMGCPY/GFGENREF> ;
    rdf:_11 <https://w3id.org/cdisc/cosmos/dss/GF/CPNUMVARNUMGCPY/GFCHROM> ;
    rdf:_12 <https://w3id.org/cdisc/cosmos/dss/GF/CPNUMVARNUMGCPY/GFSYM> ;
    rdf:_13 <https://w3id.org/cdisc/cosmos/dss/GF/CPNUMVARNUMGCPY/GFSYMTYP> ;
    rdf:_14 <https://w3id.org/cdisc/cosmos/dss/GF/CPNUMVARNUMGCPY/GFGENLOC> ;
    rdf:_15 <https://w3id.org/cdisc/cosmos/dss/GF/CPNUMVARNUMGCPY/GFGENSR> ;
    rdf:_16 <https://w3id.org/cdisc/cosmos/dss/GF/CPNUMVARNUMGCPY/GFSEQID> ;
    rdf:_17 <https://w3id.org/cdisc/cosmos/dss/GF/CPNUMVARNUMGCPY/GFPRVID> ;
    rdf:_18 <https://w3id.org/cdisc/cosmos/dss/GF/CPNUMVARNUMGCPY/GFSPEC> ;
    rdf:_19 <https://w3id.org/cdisc/cosmos/dss/GF/CPNUMVARNUMGCPY/GFMETHOD> ;
    rdf:_2 <https://w3id.org/cdisc/cosmos/dss/GF/CPNUMVARNUMGCPY/GFTESTCD> ;
    rdf:_20 <https://w3id.org/cdisc/cosmos/dss/GF/CPNUMVARNUMGCPY/GFDTC> ;
    rdf:_3 <https://w3id.org/cdisc/cosmos/dss/GF/CPNUMVARNUMGCPY/GFTEST> ;
    rdf:_4 <https://w3id.org/cdisc/cosmos/dss/GF/CPNUMVARNUMGCPY/GFTSTDTL> ;
    rdf:_5 <https://w3id.org/cdisc/cosmos/dss/GF/CPNUMVARNUMGCPY/GFCAT> ;
    rdf:_6 <https://w3id.org/cdisc/cosmos/dss/GF/CPNUMVARNUMGCPY/GFORRES> ;
    rdf:_7 <https://w3id.org/cdisc/cosmos/dss/GF/CPNUMVARNUMGCPY/GFSTRESC> ;
    rdf:_8 <https://w3id.org/cdisc/cosmos/dss/GF/CPNUMVARNUMGCPY/GFSTRESN> ;
    rdf:_9 <https://w3id.org/cdisc/cosmos/dss/GF/CPNUMVARNUMGCPY/GFINHERT> ;
    cosmos_sdtm:biomedicalConceptId NCIT:C181330 ;
    cosmos_sdtm:domain "GF" ;
    cosmos_sdtm:packageDate "2026-05-26"^^xsd:date ;
    cosmos_sdtm:packageType <https://www.cdisc.org/cosmos/sdtm_v1.0/PackageTypeEnum#sdtm> ;
    cosmos_sdtm:sdtmigStartVersion "3-4" ;
    cosmos_sdtm:shortName "Copy Number Variation Number of Gene Copies" ;
    cosmos_sdtm:source "GF.GFTESTCD" ;
    cosmos_sdtm:variables <https://w3id.org/cdisc/cosmos/dss/GF/CPNUMVARNUMGCPY/GFCAT>,
        <https://w3id.org/cdisc/cosmos/dss/GF/CPNUMVARNUMGCPY/GFCHROM>,
        <https://w3id.org/cdisc/cosmos/dss/GF/CPNUMVARNUMGCPY/GFDTC>,
        <https://w3id.org/cdisc/cosmos/dss/GF/CPNUMVARNUMGCPY/GFGENLOC>,
        <https://w3id.org/cdisc/cosmos/dss/GF/CPNUMVARNUMGCPY/GFGENREF>,
        <https://w3id.org/cdisc/cosmos/dss/GF/CPNUMVARNUMGCPY/GFGENSR>,
        <https://w3id.org/cdisc/cosmos/dss/GF/CPNUMVARNUMGCPY/GFINHERT>,
        <https://w3id.org/cdisc/cosmos/dss/GF/CPNUMVARNUMGCPY/GFMETHOD>,
        <https://w3id.org/cdisc/cosmos/dss/GF/CPNUMVARNUMGCPY/GFORRES>,
        <https://w3id.org/cdisc/cosmos/dss/GF/CPNUMVARNUMGCPY/GFPRVID>,
        <https://w3id.org/cdisc/cosmos/dss/GF/CPNUMVARNUMGCPY/GFSEQID>,
        <https://w3id.org/cdisc/cosmos/dss/GF/CPNUMVARNUMGCPY/GFSPEC>,
        <https://w3id.org/cdisc/cosmos/dss/GF/CPNUMVARNUMGCPY/GFSTRESC>,
        <https://w3id.org/cdisc/cosmos/dss/GF/CPNUMVARNUMGCPY/GFSTRESN>,
        <https://w3id.org/cdisc/cosmos/dss/GF/CPNUMVARNUMGCPY/GFSYM>,
        <https://w3id.org/cdisc/cosmos/dss/GF/CPNUMVARNUMGCPY/GFSYMTYP>,
        <https://w3id.org/cdisc/cosmos/dss/GF/CPNUMVARNUMGCPY/GFTEST>,
        <https://w3id.org/cdisc/cosmos/dss/GF/CPNUMVARNUMGCPY/GFTESTCD>,
        <https://w3id.org/cdisc/cosmos/dss/GF/CPNUMVARNUMGCPY/GFTSTDTL>,
        <https://w3id.org/cdisc/cosmos/dss/GF/CPNUMVARNUMGCPY/SPDEVID> .

<https://w3id.org/cdisc/cosmos/dss/GF/GENESIGINTP> a cosmos_sdtm:SDTMGroup ;
    dcterms:identifier "GENESIGINTP" ;
    rdf:_1 <https://w3id.org/cdisc/cosmos/dss/GF/GENESIGINTP/GFTESTCD> ;
    rdf:_10 <https://w3id.org/cdisc/cosmos/dss/GF/GENESIGINTP/GFSYM> ;
    rdf:_11 <https://w3id.org/cdisc/cosmos/dss/GF/GENESIGINTP/GFSYMTYP> ;
    rdf:_12 <https://w3id.org/cdisc/cosmos/dss/GF/GENESIGINTP/GFGENLOC> ;
    rdf:_13 <https://w3id.org/cdisc/cosmos/dss/GF/GENESIGINTP/GFGENSR> ;
    rdf:_14 <https://w3id.org/cdisc/cosmos/dss/GF/GENESIGINTP/GFSEQID> ;
    rdf:_15 <https://w3id.org/cdisc/cosmos/dss/GF/GENESIGINTP/GFPRVID> ;
    rdf:_16 <https://w3id.org/cdisc/cosmos/dss/GF/GENESIGINTP/GFSPEC> ;
    rdf:_17 <https://w3id.org/cdisc/cosmos/dss/GF/GENESIGINTP/GFMETHOD> ;
    rdf:_18 <https://w3id.org/cdisc/cosmos/dss/GF/GENESIGINTP/GFANMETH> ;
    rdf:_19 <https://w3id.org/cdisc/cosmos/dss/GF/GENESIGINTP/GFDTC> ;
    rdf:_2 <https://w3id.org/cdisc/cosmos/dss/GF/GENESIGINTP/GFTEST> ;
    rdf:_3 <https://w3id.org/cdisc/cosmos/dss/GF/GENESIGINTP/GFTSTDTL> ;
    rdf:_4 <https://w3id.org/cdisc/cosmos/dss/GF/GENESIGINTP/GFCAT> ;
    rdf:_5 <https://w3id.org/cdisc/cosmos/dss/GF/GENESIGINTP/GFORRES> ;
    rdf:_6 <https://w3id.org/cdisc/cosmos/dss/GF/GENESIGINTP/GFSTRESC> ;
    rdf:_7 <https://w3id.org/cdisc/cosmos/dss/GF/GENESIGINTP/GFINHERT> ;
    rdf:_8 <https://w3id.org/cdisc/cosmos/dss/GF/GENESIGINTP/GFGENREF> ;
    rdf:_9 <https://w3id.org/cdisc/cosmos/dss/GF/GENESIGINTP/GFCHROM> ;
    cosmos_sdtm:biomedicalConceptId NCIT:C181333 ;
    cosmos_sdtm:domain "GF" ;
    cosmos_sdtm:packageDate "2026-05-26"^^xsd:date ;
    cosmos_sdtm:packageType <https://www.cdisc.org/cosmos/sdtm_v1.0/PackageTypeEnum#sdtm> ;
    cosmos_sdtm:sdtmigStartVersion "3-4" ;
    cosmos_sdtm:shortName "Genetic Signature Transcription Interpretation" ;
    cosmos_sdtm:source "GF.GFTESTCD" ;
    cosmos_sdtm:variables <https://w3id.org/cdisc/cosmos/dss/GF/GENESIGINTP/GFANMETH>,
        <https://w3id.org/cdisc/cosmos/dss/GF/GENESIGINTP/GFCAT>,
        <https://w3id.org/cdisc/cosmos/dss/GF/GENESIGINTP/GFCHROM>,
        <https://w3id.org/cdisc/cosmos/dss/GF/GENESIGINTP/GFDTC>,
        <https://w3id.org/cdisc/cosmos/dss/GF/GENESIGINTP/GFGENLOC>,
        <https://w3id.org/cdisc/cosmos/dss/GF/GENESIGINTP/GFGENREF>,
        <https://w3id.org/cdisc/cosmos/dss/GF/GENESIGINTP/GFGENSR>,
        <https://w3id.org/cdisc/cosmos/dss/GF/GENESIGINTP/GFINHERT>,
        <https://w3id.org/cdisc/cosmos/dss/GF/GENESIGINTP/GFMETHOD>,
        <https://w3id.org/cdisc/cosmos/dss/GF/GENESIGINTP/GFORRES>,
        <https://w3id.org/cdisc/cosmos/dss/GF/GENESIGINTP/GFPRVID>,
        <https://w3id.org/cdisc/cosmos/dss/GF/GENESIGINTP/GFSEQID>,
        <https://w3id.org/cdisc/cosmos/dss/GF/GENESIGINTP/GFSPEC>,
        <https://w3id.org/cdisc/cosmos/dss/GF/GENESIGINTP/GFSTRESC>,
        <https://w3id.org/cdisc/cosmos/dss/GF/GENESIGINTP/GFSYM>,
        <https://w3id.org/cdisc/cosmos/dss/GF/GENESIGINTP/GFSYMTYP>,
        <https://w3id.org/cdisc/cosmos/dss/GF/GENESIGINTP/GFTEST>,
        <https://w3id.org/cdisc/cosmos/dss/GF/GENESIGINTP/GFTESTCD>,
        <https://w3id.org/cdisc/cosmos/dss/GF/GENESIGINTP/GFTSTDTL> .

<https://w3id.org/cdisc/cosmos/dss/GF/GENESIGSCORE> a cosmos_sdtm:SDTMGroup ;
    dcterms:identifier "GENESIGSCORE" ;
    rdf:_1 <https://w3id.org/cdisc/cosmos/dss/GF/GENESIGSCORE/GFTESTCD> ;
    rdf:_10 <https://w3id.org/cdisc/cosmos/dss/GF/GENESIGSCORE/GFCHROM> ;
    rdf:_11 <https://w3id.org/cdisc/cosmos/dss/GF/GENESIGSCORE/GFSYM> ;
    rdf:_12 <https://w3id.org/cdisc/cosmos/dss/GF/GENESIGSCORE/GFSYMTYP> ;
    rdf:_13 <https://w3id.org/cdisc/cosmos/dss/GF/GENESIGSCORE/GFGENLOC> ;
    rdf:_14 <https://w3id.org/cdisc/cosmos/dss/GF/GENESIGSCORE/GFGENSR> ;
    rdf:_15 <https://w3id.org/cdisc/cosmos/dss/GF/GENESIGSCORE/GFSEQID> ;
    rdf:_16 <https://w3id.org/cdisc/cosmos/dss/GF/GENESIGSCORE/GFPRVID> ;
    rdf:_17 <https://w3id.org/cdisc/cosmos/dss/GF/GENESIGSCORE/GFSPEC> ;
    rdf:_18 <https://w3id.org/cdisc/cosmos/dss/GF/GENESIGSCORE/GFMETHOD> ;
    rdf:_19 <https://w3id.org/cdisc/cosmos/dss/GF/GENESIGSCORE/GFANMETH> ;
    rdf:_2 <https://w3id.org/cdisc/cosmos/dss/GF/GENESIGSCORE/GFTEST> ;
    rdf:_20 <https://w3id.org/cdisc/cosmos/dss/GF/GENESIGSCORE/GFDTC> ;
    rdf:_3 <https://w3id.org/cdisc/cosmos/dss/GF/GENESIGSCORE/GFTSTDTL> ;
    rdf:_4 <https://w3id.org/cdisc/cosmos/dss/GF/GENESIGSCORE/GFCAT> ;
    rdf:_5 <https://w3id.org/cdisc/cosmos/dss/GF/GENESIGSCORE/GFORRES> ;
    rdf:_6 <https://w3id.org/cdisc/cosmos/dss/GF/GENESIGSCORE/GFSTRESC> ;
    rdf:_7 <https://w3id.org/cdisc/cosmos/dss/GF/GENESIGSCORE/GFSTRESN> ;
    rdf:_8 <https://w3id.org/cdisc/cosmos/dss/GF/GENESIGSCORE/GFINHERT> ;
    rdf:_9 <https://w3id.org/cdisc/cosmos/dss/GF/GENESIGSCORE/GFGENREF> ;
    cosmos_sdtm:biomedicalConceptId NCIT:C181333 ;
    cosmos_sdtm:domain "GF" ;
    cosmos_sdtm:packageDate "2026-05-26"^^xsd:date ;
    cosmos_sdtm:packageType <https://www.cdisc.org/cosmos/sdtm_v1.0/PackageTypeEnum#sdtm> ;
    cosmos_sdtm:sdtmigStartVersion "3-4" ;
    cosmos_sdtm:shortName "Gene Signature Score" ;
    cosmos_sdtm:source "GF.GFTESTCD" ;
    cosmos_sdtm:variables <https://w3id.org/cdisc/cosmos/dss/GF/GENESIGSCORE/GFANMETH>,
        <https://w3id.org/cdisc/cosmos/dss/GF/GENESIGSCORE/GFCAT>,
        <https://w3id.org/cdisc/cosmos/dss/GF/GENESIGSCORE/GFCHROM>,
        <https://w3id.org/cdisc/cosmos/dss/GF/GENESIGSCORE/GFDTC>,
        <https://w3id.org/cdisc/cosmos/dss/GF/GENESIGSCORE/GFGENLOC>,
        <https://w3id.org/cdisc/cosmos/dss/GF/GENESIGSCORE/GFGENREF>,
        <https://w3id.org/cdisc/cosmos/dss/GF/GENESIGSCORE/GFGENSR>,
        <https://w3id.org/cdisc/cosmos/dss/GF/GENESIGSCORE/GFINHERT>,
        <https://w3id.org/cdisc/cosmos/dss/GF/GENESIGSCORE/GFMETHOD>,
        <https://w3id.org/cdisc/cosmos/dss/GF/GENESIGSCORE/GFORRES>,
        <https://w3id.org/cdisc/cosmos/dss/GF/GENESIGSCORE/GFPRVID>,
        <https://w3id.org/cdisc/cosmos/dss/GF/GENESIGSCORE/GFSEQID>,
        <https://w3id.org/cdisc/cosmos/dss/GF/GENESIGSCORE/GFSPEC>,
        <https://w3id.org/cdisc/cosmos/dss/GF/GENESIGSCORE/GFSTRESC>,
        <https://w3id.org/cdisc/cosmos/dss/GF/GENESIGSCORE/GFSTRESN>,
        <https://w3id.org/cdisc/cosmos/dss/GF/GENESIGSCORE/GFSYM>,
        <https://w3id.org/cdisc/cosmos/dss/GF/GENESIGSCORE/GFSYMTYP>,
        <https://w3id.org/cdisc/cosmos/dss/GF/GENESIGSCORE/GFTEST>,
        <https://w3id.org/cdisc/cosmos/dss/GF/GENESIGSCORE/GFTESTCD>,
        <https://w3id.org/cdisc/cosmos/dss/GF/GENESIGSCORE/GFTSTDTL> .

<https://w3id.org/cdisc/cosmos/dss/GF/MICRISTBDETECT> a cosmos_sdtm:SDTMGroup ;
    dcterms:identifier "MICRISTBDETECT" ;
    rdf:_1 <https://w3id.org/cdisc/cosmos/dss/GF/MICRISTBDETECT/GFTESTCD> ;
    rdf:_10 <https://w3id.org/cdisc/cosmos/dss/GF/MICRISTBDETECT/GFMETHOD> ;
    rdf:_11 <https://w3id.org/cdisc/cosmos/dss/GF/MICRISTBDETECT/GFDTC> ;
    rdf:_2 <https://w3id.org/cdisc/cosmos/dss/GF/MICRISTBDETECT/GFTEST> ;
    rdf:_3 <https://w3id.org/cdisc/cosmos/dss/GF/MICRISTBDETECT/GFTSTDTL> ;
    rdf:_4 <https://w3id.org/cdisc/cosmos/dss/GF/MICRISTBDETECT/GFCAT> ;
    rdf:_5 <https://w3id.org/cdisc/cosmos/dss/GF/MICRISTBDETECT/GFORRES> ;
    rdf:_6 <https://w3id.org/cdisc/cosmos/dss/GF/MICRISTBDETECT/GFSTRESC> ;
    rdf:_7 <https://w3id.org/cdisc/cosmos/dss/GF/MICRISTBDETECT/GFGENLOC> ;
    rdf:_8 <https://w3id.org/cdisc/cosmos/dss/GF/MICRISTBDETECT/GFGENSR> ;
    rdf:_9 <https://w3id.org/cdisc/cosmos/dss/GF/MICRISTBDETECT/GFSPEC> ;
    cosmos_sdtm:biomedicalConceptId NCIT:C181332 ;
    cosmos_sdtm:domain "GF" ;
    cosmos_sdtm:packageDate "2026-05-26"^^xsd:date ;
    cosmos_sdtm:packageType <https://www.cdisc.org/cosmos/sdtm_v1.0/PackageTypeEnum#sdtm> ;
    cosmos_sdtm:sdtmigStartVersion "3-4" ;
    cosmos_sdtm:shortName "Microsatellite Instability Detection" ;
    cosmos_sdtm:source "GF.GFTESTCD" ;
    cosmos_sdtm:variables <https://w3id.org/cdisc/cosmos/dss/GF/MICRISTBDETECT/GFCAT>,
        <https://w3id.org/cdisc/cosmos/dss/GF/MICRISTBDETECT/GFDTC>,
        <https://w3id.org/cdisc/cosmos/dss/GF/MICRISTBDETECT/GFGENLOC>,
        <https://w3id.org/cdisc/cosmos/dss/GF/MICRISTBDETECT/GFGENSR>,
        <https://w3id.org/cdisc/cosmos/dss/GF/MICRISTBDETECT/GFMETHOD>,
        <https://w3id.org/cdisc/cosmos/dss/GF/MICRISTBDETECT/GFORRES>,
        <https://w3id.org/cdisc/cosmos/dss/GF/MICRISTBDETECT/GFSPEC>,
        <https://w3id.org/cdisc/cosmos/dss/GF/MICRISTBDETECT/GFSTRESC>,
        <https://w3id.org/cdisc/cosmos/dss/GF/MICRISTBDETECT/GFTEST>,
        <https://w3id.org/cdisc/cosmos/dss/GF/MICRISTBDETECT/GFTESTCD>,
        <https://w3id.org/cdisc/cosmos/dss/GF/MICRISTBDETECT/GFTSTDTL> .

<https://w3id.org/cdisc/cosmos/dss/GF/MICRISTBOVRASTAT> a cosmos_sdtm:SDTMGroup ;
    dcterms:identifier "MICRISTBOVRASTAT" ;
    rdf:_1 <https://w3id.org/cdisc/cosmos/dss/GF/MICRISTBOVRASTAT/GFTESTCD> ;
    rdf:_10 <https://w3id.org/cdisc/cosmos/dss/GF/MICRISTBOVRASTAT/GFMETHOD> ;
    rdf:_11 <https://w3id.org/cdisc/cosmos/dss/GF/MICRISTBOVRASTAT/GFDTC> ;
    rdf:_2 <https://w3id.org/cdisc/cosmos/dss/GF/MICRISTBOVRASTAT/GFTEST> ;
    rdf:_3 <https://w3id.org/cdisc/cosmos/dss/GF/MICRISTBOVRASTAT/GFTSTDTL> ;
    rdf:_4 <https://w3id.org/cdisc/cosmos/dss/GF/MICRISTBOVRASTAT/GFCAT> ;
    rdf:_5 <https://w3id.org/cdisc/cosmos/dss/GF/MICRISTBOVRASTAT/GFORRES> ;
    rdf:_6 <https://w3id.org/cdisc/cosmos/dss/GF/MICRISTBOVRASTAT/GFSTRESC> ;
    rdf:_7 <https://w3id.org/cdisc/cosmos/dss/GF/MICRISTBOVRASTAT/GFGENLOC> ;
    rdf:_8 <https://w3id.org/cdisc/cosmos/dss/GF/MICRISTBOVRASTAT/GFGENSR> ;
    rdf:_9 <https://w3id.org/cdisc/cosmos/dss/GF/MICRISTBOVRASTAT/GFSPEC> ;
    cosmos_sdtm:biomedicalConceptId NCIT:C181332 ;
    cosmos_sdtm:domain "GF" ;
    cosmos_sdtm:packageDate "2026-05-26"^^xsd:date ;
    cosmos_sdtm:packageType <https://www.cdisc.org/cosmos/sdtm_v1.0/PackageTypeEnum#sdtm> ;
    cosmos_sdtm:sdtmigStartVersion "3-4" ;
    cosmos_sdtm:shortName "Microsatellite Instability Overall Status" ;
    cosmos_sdtm:source "GF.GFTESTCD" ;
    cosmos_sdtm:variables <https://w3id.org/cdisc/cosmos/dss/GF/MICRISTBOVRASTAT/GFCAT>,
        <https://w3id.org/cdisc/cosmos/dss/GF/MICRISTBOVRASTAT/GFDTC>,
        <https://w3id.org/cdisc/cosmos/dss/GF/MICRISTBOVRASTAT/GFGENLOC>,
        <https://w3id.org/cdisc/cosmos/dss/GF/MICRISTBOVRASTAT/GFGENSR>,
        <https://w3id.org/cdisc/cosmos/dss/GF/MICRISTBOVRASTAT/GFMETHOD>,
        <https://w3id.org/cdisc/cosmos/dss/GF/MICRISTBOVRASTAT/GFORRES>,
        <https://w3id.org/cdisc/cosmos/dss/GF/MICRISTBOVRASTAT/GFSPEC>,
        <https://w3id.org/cdisc/cosmos/dss/GF/MICRISTBOVRASTAT/GFSTRESC>,
        <https://w3id.org/cdisc/cosmos/dss/GF/MICRISTBOVRASTAT/GFTEST>,
        <https://w3id.org/cdisc/cosmos/dss/GF/MICRISTBOVRASTAT/GFTESTCD>,
        <https://w3id.org/cdisc/cosmos/dss/GF/MICRISTBOVRASTAT/GFTSTDTL> .

<https://w3id.org/cdisc/cosmos/dss/GF/SEQREAREADDEPTH> a cosmos_sdtm:SDTMGroup ;
    dcterms:identifier "SEQREAREADDEPTH" ;
    rdf:_1 <https://w3id.org/cdisc/cosmos/dss/GF/SEQREAREADDEPTH/GFTESTCD> ;
    rdf:_10 <https://w3id.org/cdisc/cosmos/dss/GF/SEQREAREADDEPTH/GFCHROM> ;
    rdf:_11 <https://w3id.org/cdisc/cosmos/dss/GF/SEQREAREADDEPTH/GFSYM> ;
    rdf:_12 <https://w3id.org/cdisc/cosmos/dss/GF/SEQREAREADDEPTH/GFSYMTYP> ;
    rdf:_13 <https://w3id.org/cdisc/cosmos/dss/GF/SEQREAREADDEPTH/GFGENLOC> ;
    rdf:_14 <https://w3id.org/cdisc/cosmos/dss/GF/SEQREAREADDEPTH/GFGENSR> ;
    rdf:_15 <https://w3id.org/cdisc/cosmos/dss/GF/SEQREAREADDEPTH/GFSEQID> ;
    rdf:_16 <https://w3id.org/cdisc/cosmos/dss/GF/SEQREAREADDEPTH/GFPRVID> ;
    rdf:_17 <https://w3id.org/cdisc/cosmos/dss/GF/SEQREAREADDEPTH/GFSPEC> ;
    rdf:_18 <https://w3id.org/cdisc/cosmos/dss/GF/SEQREAREADDEPTH/GFMETHOD> ;
    rdf:_19 <https://w3id.org/cdisc/cosmos/dss/GF/SEQREAREADDEPTH/GFDTC> ;
    rdf:_2 <https://w3id.org/cdisc/cosmos/dss/GF/SEQREAREADDEPTH/GFTEST> ;
    rdf:_3 <https://w3id.org/cdisc/cosmos/dss/GF/SEQREAREADDEPTH/GFTSTDTL> ;
    rdf:_4 <https://w3id.org/cdisc/cosmos/dss/GF/SEQREAREADDEPTH/GFCAT> ;
    rdf:_5 <https://w3id.org/cdisc/cosmos/dss/GF/SEQREAREADDEPTH/GFORRES> ;
    rdf:_6 <https://w3id.org/cdisc/cosmos/dss/GF/SEQREAREADDEPTH/GFSTRESN> ;
    rdf:_7 <https://w3id.org/cdisc/cosmos/dss/GF/SEQREAREADDEPTH/GFSTRESC> ;
    rdf:_8 <https://w3id.org/cdisc/cosmos/dss/GF/SEQREAREADDEPTH/GFINHERT> ;
    rdf:_9 <https://w3id.org/cdisc/cosmos/dss/GF/SEQREAREADDEPTH/GFGENREF> ;
    cosmos_sdtm:biomedicalConceptId NCIT:C189439 ;
    cosmos_sdtm:domain "GF" ;
    cosmos_sdtm:packageDate "2026-05-26"^^xsd:date ;
    cosmos_sdtm:packageType <https://www.cdisc.org/cosmos/sdtm_v1.0/PackageTypeEnum#sdtm> ;
    cosmos_sdtm:sdtmigStartVersion "3-4" ;
    cosmos_sdtm:shortName "Sequence Rearrangement Read Depth" ;
    cosmos_sdtm:source "GF.GFTESTCD" ;
    cosmos_sdtm:variables <https://w3id.org/cdisc/cosmos/dss/GF/SEQREAREADDEPTH/GFCAT>,
        <https://w3id.org/cdisc/cosmos/dss/GF/SEQREAREADDEPTH/GFCHROM>,
        <https://w3id.org/cdisc/cosmos/dss/GF/SEQREAREADDEPTH/GFDTC>,
        <https://w3id.org/cdisc/cosmos/dss/GF/SEQREAREADDEPTH/GFGENLOC>,
        <https://w3id.org/cdisc/cosmos/dss/GF/SEQREAREADDEPTH/GFGENREF>,
        <https://w3id.org/cdisc/cosmos/dss/GF/SEQREAREADDEPTH/GFGENSR>,
        <https://w3id.org/cdisc/cosmos/dss/GF/SEQREAREADDEPTH/GFINHERT>,
        <https://w3id.org/cdisc/cosmos/dss/GF/SEQREAREADDEPTH/GFMETHOD>,
        <https://w3id.org/cdisc/cosmos/dss/GF/SEQREAREADDEPTH/GFORRES>,
        <https://w3id.org/cdisc/cosmos/dss/GF/SEQREAREADDEPTH/GFPRVID>,
        <https://w3id.org/cdisc/cosmos/dss/GF/SEQREAREADDEPTH/GFSEQID>,
        <https://w3id.org/cdisc/cosmos/dss/GF/SEQREAREADDEPTH/GFSPEC>,
        <https://w3id.org/cdisc/cosmos/dss/GF/SEQREAREADDEPTH/GFSTRESC>,
        <https://w3id.org/cdisc/cosmos/dss/GF/SEQREAREADDEPTH/GFSTRESN>,
        <https://w3id.org/cdisc/cosmos/dss/GF/SEQREAREADDEPTH/GFSYM>,
        <https://w3id.org/cdisc/cosmos/dss/GF/SEQREAREADDEPTH/GFSYMTYP>,
        <https://w3id.org/cdisc/cosmos/dss/GF/SEQREAREADDEPTH/GFTEST>,
        <https://w3id.org/cdisc/cosmos/dss/GF/SEQREAREADDEPTH/GFTESTCD>,
        <https://w3id.org/cdisc/cosmos/dss/GF/SEQREAREADDEPTH/GFTSTDTL> .

<https://w3id.org/cdisc/cosmos/dss/GF/SEQREARGENE1> a cosmos_sdtm:SDTMGroup ;
    dcterms:identifier "SEQREARGENE1" ;
    rdf:_1 <https://w3id.org/cdisc/cosmos/dss/GF/SEQREARGENE1/GFTESTCD> ;
    rdf:_10 <https://w3id.org/cdisc/cosmos/dss/GF/SEQREARGENE1/GFSYM> ;
    rdf:_11 <https://w3id.org/cdisc/cosmos/dss/GF/SEQREARGENE1/GFSYMTYP> ;
    rdf:_12 <https://w3id.org/cdisc/cosmos/dss/GF/SEQREARGENE1/GFGENLOC> ;
    rdf:_13 <https://w3id.org/cdisc/cosmos/dss/GF/SEQREARGENE1/GFGENSR> ;
    rdf:_14 <https://w3id.org/cdisc/cosmos/dss/GF/SEQREARGENE1/GFSEQID> ;
    rdf:_15 <https://w3id.org/cdisc/cosmos/dss/GF/SEQREARGENE1/GFPRVID> ;
    rdf:_16 <https://w3id.org/cdisc/cosmos/dss/GF/SEQREARGENE1/GFSPEC> ;
    rdf:_17 <https://w3id.org/cdisc/cosmos/dss/GF/SEQREARGENE1/GFMETHOD> ;
    rdf:_18 <https://w3id.org/cdisc/cosmos/dss/GF/SEQREARGENE1/GFDTC> ;
    rdf:_2 <https://w3id.org/cdisc/cosmos/dss/GF/SEQREARGENE1/GFTEST> ;
    rdf:_3 <https://w3id.org/cdisc/cosmos/dss/GF/SEQREARGENE1/GFTSTDTL> ;
    rdf:_4 <https://w3id.org/cdisc/cosmos/dss/GF/SEQREARGENE1/GFCAT> ;
    rdf:_5 <https://w3id.org/cdisc/cosmos/dss/GF/SEQREARGENE1/GFORRES> ;
    rdf:_6 <https://w3id.org/cdisc/cosmos/dss/GF/SEQREARGENE1/GFSTRESC> ;
    rdf:_7 <https://w3id.org/cdisc/cosmos/dss/GF/SEQREARGENE1/GFINHERT> ;
    rdf:_8 <https://w3id.org/cdisc/cosmos/dss/GF/SEQREARGENE1/GFGENREF> ;
    rdf:_9 <https://w3id.org/cdisc/cosmos/dss/GF/SEQREARGENE1/GFCHROM> ;
    cosmos_sdtm:biomedicalConceptId NCIT:C189439 ;
    cosmos_sdtm:domain "GF" ;
    cosmos_sdtm:packageDate "2026-05-26"^^xsd:date ;
    cosmos_sdtm:packageType <https://www.cdisc.org/cosmos/sdtm_v1.0/PackageTypeEnum#sdtm> ;
    cosmos_sdtm:sdtmigStartVersion "3-4" ;
    cosmos_sdtm:shortName "Sequence Rearrangement Gene 1" ;
    cosmos_sdtm:source "GF.GFTESTCD" ;
    cosmos_sdtm:variables <https://w3id.org/cdisc/cosmos/dss/GF/SEQREARGENE1/GFCAT>,
        <https://w3id.org/cdisc/cosmos/dss/GF/SEQREARGENE1/GFCHROM>,
        <https://w3id.org/cdisc/cosmos/dss/GF/SEQREARGENE1/GFDTC>,
        <https://w3id.org/cdisc/cosmos/dss/GF/SEQREARGENE1/GFGENLOC>,
        <https://w3id.org/cdisc/cosmos/dss/GF/SEQREARGENE1/GFGENREF>,
        <https://w3id.org/cdisc/cosmos/dss/GF/SEQREARGENE1/GFGENSR>,
        <https://w3id.org/cdisc/cosmos/dss/GF/SEQREARGENE1/GFINHERT>,
        <https://w3id.org/cdisc/cosmos/dss/GF/SEQREARGENE1/GFMETHOD>,
        <https://w3id.org/cdisc/cosmos/dss/GF/SEQREARGENE1/GFORRES>,
        <https://w3id.org/cdisc/cosmos/dss/GF/SEQREARGENE1/GFPRVID>,
        <https://w3id.org/cdisc/cosmos/dss/GF/SEQREARGENE1/GFSEQID>,
        <https://w3id.org/cdisc/cosmos/dss/GF/SEQREARGENE1/GFSPEC>,
        <https://w3id.org/cdisc/cosmos/dss/GF/SEQREARGENE1/GFSTRESC>,
        <https://w3id.org/cdisc/cosmos/dss/GF/SEQREARGENE1/GFSYM>,
        <https://w3id.org/cdisc/cosmos/dss/GF/SEQREARGENE1/GFSYMTYP>,
        <https://w3id.org/cdisc/cosmos/dss/GF/SEQREARGENE1/GFTEST>,
        <https://w3id.org/cdisc/cosmos/dss/GF/SEQREARGENE1/GFTESTCD>,
        <https://w3id.org/cdisc/cosmos/dss/GF/SEQREARGENE1/GFTSTDTL> .

<https://w3id.org/cdisc/cosmos/dss/GF/SEQREARGENE2> a cosmos_sdtm:SDTMGroup ;
    dcterms:identifier "SEQREARGENE2" ;
    rdf:_1 <https://w3id.org/cdisc/cosmos/dss/GF/SEQREARGENE2/GFTESTCD> ;
    rdf:_10 <https://w3id.org/cdisc/cosmos/dss/GF/SEQREARGENE2/GFSYM> ;
    rdf:_11 <https://w3id.org/cdisc/cosmos/dss/GF/SEQREARGENE2/GFSYMTYP> ;
    rdf:_12 <https://w3id.org/cdisc/cosmos/dss/GF/SEQREARGENE2/GFGENLOC> ;
    rdf:_13 <https://w3id.org/cdisc/cosmos/dss/GF/SEQREARGENE2/GFGENSR> ;
    rdf:_14 <https://w3id.org/cdisc/cosmos/dss/GF/SEQREARGENE2/GFSEQID> ;
    rdf:_15 <https://w3id.org/cdisc/cosmos/dss/GF/SEQREARGENE2/GFPRVID> ;
    rdf:_16 <https://w3id.org/cdisc/cosmos/dss/GF/SEQREARGENE2/GFSPEC> ;
    rdf:_17 <https://w3id.org/cdisc/cosmos/dss/GF/SEQREARGENE2/GFMETHOD> ;
    rdf:_18 <https://w3id.org/cdisc/cosmos/dss/GF/SEQREARGENE2/GFDTC> ;
    rdf:_2 <https://w3id.org/cdisc/cosmos/dss/GF/SEQREARGENE2/GFTEST> ;
    rdf:_3 <https://w3id.org/cdisc/cosmos/dss/GF/SEQREARGENE2/GFTSTDTL> ;
    rdf:_4 <https://w3id.org/cdisc/cosmos/dss/GF/SEQREARGENE2/GFCAT> ;
    rdf:_5 <https://w3id.org/cdisc/cosmos/dss/GF/SEQREARGENE2/GFORRES> ;
    rdf:_6 <https://w3id.org/cdisc/cosmos/dss/GF/SEQREARGENE2/GFSTRESC> ;
    rdf:_7 <https://w3id.org/cdisc/cosmos/dss/GF/SEQREARGENE2/GFINHERT> ;
    rdf:_8 <https://w3id.org/cdisc/cosmos/dss/GF/SEQREARGENE2/GFGENREF> ;
    rdf:_9 <https://w3id.org/cdisc/cosmos/dss/GF/SEQREARGENE2/GFCHROM> ;
    cosmos_sdtm:biomedicalConceptId NCIT:C189439 ;
    cosmos_sdtm:domain "GF" ;
    cosmos_sdtm:packageDate "2026-05-26"^^xsd:date ;
    cosmos_sdtm:packageType <https://www.cdisc.org/cosmos/sdtm_v1.0/PackageTypeEnum#sdtm> ;
    cosmos_sdtm:sdtmigStartVersion "3-4" ;
    cosmos_sdtm:shortName "Sequence Rearrangement Gene 2" ;
    cosmos_sdtm:source "GF.GFTESTCD" ;
    cosmos_sdtm:variables <https://w3id.org/cdisc/cosmos/dss/GF/SEQREARGENE2/GFCAT>,
        <https://w3id.org/cdisc/cosmos/dss/GF/SEQREARGENE2/GFCHROM>,
        <https://w3id.org/cdisc/cosmos/dss/GF/SEQREARGENE2/GFDTC>,
        <https://w3id.org/cdisc/cosmos/dss/GF/SEQREARGENE2/GFGENLOC>,
        <https://w3id.org/cdisc/cosmos/dss/GF/SEQREARGENE2/GFGENREF>,
        <https://w3id.org/cdisc/cosmos/dss/GF/SEQREARGENE2/GFGENSR>,
        <https://w3id.org/cdisc/cosmos/dss/GF/SEQREARGENE2/GFINHERT>,
        <https://w3id.org/cdisc/cosmos/dss/GF/SEQREARGENE2/GFMETHOD>,
        <https://w3id.org/cdisc/cosmos/dss/GF/SEQREARGENE2/GFORRES>,
        <https://w3id.org/cdisc/cosmos/dss/GF/SEQREARGENE2/GFPRVID>,
        <https://w3id.org/cdisc/cosmos/dss/GF/SEQREARGENE2/GFSEQID>,
        <https://w3id.org/cdisc/cosmos/dss/GF/SEQREARGENE2/GFSPEC>,
        <https://w3id.org/cdisc/cosmos/dss/GF/SEQREARGENE2/GFSTRESC>,
        <https://w3id.org/cdisc/cosmos/dss/GF/SEQREARGENE2/GFSYM>,
        <https://w3id.org/cdisc/cosmos/dss/GF/SEQREARGENE2/GFSYMTYP>,
        <https://w3id.org/cdisc/cosmos/dss/GF/SEQREARGENE2/GFTEST>,
        <https://w3id.org/cdisc/cosmos/dss/GF/SEQREARGENE2/GFTESTCD>,
        <https://w3id.org/cdisc/cosmos/dss/GF/SEQREARGENE2/GFTSTDTL> .

<https://w3id.org/cdisc/cosmos/dss/GF/SEQREARIMPCLASS> a cosmos_sdtm:SDTMGroup ;
    dcterms:identifier "SEQREARIMPCLASS" ;
    rdf:_1 <https://w3id.org/cdisc/cosmos/dss/GF/SEQREARIMPCLASS/GFTESTCD> ;
    rdf:_10 <https://w3id.org/cdisc/cosmos/dss/GF/SEQREARIMPCLASS/GFSYM> ;
    rdf:_11 <https://w3id.org/cdisc/cosmos/dss/GF/SEQREARIMPCLASS/GFSYMTYP> ;
    rdf:_12 <https://w3id.org/cdisc/cosmos/dss/GF/SEQREARIMPCLASS/GFGENLOC> ;
    rdf:_13 <https://w3id.org/cdisc/cosmos/dss/GF/SEQREARIMPCLASS/GFGENSR> ;
    rdf:_14 <https://w3id.org/cdisc/cosmos/dss/GF/SEQREARIMPCLASS/GFSEQID> ;
    rdf:_15 <https://w3id.org/cdisc/cosmos/dss/GF/SEQREARIMPCLASS/GFPRVID> ;
    rdf:_16 <https://w3id.org/cdisc/cosmos/dss/GF/SEQREARIMPCLASS/GFSPEC> ;
    rdf:_17 <https://w3id.org/cdisc/cosmos/dss/GF/SEQREARIMPCLASS/GFMETHOD> ;
    rdf:_18 <https://w3id.org/cdisc/cosmos/dss/GF/SEQREARIMPCLASS/GFDTC> ;
    rdf:_2 <https://w3id.org/cdisc/cosmos/dss/GF/SEQREARIMPCLASS/GFTEST> ;
    rdf:_3 <https://w3id.org/cdisc/cosmos/dss/GF/SEQREARIMPCLASS/GFTSTDTL> ;
    rdf:_4 <https://w3id.org/cdisc/cosmos/dss/GF/SEQREARIMPCLASS/GFCAT> ;
    rdf:_5 <https://w3id.org/cdisc/cosmos/dss/GF/SEQREARIMPCLASS/GFORRES> ;
    rdf:_6 <https://w3id.org/cdisc/cosmos/dss/GF/SEQREARIMPCLASS/GFSTRESC> ;
    rdf:_7 <https://w3id.org/cdisc/cosmos/dss/GF/SEQREARIMPCLASS/GFINHERT> ;
    rdf:_8 <https://w3id.org/cdisc/cosmos/dss/GF/SEQREARIMPCLASS/GFGENREF> ;
    rdf:_9 <https://w3id.org/cdisc/cosmos/dss/GF/SEQREARIMPCLASS/GFCHROM> ;
    cosmos_sdtm:biomedicalConceptId NCIT:C189439 ;
    cosmos_sdtm:domain "GF" ;
    cosmos_sdtm:packageDate "2026-05-26"^^xsd:date ;
    cosmos_sdtm:packageType <https://www.cdisc.org/cosmos/sdtm_v1.0/PackageTypeEnum#sdtm> ;
    cosmos_sdtm:sdtmigStartVersion "3-4" ;
    cosmos_sdtm:shortName "Sequence Rearrangement Impact Classification" ;
    cosmos_sdtm:source "GF.GFTESTCD" ;
    cosmos_sdtm:variables <https://w3id.org/cdisc/cosmos/dss/GF/SEQREARIMPCLASS/GFCAT>,
        <https://w3id.org/cdisc/cosmos/dss/GF/SEQREARIMPCLASS/GFCHROM>,
        <https://w3id.org/cdisc/cosmos/dss/GF/SEQREARIMPCLASS/GFDTC>,
        <https://w3id.org/cdisc/cosmos/dss/GF/SEQREARIMPCLASS/GFGENLOC>,
        <https://w3id.org/cdisc/cosmos/dss/GF/SEQREARIMPCLASS/GFGENREF>,
        <https://w3id.org/cdisc/cosmos/dss/GF/SEQREARIMPCLASS/GFGENSR>,
        <https://w3id.org/cdisc/cosmos/dss/GF/SEQREARIMPCLASS/GFINHERT>,
        <https://w3id.org/cdisc/cosmos/dss/GF/SEQREARIMPCLASS/GFMETHOD>,
        <https://w3id.org/cdisc/cosmos/dss/GF/SEQREARIMPCLASS/GFORRES>,
        <https://w3id.org/cdisc/cosmos/dss/GF/SEQREARIMPCLASS/GFPRVID>,
        <https://w3id.org/cdisc/cosmos/dss/GF/SEQREARIMPCLASS/GFSEQID>,
        <https://w3id.org/cdisc/cosmos/dss/GF/SEQREARIMPCLASS/GFSPEC>,
        <https://w3id.org/cdisc/cosmos/dss/GF/SEQREARIMPCLASS/GFSTRESC>,
        <https://w3id.org/cdisc/cosmos/dss/GF/SEQREARIMPCLASS/GFSYM>,
        <https://w3id.org/cdisc/cosmos/dss/GF/SEQREARIMPCLASS/GFSYMTYP>,
        <https://w3id.org/cdisc/cosmos/dss/GF/SEQREARIMPCLASS/GFTEST>,
        <https://w3id.org/cdisc/cosmos/dss/GF/SEQREARIMPCLASS/GFTESTCD>,
        <https://w3id.org/cdisc/cosmos/dss/GF/SEQREARIMPCLASS/GFTSTDTL> .

<https://w3id.org/cdisc/cosmos/dss/GF/SEQREARPREINFRIND> a cosmos_sdtm:SDTMGroup ;
    dcterms:identifier "SEQREARPREINFRIND" ;
    rdf:_1 <https://w3id.org/cdisc/cosmos/dss/GF/SEQREARPREINFRIND/GFTESTCD> ;
    rdf:_10 <https://w3id.org/cdisc/cosmos/dss/GF/SEQREARPREINFRIND/GFSYM> ;
    rdf:_11 <https://w3id.org/cdisc/cosmos/dss/GF/SEQREARPREINFRIND/GFSYMTYP> ;
    rdf:_12 <https://w3id.org/cdisc/cosmos/dss/GF/SEQREARPREINFRIND/GFGENLOC> ;
    rdf:_13 <https://w3id.org/cdisc/cosmos/dss/GF/SEQREARPREINFRIND/GFGENSR> ;
    rdf:_14 <https://w3id.org/cdisc/cosmos/dss/GF/SEQREARPREINFRIND/GFSEQID> ;
    rdf:_15 <https://w3id.org/cdisc/cosmos/dss/GF/SEQREARPREINFRIND/GFPRVID> ;
    rdf:_16 <https://w3id.org/cdisc/cosmos/dss/GF/SEQREARPREINFRIND/GFSPEC> ;
    rdf:_17 <https://w3id.org/cdisc/cosmos/dss/GF/SEQREARPREINFRIND/GFMETHOD> ;
    rdf:_18 <https://w3id.org/cdisc/cosmos/dss/GF/SEQREARPREINFRIND/GFDTC> ;
    rdf:_2 <https://w3id.org/cdisc/cosmos/dss/GF/SEQREARPREINFRIND/GFTEST> ;
    rdf:_3 <https://w3id.org/cdisc/cosmos/dss/GF/SEQREARPREINFRIND/GFTSTDTL> ;
    rdf:_4 <https://w3id.org/cdisc/cosmos/dss/GF/SEQREARPREINFRIND/GFCAT> ;
    rdf:_5 <https://w3id.org/cdisc/cosmos/dss/GF/SEQREARPREINFRIND/GFORRES> ;
    rdf:_6 <https://w3id.org/cdisc/cosmos/dss/GF/SEQREARPREINFRIND/GFSTRESC> ;
    rdf:_7 <https://w3id.org/cdisc/cosmos/dss/GF/SEQREARPREINFRIND/GFINHERT> ;
    rdf:_8 <https://w3id.org/cdisc/cosmos/dss/GF/SEQREARPREINFRIND/GFGENREF> ;
    rdf:_9 <https://w3id.org/cdisc/cosmos/dss/GF/SEQREARPREINFRIND/GFCHROM> ;
    cosmos_sdtm:biomedicalConceptId NCIT:C189439 ;
    cosmos_sdtm:domain "GF" ;
    cosmos_sdtm:packageDate "2026-05-26"^^xsd:date ;
    cosmos_sdtm:packageType <https://www.cdisc.org/cosmos/sdtm_v1.0/PackageTypeEnum#sdtm> ;
    cosmos_sdtm:sdtmigStartVersion "3-4" ;
    cosmos_sdtm:shortName "Sequence Rearrangement Predicted In frame Indicator" ;
    cosmos_sdtm:source "GF.GFTESTCD" ;
    cosmos_sdtm:variables <https://w3id.org/cdisc/cosmos/dss/GF/SEQREARPREINFRIND/GFCAT>,
        <https://w3id.org/cdisc/cosmos/dss/GF/SEQREARPREINFRIND/GFCHROM>,
        <https://w3id.org/cdisc/cosmos/dss/GF/SEQREARPREINFRIND/GFDTC>,
        <https://w3id.org/cdisc/cosmos/dss/GF/SEQREARPREINFRIND/GFGENLOC>,
        <https://w3id.org/cdisc/cosmos/dss/GF/SEQREARPREINFRIND/GFGENREF>,
        <https://w3id.org/cdisc/cosmos/dss/GF/SEQREARPREINFRIND/GFGENSR>,
        <https://w3id.org/cdisc/cosmos/dss/GF/SEQREARPREINFRIND/GFINHERT>,
        <https://w3id.org/cdisc/cosmos/dss/GF/SEQREARPREINFRIND/GFMETHOD>,
        <https://w3id.org/cdisc/cosmos/dss/GF/SEQREARPREINFRIND/GFORRES>,
        <https://w3id.org/cdisc/cosmos/dss/GF/SEQREARPREINFRIND/GFPRVID>,
        <https://w3id.org/cdisc/cosmos/dss/GF/SEQREARPREINFRIND/GFSEQID>,
        <https://w3id.org/cdisc/cosmos/dss/GF/SEQREARPREINFRIND/GFSPEC>,
        <https://w3id.org/cdisc/cosmos/dss/GF/SEQREARPREINFRIND/GFSTRESC>,
        <https://w3id.org/cdisc/cosmos/dss/GF/SEQREARPREINFRIND/GFSYM>,
        <https://w3id.org/cdisc/cosmos/dss/GF/SEQREARPREINFRIND/GFSYMTYP>,
        <https://w3id.org/cdisc/cosmos/dss/GF/SEQREARPREINFRIND/GFTEST>,
        <https://w3id.org/cdisc/cosmos/dss/GF/SEQREARPREINFRIND/GFTESTCD>,
        <https://w3id.org/cdisc/cosmos/dss/GF/SEQREARPREINFRIND/GFTSTDTL> .

<https://w3id.org/cdisc/cosmos/dss/GF/SEQREARTYPE> a cosmos_sdtm:SDTMGroup ;
    dcterms:identifier "SEQREARTYPE" ;
    rdf:_1 <https://w3id.org/cdisc/cosmos/dss/GF/SEQREARTYPE/GFTESTCD> ;
    rdf:_10 <https://w3id.org/cdisc/cosmos/dss/GF/SEQREARTYPE/GFSYM> ;
    rdf:_11 <https://w3id.org/cdisc/cosmos/dss/GF/SEQREARTYPE/GFSYMTYP> ;
    rdf:_12 <https://w3id.org/cdisc/cosmos/dss/GF/SEQREARTYPE/GFGENLOC> ;
    rdf:_13 <https://w3id.org/cdisc/cosmos/dss/GF/SEQREARTYPE/GFGENSR> ;
    rdf:_14 <https://w3id.org/cdisc/cosmos/dss/GF/SEQREARTYPE/GFSEQID> ;
    rdf:_15 <https://w3id.org/cdisc/cosmos/dss/GF/SEQREARTYPE/GFPRVID> ;
    rdf:_16 <https://w3id.org/cdisc/cosmos/dss/GF/SEQREARTYPE/GFSPEC> ;
    rdf:_17 <https://w3id.org/cdisc/cosmos/dss/GF/SEQREARTYPE/GFMETHOD> ;
    rdf:_18 <https://w3id.org/cdisc/cosmos/dss/GF/SEQREARTYPE/GFDTC> ;
    rdf:_2 <https://w3id.org/cdisc/cosmos/dss/GF/SEQREARTYPE/GFTEST> ;
    rdf:_3 <https://w3id.org/cdisc/cosmos/dss/GF/SEQREARTYPE/GFTSTDTL> ;
    rdf:_4 <https://w3id.org/cdisc/cosmos/dss/GF/SEQREARTYPE/GFCAT> ;
    rdf:_5 <https://w3id.org/cdisc/cosmos/dss/GF/SEQREARTYPE/GFORRES> ;
    rdf:_6 <https://w3id.org/cdisc/cosmos/dss/GF/SEQREARTYPE/GFSTRESC> ;
    rdf:_7 <https://w3id.org/cdisc/cosmos/dss/GF/SEQREARTYPE/GFINHERT> ;
    rdf:_8 <https://w3id.org/cdisc/cosmos/dss/GF/SEQREARTYPE/GFGENREF> ;
    rdf:_9 <https://w3id.org/cdisc/cosmos/dss/GF/SEQREARTYPE/GFCHROM> ;
    cosmos_sdtm:biomedicalConceptId NCIT:C189439 ;
    cosmos_sdtm:domain "GF" ;
    cosmos_sdtm:packageDate "2026-05-26"^^xsd:date ;
    cosmos_sdtm:packageType <https://www.cdisc.org/cosmos/sdtm_v1.0/PackageTypeEnum#sdtm> ;
    cosmos_sdtm:sdtmigStartVersion "3-4" ;
    cosmos_sdtm:shortName "Sequence Rearrangement Type" ;
    cosmos_sdtm:source "GF.GFTESTCD" ;
    cosmos_sdtm:variables <https://w3id.org/cdisc/cosmos/dss/GF/SEQREARTYPE/GFCAT>,
        <https://w3id.org/cdisc/cosmos/dss/GF/SEQREARTYPE/GFCHROM>,
        <https://w3id.org/cdisc/cosmos/dss/GF/SEQREARTYPE/GFDTC>,
        <https://w3id.org/cdisc/cosmos/dss/GF/SEQREARTYPE/GFGENLOC>,
        <https://w3id.org/cdisc/cosmos/dss/GF/SEQREARTYPE/GFGENREF>,
        <https://w3id.org/cdisc/cosmos/dss/GF/SEQREARTYPE/GFGENSR>,
        <https://w3id.org/cdisc/cosmos/dss/GF/SEQREARTYPE/GFINHERT>,
        <https://w3id.org/cdisc/cosmos/dss/GF/SEQREARTYPE/GFMETHOD>,
        <https://w3id.org/cdisc/cosmos/dss/GF/SEQREARTYPE/GFORRES>,
        <https://w3id.org/cdisc/cosmos/dss/GF/SEQREARTYPE/GFPRVID>,
        <https://w3id.org/cdisc/cosmos/dss/GF/SEQREARTYPE/GFSEQID>,
        <https://w3id.org/cdisc/cosmos/dss/GF/SEQREARTYPE/GFSPEC>,
        <https://w3id.org/cdisc/cosmos/dss/GF/SEQREARTYPE/GFSTRESC>,
        <https://w3id.org/cdisc/cosmos/dss/GF/SEQREARTYPE/GFSYM>,
        <https://w3id.org/cdisc/cosmos/dss/GF/SEQREARTYPE/GFSYMTYP>,
        <https://w3id.org/cdisc/cosmos/dss/GF/SEQREARTYPE/GFTEST>,
        <https://w3id.org/cdisc/cosmos/dss/GF/SEQREARTYPE/GFTESTCD>,
        <https://w3id.org/cdisc/cosmos/dss/GF/SEQREARTYPE/GFTSTDTL> .

<https://w3id.org/cdisc/cosmos/dss/GF/SHRTVAREADEPTH> a cosmos_sdtm:SDTMGroup ;
    dcterms:identifier "SHRTVAREADEPTH" ;
    rdf:_1 <https://w3id.org/cdisc/cosmos/dss/GF/SHRTVAREADEPTH/GFTESTCD> ;
    rdf:_10 <https://w3id.org/cdisc/cosmos/dss/GF/SHRTVAREADEPTH/GFSYM> ;
    rdf:_11 <https://w3id.org/cdisc/cosmos/dss/GF/SHRTVAREADEPTH/GFSYMTYP> ;
    rdf:_12 <https://w3id.org/cdisc/cosmos/dss/GF/SHRTVAREADEPTH/GFGENLOC> ;
    rdf:_13 <https://w3id.org/cdisc/cosmos/dss/GF/SHRTVAREADEPTH/GFGENSR> ;
    rdf:_14 <https://w3id.org/cdisc/cosmos/dss/GF/SHRTVAREADEPTH/GFSPEC> ;
    rdf:_15 <https://w3id.org/cdisc/cosmos/dss/GF/SHRTVAREADEPTH/GFMETHOD> ;
    rdf:_16 <https://w3id.org/cdisc/cosmos/dss/GF/SHRTVAREADEPTH/GFDTC> ;
    rdf:_2 <https://w3id.org/cdisc/cosmos/dss/GF/SHRTVAREADEPTH/GFTEST> ;
    rdf:_3 <https://w3id.org/cdisc/cosmos/dss/GF/SHRTVAREADEPTH/GFTSTDTL> ;
    rdf:_4 <https://w3id.org/cdisc/cosmos/dss/GF/SHRTVAREADEPTH/GFCAT> ;
    rdf:_5 <https://w3id.org/cdisc/cosmos/dss/GF/SHRTVAREADEPTH/GFORRES> ;
    rdf:_6 <https://w3id.org/cdisc/cosmos/dss/GF/SHRTVAREADEPTH/GFSTRESC> ;
    rdf:_7 <https://w3id.org/cdisc/cosmos/dss/GF/SHRTVAREADEPTH/GFSTRESN> ;
    rdf:_8 <https://w3id.org/cdisc/cosmos/dss/GF/SHRTVAREADEPTH/GFGENREF> ;
    rdf:_9 <https://w3id.org/cdisc/cosmos/dss/GF/SHRTVAREADEPTH/GFCHROM> ;
    cosmos_sdtm:biomedicalConceptId NCIT:C181334 ;
    cosmos_sdtm:domain "GF" ;
    cosmos_sdtm:packageDate "2026-05-26"^^xsd:date ;
    cosmos_sdtm:packageType <https://www.cdisc.org/cosmos/sdtm_v1.0/PackageTypeEnum#sdtm> ;
    cosmos_sdtm:sdtmigStartVersion "3-4" ;
    cosmos_sdtm:shortName "Short Variation Assessment Read Depth" ;
    cosmos_sdtm:source "GF.GFTESTCD" ;
    cosmos_sdtm:variables <https://w3id.org/cdisc/cosmos/dss/GF/SHRTVAREADEPTH/GFCAT>,
        <https://w3id.org/cdisc/cosmos/dss/GF/SHRTVAREADEPTH/GFCHROM>,
        <https://w3id.org/cdisc/cosmos/dss/GF/SHRTVAREADEPTH/GFDTC>,
        <https://w3id.org/cdisc/cosmos/dss/GF/SHRTVAREADEPTH/GFGENLOC>,
        <https://w3id.org/cdisc/cosmos/dss/GF/SHRTVAREADEPTH/GFGENREF>,
        <https://w3id.org/cdisc/cosmos/dss/GF/SHRTVAREADEPTH/GFGENSR>,
        <https://w3id.org/cdisc/cosmos/dss/GF/SHRTVAREADEPTH/GFMETHOD>,
        <https://w3id.org/cdisc/cosmos/dss/GF/SHRTVAREADEPTH/GFORRES>,
        <https://w3id.org/cdisc/cosmos/dss/GF/SHRTVAREADEPTH/GFSPEC>,
        <https://w3id.org/cdisc/cosmos/dss/GF/SHRTVAREADEPTH/GFSTRESC>,
        <https://w3id.org/cdisc/cosmos/dss/GF/SHRTVAREADEPTH/GFSTRESN>,
        <https://w3id.org/cdisc/cosmos/dss/GF/SHRTVAREADEPTH/GFSYM>,
        <https://w3id.org/cdisc/cosmos/dss/GF/SHRTVAREADEPTH/GFSYMTYP>,
        <https://w3id.org/cdisc/cosmos/dss/GF/SHRTVAREADEPTH/GFTEST>,
        <https://w3id.org/cdisc/cosmos/dss/GF/SHRTVAREADEPTH/GFTESTCD>,
        <https://w3id.org/cdisc/cosmos/dss/GF/SHRTVAREADEPTH/GFTSTDTL> .

<https://w3id.org/cdisc/cosmos/dss/GF/SHRTVAREADEPTHRD> a cosmos_sdtm:SDTMGroup ;
    dcterms:identifier "SHRTVAREADEPTHRD" ;
    rdf:_1 <https://w3id.org/cdisc/cosmos/dss/GF/SHRTVAREADEPTHRD/GFTESTCD> ;
    rdf:_10 <https://w3id.org/cdisc/cosmos/dss/GF/SHRTVAREADEPTHRD/GFGENREF> ;
    rdf:_11 <https://w3id.org/cdisc/cosmos/dss/GF/SHRTVAREADEPTHRD/GFCHROM> ;
    rdf:_12 <https://w3id.org/cdisc/cosmos/dss/GF/SHRTVAREADEPTHRD/GFSYM> ;
    rdf:_13 <https://w3id.org/cdisc/cosmos/dss/GF/SHRTVAREADEPTHRD/GFSYMTYP> ;
    rdf:_14 <https://w3id.org/cdisc/cosmos/dss/GF/SHRTVAREADEPTHRD/GFGENLOC> ;
    rdf:_15 <https://w3id.org/cdisc/cosmos/dss/GF/SHRTVAREADEPTHRD/GFGENSR> ;
    rdf:_16 <https://w3id.org/cdisc/cosmos/dss/GF/SHRTVAREADEPTHRD/GFSPEC> ;
    rdf:_17 <https://w3id.org/cdisc/cosmos/dss/GF/SHRTVAREADEPTHRD/GFMETHOD> ;
    rdf:_18 <https://w3id.org/cdisc/cosmos/dss/GF/SHRTVAREADEPTHRD/GFDTC> ;
    rdf:_2 <https://w3id.org/cdisc/cosmos/dss/GF/SHRTVAREADEPTHRD/GFTEST> ;
    rdf:_3 <https://w3id.org/cdisc/cosmos/dss/GF/SHRTVAREADEPTHRD/GFTSTDTL> ;
    rdf:_4 <https://w3id.org/cdisc/cosmos/dss/GF/SHRTVAREADEPTHRD/GFCAT> ;
    rdf:_5 <https://w3id.org/cdisc/cosmos/dss/GF/SHRTVAREADEPTHRD/GFORRES> ;
    rdf:_6 <https://w3id.org/cdisc/cosmos/dss/GF/SHRTVAREADEPTHRD/GFORRESU> ;
    rdf:_7 <https://w3id.org/cdisc/cosmos/dss/GF/SHRTVAREADEPTHRD/GFSTRESC> ;
    rdf:_8 <https://w3id.org/cdisc/cosmos/dss/GF/SHRTVAREADEPTHRD/GFSTRESN> ;
    rdf:_9 <https://w3id.org/cdisc/cosmos/dss/GF/SHRTVAREADEPTHRD/GFSTRESU> ;
    cosmos_sdtm:biomedicalConceptId NCIT:C181334 ;
    cosmos_sdtm:domain "GF" ;
    cosmos_sdtm:packageDate "2026-05-26"^^xsd:date ;
    cosmos_sdtm:packageType <https://www.cdisc.org/cosmos/sdtm_v1.0/PackageTypeEnum#sdtm> ;
    cosmos_sdtm:sdtmigStartVersion "3-4" ;
    cosmos_sdtm:shortName "Short Variation Assessment Variant Read Depth/Read Depth" ;
    cosmos_sdtm:source "GF.GFTESTCD" ;
    cosmos_sdtm:variables <https://w3id.org/cdisc/cosmos/dss/GF/SHRTVAREADEPTHRD/GFCAT>,
        <https://w3id.org/cdisc/cosmos/dss/GF/SHRTVAREADEPTHRD/GFCHROM>,
        <https://w3id.org/cdisc/cosmos/dss/GF/SHRTVAREADEPTHRD/GFDTC>,
        <https://w3id.org/cdisc/cosmos/dss/GF/SHRTVAREADEPTHRD/GFGENLOC>,
        <https://w3id.org/cdisc/cosmos/dss/GF/SHRTVAREADEPTHRD/GFGENREF>,
        <https://w3id.org/cdisc/cosmos/dss/GF/SHRTVAREADEPTHRD/GFGENSR>,
        <https://w3id.org/cdisc/cosmos/dss/GF/SHRTVAREADEPTHRD/GFMETHOD>,
        <https://w3id.org/cdisc/cosmos/dss/GF/SHRTVAREADEPTHRD/GFORRES>,
        <https://w3id.org/cdisc/cosmos/dss/GF/SHRTVAREADEPTHRD/GFORRESU>,
        <https://w3id.org/cdisc/cosmos/dss/GF/SHRTVAREADEPTHRD/GFSPEC>,
        <https://w3id.org/cdisc/cosmos/dss/GF/SHRTVAREADEPTHRD/GFSTRESC>,
        <https://w3id.org/cdisc/cosmos/dss/GF/SHRTVAREADEPTHRD/GFSTRESN>,
        <https://w3id.org/cdisc/cosmos/dss/GF/SHRTVAREADEPTHRD/GFSTRESU>,
        <https://w3id.org/cdisc/cosmos/dss/GF/SHRTVAREADEPTHRD/GFSYM>,
        <https://w3id.org/cdisc/cosmos/dss/GF/SHRTVAREADEPTHRD/GFSYMTYP>,
        <https://w3id.org/cdisc/cosmos/dss/GF/SHRTVAREADEPTHRD/GFTEST>,
        <https://w3id.org/cdisc/cosmos/dss/GF/SHRTVAREADEPTHRD/GFTESTCD>,
        <https://w3id.org/cdisc/cosmos/dss/GF/SHRTVAREADEPTHRD/GFTSTDTL> .

<https://w3id.org/cdisc/cosmos/dss/GF/SHRTVARIMPCLASS> a cosmos_sdtm:SDTMGroup ;
    dcterms:identifier "SHRTVARIMPCLASS" ;
    rdf:_1 <https://w3id.org/cdisc/cosmos/dss/GF/SHRTVARIMPCLASS/GFTESTCD> ;
    rdf:_10 <https://w3id.org/cdisc/cosmos/dss/GF/SHRTVARIMPCLASS/GFSYMTYP> ;
    rdf:_11 <https://w3id.org/cdisc/cosmos/dss/GF/SHRTVARIMPCLASS/GFGENLOC> ;
    rdf:_12 <https://w3id.org/cdisc/cosmos/dss/GF/SHRTVARIMPCLASS/GFGENSR> ;
    rdf:_13 <https://w3id.org/cdisc/cosmos/dss/GF/SHRTVARIMPCLASS/GFSPEC> ;
    rdf:_14 <https://w3id.org/cdisc/cosmos/dss/GF/SHRTVARIMPCLASS/GFMETHOD> ;
    rdf:_15 <https://w3id.org/cdisc/cosmos/dss/GF/SHRTVARIMPCLASS/GFDTC> ;
    rdf:_2 <https://w3id.org/cdisc/cosmos/dss/GF/SHRTVARIMPCLASS/GFTEST> ;
    rdf:_3 <https://w3id.org/cdisc/cosmos/dss/GF/SHRTVARIMPCLASS/GFTSTDTL> ;
    rdf:_4 <https://w3id.org/cdisc/cosmos/dss/GF/SHRTVARIMPCLASS/GFCAT> ;
    rdf:_5 <https://w3id.org/cdisc/cosmos/dss/GF/SHRTVARIMPCLASS/GFORRES> ;
    rdf:_6 <https://w3id.org/cdisc/cosmos/dss/GF/SHRTVARIMPCLASS/GFSTRESC> ;
    rdf:_7 <https://w3id.org/cdisc/cosmos/dss/GF/SHRTVARIMPCLASS/GFGENREF> ;
    rdf:_8 <https://w3id.org/cdisc/cosmos/dss/GF/SHRTVARIMPCLASS/GFCHROM> ;
    rdf:_9 <https://w3id.org/cdisc/cosmos/dss/GF/SHRTVARIMPCLASS/GFSYM> ;
    cosmos_sdtm:biomedicalConceptId NCIT:C181334 ;
    cosmos_sdtm:domain "GF" ;
    cosmos_sdtm:packageDate "2026-05-26"^^xsd:date ;
    cosmos_sdtm:packageType <https://www.cdisc.org/cosmos/sdtm_v1.0/PackageTypeEnum#sdtm> ;
    cosmos_sdtm:sdtmigStartVersion "3-4" ;
    cosmos_sdtm:shortName "Short Variation Assessment Variant Impact Classification" ;
    cosmos_sdtm:source "GF.GFTESTCD" ;
    cosmos_sdtm:variables <https://w3id.org/cdisc/cosmos/dss/GF/SHRTVARIMPCLASS/GFCAT>,
        <https://w3id.org/cdisc/cosmos/dss/GF/SHRTVARIMPCLASS/GFCHROM>,
        <https://w3id.org/cdisc/cosmos/dss/GF/SHRTVARIMPCLASS/GFDTC>,
        <https://w3id.org/cdisc/cosmos/dss/GF/SHRTVARIMPCLASS/GFGENLOC>,
        <https://w3id.org/cdisc/cosmos/dss/GF/SHRTVARIMPCLASS/GFGENREF>,
        <https://w3id.org/cdisc/cosmos/dss/GF/SHRTVARIMPCLASS/GFGENSR>,
        <https://w3id.org/cdisc/cosmos/dss/GF/SHRTVARIMPCLASS/GFMETHOD>,
        <https://w3id.org/cdisc/cosmos/dss/GF/SHRTVARIMPCLASS/GFORRES>,
        <https://w3id.org/cdisc/cosmos/dss/GF/SHRTVARIMPCLASS/GFSPEC>,
        <https://w3id.org/cdisc/cosmos/dss/GF/SHRTVARIMPCLASS/GFSTRESC>,
        <https://w3id.org/cdisc/cosmos/dss/GF/SHRTVARIMPCLASS/GFSYM>,
        <https://w3id.org/cdisc/cosmos/dss/GF/SHRTVARIMPCLASS/GFSYMTYP>,
        <https://w3id.org/cdisc/cosmos/dss/GF/SHRTVARIMPCLASS/GFTEST>,
        <https://w3id.org/cdisc/cosmos/dss/GF/SHRTVARIMPCLASS/GFTESTCD>,
        <https://w3id.org/cdisc/cosmos/dss/GF/SHRTVARIMPCLASS/GFTSTDTL> .

<https://w3id.org/cdisc/cosmos/dss/GF/SHRTVARPRAMACHG> a cosmos_sdtm:SDTMGroup ;
    dcterms:identifier "SHRTVARPRAMACHG" ;
    rdf:_1 <https://w3id.org/cdisc/cosmos/dss/GF/SHRTVARPRAMACHG/GFTESTCD> ;
    rdf:_10 <https://w3id.org/cdisc/cosmos/dss/GF/SHRTVARPRAMACHG/GFSYMTYP> ;
    rdf:_11 <https://w3id.org/cdisc/cosmos/dss/GF/SHRTVARPRAMACHG/GFGENLOC> ;
    rdf:_12 <https://w3id.org/cdisc/cosmos/dss/GF/SHRTVARPRAMACHG/GFGENSR> ;
    rdf:_13 <https://w3id.org/cdisc/cosmos/dss/GF/SHRTVARPRAMACHG/GFSPEC> ;
    rdf:_14 <https://w3id.org/cdisc/cosmos/dss/GF/SHRTVARPRAMACHG/GFMETHOD> ;
    rdf:_15 <https://w3id.org/cdisc/cosmos/dss/GF/SHRTVARPRAMACHG/GFDTC> ;
    rdf:_2 <https://w3id.org/cdisc/cosmos/dss/GF/SHRTVARPRAMACHG/GFTEST> ;
    rdf:_3 <https://w3id.org/cdisc/cosmos/dss/GF/SHRTVARPRAMACHG/GFTSTDTL> ;
    rdf:_4 <https://w3id.org/cdisc/cosmos/dss/GF/SHRTVARPRAMACHG/GFCAT> ;
    rdf:_5 <https://w3id.org/cdisc/cosmos/dss/GF/SHRTVARPRAMACHG/GFORRES> ;
    rdf:_6 <https://w3id.org/cdisc/cosmos/dss/GF/SHRTVARPRAMACHG/GFSTRESC> ;
    rdf:_7 <https://w3id.org/cdisc/cosmos/dss/GF/SHRTVARPRAMACHG/GFGENREF> ;
    rdf:_8 <https://w3id.org/cdisc/cosmos/dss/GF/SHRTVARPRAMACHG/GFCHROM> ;
    rdf:_9 <https://w3id.org/cdisc/cosmos/dss/GF/SHRTVARPRAMACHG/GFSYM> ;
    cosmos_sdtm:biomedicalConceptId NCIT:C181334 ;
    cosmos_sdtm:domain "GF" ;
    cosmos_sdtm:packageDate "2026-05-26"^^xsd:date ;
    cosmos_sdtm:packageType <https://www.cdisc.org/cosmos/sdtm_v1.0/PackageTypeEnum#sdtm> ;
    cosmos_sdtm:sdtmigStartVersion "3-4" ;
    cosmos_sdtm:shortName "Short Variation Assessment Predicted Amino Acid Change" ;
    cosmos_sdtm:source "GF.GFTESTCD" ;
    cosmos_sdtm:variables <https://w3id.org/cdisc/cosmos/dss/GF/SHRTVARPRAMACHG/GFCAT>,
        <https://w3id.org/cdisc/cosmos/dss/GF/SHRTVARPRAMACHG/GFCHROM>,
        <https://w3id.org/cdisc/cosmos/dss/GF/SHRTVARPRAMACHG/GFDTC>,
        <https://w3id.org/cdisc/cosmos/dss/GF/SHRTVARPRAMACHG/GFGENLOC>,
        <https://w3id.org/cdisc/cosmos/dss/GF/SHRTVARPRAMACHG/GFGENREF>,
        <https://w3id.org/cdisc/cosmos/dss/GF/SHRTVARPRAMACHG/GFGENSR>,
        <https://w3id.org/cdisc/cosmos/dss/GF/SHRTVARPRAMACHG/GFMETHOD>,
        <https://w3id.org/cdisc/cosmos/dss/GF/SHRTVARPRAMACHG/GFORRES>,
        <https://w3id.org/cdisc/cosmos/dss/GF/SHRTVARPRAMACHG/GFSPEC>,
        <https://w3id.org/cdisc/cosmos/dss/GF/SHRTVARPRAMACHG/GFSTRESC>,
        <https://w3id.org/cdisc/cosmos/dss/GF/SHRTVARPRAMACHG/GFSYM>,
        <https://w3id.org/cdisc/cosmos/dss/GF/SHRTVARPRAMACHG/GFSYMTYP>,
        <https://w3id.org/cdisc/cosmos/dss/GF/SHRTVARPRAMACHG/GFTEST>,
        <https://w3id.org/cdisc/cosmos/dss/GF/SHRTVARPRAMACHG/GFTESTCD>,
        <https://w3id.org/cdisc/cosmos/dss/GF/SHRTVARPRAMACHG/GFTSTDTL> .

<https://w3id.org/cdisc/cosmos/dss/GF/SHRTVARPRCSEQCHG> a cosmos_sdtm:SDTMGroup ;
    dcterms:identifier "SHRTVARPRCSEQCHG" ;
    rdf:_1 <https://w3id.org/cdisc/cosmos/dss/GF/SHRTVARPRCSEQCHG/GFTESTCD> ;
    rdf:_10 <https://w3id.org/cdisc/cosmos/dss/GF/SHRTVARPRCSEQCHG/GFSYMTYP> ;
    rdf:_11 <https://w3id.org/cdisc/cosmos/dss/GF/SHRTVARPRCSEQCHG/GFGENLOC> ;
    rdf:_12 <https://w3id.org/cdisc/cosmos/dss/GF/SHRTVARPRCSEQCHG/GFGENSR> ;
    rdf:_13 <https://w3id.org/cdisc/cosmos/dss/GF/SHRTVARPRCSEQCHG/GFSPEC> ;
    rdf:_14 <https://w3id.org/cdisc/cosmos/dss/GF/SHRTVARPRCSEQCHG/GFMETHOD> ;
    rdf:_15 <https://w3id.org/cdisc/cosmos/dss/GF/SHRTVARPRCSEQCHG/GFDTC> ;
    rdf:_2 <https://w3id.org/cdisc/cosmos/dss/GF/SHRTVARPRCSEQCHG/GFTEST> ;
    rdf:_3 <https://w3id.org/cdisc/cosmos/dss/GF/SHRTVARPRCSEQCHG/GFTSTDTL> ;
    rdf:_4 <https://w3id.org/cdisc/cosmos/dss/GF/SHRTVARPRCSEQCHG/GFCAT> ;
    rdf:_5 <https://w3id.org/cdisc/cosmos/dss/GF/SHRTVARPRCSEQCHG/GFORRES> ;
    rdf:_6 <https://w3id.org/cdisc/cosmos/dss/GF/SHRTVARPRCSEQCHG/GFSTRESC> ;
    rdf:_7 <https://w3id.org/cdisc/cosmos/dss/GF/SHRTVARPRCSEQCHG/GFGENREF> ;
    rdf:_8 <https://w3id.org/cdisc/cosmos/dss/GF/SHRTVARPRCSEQCHG/GFCHROM> ;
    rdf:_9 <https://w3id.org/cdisc/cosmos/dss/GF/SHRTVARPRCSEQCHG/GFSYM> ;
    cosmos_sdtm:biomedicalConceptId NCIT:C181334 ;
    cosmos_sdtm:domain "GF" ;
    cosmos_sdtm:packageDate "2026-05-26"^^xsd:date ;
    cosmos_sdtm:packageType <https://www.cdisc.org/cosmos/sdtm_v1.0/PackageTypeEnum#sdtm> ;
    cosmos_sdtm:sdtmigStartVersion "3-4" ;
    cosmos_sdtm:shortName "Short Variation Assessment Predicted Coding Sequence Change" ;
    cosmos_sdtm:source "GF.GFTESTCD" ;
    cosmos_sdtm:variables <https://w3id.org/cdisc/cosmos/dss/GF/SHRTVARPRCSEQCHG/GFCAT>,
        <https://w3id.org/cdisc/cosmos/dss/GF/SHRTVARPRCSEQCHG/GFCHROM>,
        <https://w3id.org/cdisc/cosmos/dss/GF/SHRTVARPRCSEQCHG/GFDTC>,
        <https://w3id.org/cdisc/cosmos/dss/GF/SHRTVARPRCSEQCHG/GFGENLOC>,
        <https://w3id.org/cdisc/cosmos/dss/GF/SHRTVARPRCSEQCHG/GFGENREF>,
        <https://w3id.org/cdisc/cosmos/dss/GF/SHRTVARPRCSEQCHG/GFGENSR>,
        <https://w3id.org/cdisc/cosmos/dss/GF/SHRTVARPRCSEQCHG/GFMETHOD>,
        <https://w3id.org/cdisc/cosmos/dss/GF/SHRTVARPRCSEQCHG/GFORRES>,
        <https://w3id.org/cdisc/cosmos/dss/GF/SHRTVARPRCSEQCHG/GFSPEC>,
        <https://w3id.org/cdisc/cosmos/dss/GF/SHRTVARPRCSEQCHG/GFSTRESC>,
        <https://w3id.org/cdisc/cosmos/dss/GF/SHRTVARPRCSEQCHG/GFSYM>,
        <https://w3id.org/cdisc/cosmos/dss/GF/SHRTVARPRCSEQCHG/GFSYMTYP>,
        <https://w3id.org/cdisc/cosmos/dss/GF/SHRTVARPRCSEQCHG/GFTEST>,
        <https://w3id.org/cdisc/cosmos/dss/GF/SHRTVARPRCSEQCHG/GFTESTCD>,
        <https://w3id.org/cdisc/cosmos/dss/GF/SHRTVARPRCSEQCHG/GFTSTDTL> .

<https://w3id.org/cdisc/cosmos/dss/GF/SNVGENOTYPE> a cosmos_sdtm:SDTMGroup ;
    dcterms:identifier "SNVGENOTYPE" ;
    rdf:_1 <https://w3id.org/cdisc/cosmos/dss/GF/SNVGENOTYPE/GFTESTCD> ;
    rdf:_10 <https://w3id.org/cdisc/cosmos/dss/GF/SNVGENOTYPE/GFSYM> ;
    rdf:_11 <https://w3id.org/cdisc/cosmos/dss/GF/SNVGENOTYPE/GFSYMTYP> ;
    rdf:_12 <https://w3id.org/cdisc/cosmos/dss/GF/SNVGENOTYPE/GFGENLOC> ;
    rdf:_13 <https://w3id.org/cdisc/cosmos/dss/GF/SNVGENOTYPE/GFGENSR> ;
    rdf:_14 <https://w3id.org/cdisc/cosmos/dss/GF/SNVGENOTYPE/GFSEQID> ;
    rdf:_15 <https://w3id.org/cdisc/cosmos/dss/GF/SNVGENOTYPE/GFPRVID> ;
    rdf:_16 <https://w3id.org/cdisc/cosmos/dss/GF/SNVGENOTYPE/GFSPEC> ;
    rdf:_17 <https://w3id.org/cdisc/cosmos/dss/GF/SNVGENOTYPE/GFMETHOD> ;
    rdf:_18 <https://w3id.org/cdisc/cosmos/dss/GF/SNVGENOTYPE/GFDTC> ;
    rdf:_2 <https://w3id.org/cdisc/cosmos/dss/GF/SNVGENOTYPE/GFTEST> ;
    rdf:_3 <https://w3id.org/cdisc/cosmos/dss/GF/SNVGENOTYPE/GFTSTDTL> ;
    rdf:_4 <https://w3id.org/cdisc/cosmos/dss/GF/SNVGENOTYPE/GFCAT> ;
    rdf:_5 <https://w3id.org/cdisc/cosmos/dss/GF/SNVGENOTYPE/GFORRES> ;
    rdf:_6 <https://w3id.org/cdisc/cosmos/dss/GF/SNVGENOTYPE/GFSTRESC> ;
    rdf:_7 <https://w3id.org/cdisc/cosmos/dss/GF/SNVGENOTYPE/GFINHERT> ;
    rdf:_8 <https://w3id.org/cdisc/cosmos/dss/GF/SNVGENOTYPE/GFGENREF> ;
    rdf:_9 <https://w3id.org/cdisc/cosmos/dss/GF/SNVGENOTYPE/GFCHROM> ;
    cosmos_sdtm:biomedicalConceptId NCIT:C181331 ;
    cosmos_sdtm:domain "GF" ;
    cosmos_sdtm:packageDate "2026-05-26"^^xsd:date ;
    cosmos_sdtm:packageType <https://www.cdisc.org/cosmos/sdtm_v1.0/PackageTypeEnum#sdtm> ;
    cosmos_sdtm:sdtmigStartVersion "3-4" ;
    cosmos_sdtm:shortName "Single Nucleotide Variation Assessment Genotype" ;
    cosmos_sdtm:source "GF.GFTESTCD" ;
    cosmos_sdtm:variables <https://w3id.org/cdisc/cosmos/dss/GF/SNVGENOTYPE/GFCAT>,
        <https://w3id.org/cdisc/cosmos/dss/GF/SNVGENOTYPE/GFCHROM>,
        <https://w3id.org/cdisc/cosmos/dss/GF/SNVGENOTYPE/GFDTC>,
        <https://w3id.org/cdisc/cosmos/dss/GF/SNVGENOTYPE/GFGENLOC>,
        <https://w3id.org/cdisc/cosmos/dss/GF/SNVGENOTYPE/GFGENREF>,
        <https://w3id.org/cdisc/cosmos/dss/GF/SNVGENOTYPE/GFGENSR>,
        <https://w3id.org/cdisc/cosmos/dss/GF/SNVGENOTYPE/GFINHERT>,
        <https://w3id.org/cdisc/cosmos/dss/GF/SNVGENOTYPE/GFMETHOD>,
        <https://w3id.org/cdisc/cosmos/dss/GF/SNVGENOTYPE/GFORRES>,
        <https://w3id.org/cdisc/cosmos/dss/GF/SNVGENOTYPE/GFPRVID>,
        <https://w3id.org/cdisc/cosmos/dss/GF/SNVGENOTYPE/GFSEQID>,
        <https://w3id.org/cdisc/cosmos/dss/GF/SNVGENOTYPE/GFSPEC>,
        <https://w3id.org/cdisc/cosmos/dss/GF/SNVGENOTYPE/GFSTRESC>,
        <https://w3id.org/cdisc/cosmos/dss/GF/SNVGENOTYPE/GFSYM>,
        <https://w3id.org/cdisc/cosmos/dss/GF/SNVGENOTYPE/GFSYMTYP>,
        <https://w3id.org/cdisc/cosmos/dss/GF/SNVGENOTYPE/GFTEST>,
        <https://w3id.org/cdisc/cosmos/dss/GF/SNVGENOTYPE/GFTESTCD>,
        <https://w3id.org/cdisc/cosmos/dss/GF/SNVGENOTYPE/GFTSTDTL> .

<https://w3id.org/cdisc/cosmos/dss/GF/SNVPRAMACHG> a cosmos_sdtm:SDTMGroup ;
    dcterms:identifier "SNVPRAMACHG" ;
    rdf:_1 <https://w3id.org/cdisc/cosmos/dss/GF/SNVPRAMACHG/SPDEVID> ;
    rdf:_10 <https://w3id.org/cdisc/cosmos/dss/GF/SNVPRAMACHG/GFCHROM> ;
    rdf:_11 <https://w3id.org/cdisc/cosmos/dss/GF/SNVPRAMACHG/GFSYM> ;
    rdf:_12 <https://w3id.org/cdisc/cosmos/dss/GF/SNVPRAMACHG/GFSYMTYP> ;
    rdf:_13 <https://w3id.org/cdisc/cosmos/dss/GF/SNVPRAMACHG/GFGENLOC> ;
    rdf:_14 <https://w3id.org/cdisc/cosmos/dss/GF/SNVPRAMACHG/GFGENSR> ;
    rdf:_15 <https://w3id.org/cdisc/cosmos/dss/GF/SNVPRAMACHG/GFPRVID> ;
    rdf:_16 <https://w3id.org/cdisc/cosmos/dss/GF/SNVPRAMACHG/GFSEQID> ;
    rdf:_17 <https://w3id.org/cdisc/cosmos/dss/GF/SNVPRAMACHG/GFSPEC> ;
    rdf:_18 <https://w3id.org/cdisc/cosmos/dss/GF/SNVPRAMACHG/GFMETHOD> ;
    rdf:_19 <https://w3id.org/cdisc/cosmos/dss/GF/SNVPRAMACHG/GFDTC> ;
    rdf:_2 <https://w3id.org/cdisc/cosmos/dss/GF/SNVPRAMACHG/GFTESTCD> ;
    rdf:_3 <https://w3id.org/cdisc/cosmos/dss/GF/SNVPRAMACHG/GFTEST> ;
    rdf:_4 <https://w3id.org/cdisc/cosmos/dss/GF/SNVPRAMACHG/GFTSTDTL> ;
    rdf:_5 <https://w3id.org/cdisc/cosmos/dss/GF/SNVPRAMACHG/GFCAT> ;
    rdf:_6 <https://w3id.org/cdisc/cosmos/dss/GF/SNVPRAMACHG/GFORRES> ;
    rdf:_7 <https://w3id.org/cdisc/cosmos/dss/GF/SNVPRAMACHG/GFSTRESC> ;
    rdf:_8 <https://w3id.org/cdisc/cosmos/dss/GF/SNVPRAMACHG/GFINHERT> ;
    rdf:_9 <https://w3id.org/cdisc/cosmos/dss/GF/SNVPRAMACHG/GFGENREF> ;
    cosmos_sdtm:biomedicalConceptId NCIT:C181331 ;
    cosmos_sdtm:domain "GF" ;
    cosmos_sdtm:packageDate "2026-05-26"^^xsd:date ;
    cosmos_sdtm:packageType <https://www.cdisc.org/cosmos/sdtm_v1.0/PackageTypeEnum#sdtm> ;
    cosmos_sdtm:sdtmigStartVersion "3-4" ;
    cosmos_sdtm:shortName "Single Nucleotide Variation Assessment Predicted Amino Acid Change" ;
    cosmos_sdtm:source "GF.GFTESTCD" ;
    cosmos_sdtm:variables <https://w3id.org/cdisc/cosmos/dss/GF/SNVPRAMACHG/GFCAT>,
        <https://w3id.org/cdisc/cosmos/dss/GF/SNVPRAMACHG/GFCHROM>,
        <https://w3id.org/cdisc/cosmos/dss/GF/SNVPRAMACHG/GFDTC>,
        <https://w3id.org/cdisc/cosmos/dss/GF/SNVPRAMACHG/GFGENLOC>,
        <https://w3id.org/cdisc/cosmos/dss/GF/SNVPRAMACHG/GFGENREF>,
        <https://w3id.org/cdisc/cosmos/dss/GF/SNVPRAMACHG/GFGENSR>,
        <https://w3id.org/cdisc/cosmos/dss/GF/SNVPRAMACHG/GFINHERT>,
        <https://w3id.org/cdisc/cosmos/dss/GF/SNVPRAMACHG/GFMETHOD>,
        <https://w3id.org/cdisc/cosmos/dss/GF/SNVPRAMACHG/GFORRES>,
        <https://w3id.org/cdisc/cosmos/dss/GF/SNVPRAMACHG/GFPRVID>,
        <https://w3id.org/cdisc/cosmos/dss/GF/SNVPRAMACHG/GFSEQID>,
        <https://w3id.org/cdisc/cosmos/dss/GF/SNVPRAMACHG/GFSPEC>,
        <https://w3id.org/cdisc/cosmos/dss/GF/SNVPRAMACHG/GFSTRESC>,
        <https://w3id.org/cdisc/cosmos/dss/GF/SNVPRAMACHG/GFSYM>,
        <https://w3id.org/cdisc/cosmos/dss/GF/SNVPRAMACHG/GFSYMTYP>,
        <https://w3id.org/cdisc/cosmos/dss/GF/SNVPRAMACHG/GFTEST>,
        <https://w3id.org/cdisc/cosmos/dss/GF/SNVPRAMACHG/GFTESTCD>,
        <https://w3id.org/cdisc/cosmos/dss/GF/SNVPRAMACHG/GFTSTDTL>,
        <https://w3id.org/cdisc/cosmos/dss/GF/SNVPRAMACHG/SPDEVID> .

<https://w3id.org/cdisc/cosmos/dss/GF/SNVPRCSEQCHG> a cosmos_sdtm:SDTMGroup ;
    dcterms:identifier "SNVPRCSEQCHG" ;
    rdf:_1 <https://w3id.org/cdisc/cosmos/dss/GF/SNVPRCSEQCHG/SPDEVID> ;
    rdf:_10 <https://w3id.org/cdisc/cosmos/dss/GF/SNVPRCSEQCHG/GFCHROM> ;
    rdf:_11 <https://w3id.org/cdisc/cosmos/dss/GF/SNVPRCSEQCHG/GFSYM> ;
    rdf:_12 <https://w3id.org/cdisc/cosmos/dss/GF/SNVPRCSEQCHG/GFSYMTYP> ;
    rdf:_13 <https://w3id.org/cdisc/cosmos/dss/GF/SNVPRCSEQCHG/GFGENLOC> ;
    rdf:_14 <https://w3id.org/cdisc/cosmos/dss/GF/SNVPRCSEQCHG/GFGENSR> ;
    rdf:_15 <https://w3id.org/cdisc/cosmos/dss/GF/SNVPRCSEQCHG/GFSEQID> ;
    rdf:_16 <https://w3id.org/cdisc/cosmos/dss/GF/SNVPRCSEQCHG/GFPRVID> ;
    rdf:_17 <https://w3id.org/cdisc/cosmos/dss/GF/SNVPRCSEQCHG/GFSPEC> ;
    rdf:_18 <https://w3id.org/cdisc/cosmos/dss/GF/SNVPRCSEQCHG/GFMETHOD> ;
    rdf:_19 <https://w3id.org/cdisc/cosmos/dss/GF/SNVPRCSEQCHG/GFDTC> ;
    rdf:_2 <https://w3id.org/cdisc/cosmos/dss/GF/SNVPRCSEQCHG/GFTESTCD> ;
    rdf:_3 <https://w3id.org/cdisc/cosmos/dss/GF/SNVPRCSEQCHG/GFTEST> ;
    rdf:_4 <https://w3id.org/cdisc/cosmos/dss/GF/SNVPRCSEQCHG/GFTSTDTL> ;
    rdf:_5 <https://w3id.org/cdisc/cosmos/dss/GF/SNVPRCSEQCHG/GFCAT> ;
    rdf:_6 <https://w3id.org/cdisc/cosmos/dss/GF/SNVPRCSEQCHG/GFORRES> ;
    rdf:_7 <https://w3id.org/cdisc/cosmos/dss/GF/SNVPRCSEQCHG/GFSTRESC> ;
    rdf:_8 <https://w3id.org/cdisc/cosmos/dss/GF/SNVPRCSEQCHG/GFINHERT> ;
    rdf:_9 <https://w3id.org/cdisc/cosmos/dss/GF/SNVPRCSEQCHG/GFGENREF> ;
    cosmos_sdtm:biomedicalConceptId NCIT:C181331 ;
    cosmos_sdtm:domain "GF" ;
    cosmos_sdtm:packageDate "2026-05-26"^^xsd:date ;
    cosmos_sdtm:packageType <https://www.cdisc.org/cosmos/sdtm_v1.0/PackageTypeEnum#sdtm> ;
    cosmos_sdtm:sdtmigStartVersion "3-4" ;
    cosmos_sdtm:shortName "Single Nucleotide Variation Assessment Predicted Coding Sequence Change" ;
    cosmos_sdtm:source "GF.GFTESTCD" ;
    cosmos_sdtm:variables <https://w3id.org/cdisc/cosmos/dss/GF/SNVPRCSEQCHG/GFCAT>,
        <https://w3id.org/cdisc/cosmos/dss/GF/SNVPRCSEQCHG/GFCHROM>,
        <https://w3id.org/cdisc/cosmos/dss/GF/SNVPRCSEQCHG/GFDTC>,
        <https://w3id.org/cdisc/cosmos/dss/GF/SNVPRCSEQCHG/GFGENLOC>,
        <https://w3id.org/cdisc/cosmos/dss/GF/SNVPRCSEQCHG/GFGENREF>,
        <https://w3id.org/cdisc/cosmos/dss/GF/SNVPRCSEQCHG/GFGENSR>,
        <https://w3id.org/cdisc/cosmos/dss/GF/SNVPRCSEQCHG/GFINHERT>,
        <https://w3id.org/cdisc/cosmos/dss/GF/SNVPRCSEQCHG/GFMETHOD>,
        <https://w3id.org/cdisc/cosmos/dss/GF/SNVPRCSEQCHG/GFORRES>,
        <https://w3id.org/cdisc/cosmos/dss/GF/SNVPRCSEQCHG/GFPRVID>,
        <https://w3id.org/cdisc/cosmos/dss/GF/SNVPRCSEQCHG/GFSEQID>,
        <https://w3id.org/cdisc/cosmos/dss/GF/SNVPRCSEQCHG/GFSPEC>,
        <https://w3id.org/cdisc/cosmos/dss/GF/SNVPRCSEQCHG/GFSTRESC>,
        <https://w3id.org/cdisc/cosmos/dss/GF/SNVPRCSEQCHG/GFSYM>,
        <https://w3id.org/cdisc/cosmos/dss/GF/SNVPRCSEQCHG/GFSYMTYP>,
        <https://w3id.org/cdisc/cosmos/dss/GF/SNVPRCSEQCHG/GFTEST>,
        <https://w3id.org/cdisc/cosmos/dss/GF/SNVPRCSEQCHG/GFTESTCD>,
        <https://w3id.org/cdisc/cosmos/dss/GF/SNVPRCSEQCHG/GFTSTDTL>,
        <https://w3id.org/cdisc/cosmos/dss/GF/SNVPRCSEQCHG/SPDEVID> .

<https://w3id.org/cdisc/cosmos/dss/GF/SNVREADEPTH> a cosmos_sdtm:SDTMGroup ;
    dcterms:identifier "SNVREADEPTH" ;
    rdf:_1 <https://w3id.org/cdisc/cosmos/dss/GF/SNVREADEPTH/SPDEVID> ;
    rdf:_10 <https://w3id.org/cdisc/cosmos/dss/GF/SNVREADEPTH/GFGENREF> ;
    rdf:_11 <https://w3id.org/cdisc/cosmos/dss/GF/SNVREADEPTH/GFCHROM> ;
    rdf:_12 <https://w3id.org/cdisc/cosmos/dss/GF/SNVREADEPTH/GFSYM> ;
    rdf:_13 <https://w3id.org/cdisc/cosmos/dss/GF/SNVREADEPTH/GFSYMTYP> ;
    rdf:_14 <https://w3id.org/cdisc/cosmos/dss/GF/SNVREADEPTH/GFGENLOC> ;
    rdf:_15 <https://w3id.org/cdisc/cosmos/dss/GF/SNVREADEPTH/GFGENSR> ;
    rdf:_16 <https://w3id.org/cdisc/cosmos/dss/GF/SNVREADEPTH/GFSEQID> ;
    rdf:_17 <https://w3id.org/cdisc/cosmos/dss/GF/SNVREADEPTH/GFPRVID> ;
    rdf:_18 <https://w3id.org/cdisc/cosmos/dss/GF/SNVREADEPTH/GFSPEC> ;
    rdf:_19 <https://w3id.org/cdisc/cosmos/dss/GF/SNVREADEPTH/GFMETHOD> ;
    rdf:_2 <https://w3id.org/cdisc/cosmos/dss/GF/SNVREADEPTH/GFTESTCD> ;
    rdf:_20 <https://w3id.org/cdisc/cosmos/dss/GF/SNVREADEPTH/GFDTC> ;
    rdf:_3 <https://w3id.org/cdisc/cosmos/dss/GF/SNVREADEPTH/GFTEST> ;
    rdf:_4 <https://w3id.org/cdisc/cosmos/dss/GF/SNVREADEPTH/GFTSTDTL> ;
    rdf:_5 <https://w3id.org/cdisc/cosmos/dss/GF/SNVREADEPTH/GFCAT> ;
    rdf:_6 <https://w3id.org/cdisc/cosmos/dss/GF/SNVREADEPTH/GFORRES> ;
    rdf:_7 <https://w3id.org/cdisc/cosmos/dss/GF/SNVREADEPTH/GFSTRESC> ;
    rdf:_8 <https://w3id.org/cdisc/cosmos/dss/GF/SNVREADEPTH/GFSTRESN> ;
    rdf:_9 <https://w3id.org/cdisc/cosmos/dss/GF/SNVREADEPTH/GFINHERT> ;
    cosmos_sdtm:biomedicalConceptId NCIT:C181331 ;
    cosmos_sdtm:domain "GF" ;
    cosmos_sdtm:packageDate "2026-05-26"^^xsd:date ;
    cosmos_sdtm:packageType <https://www.cdisc.org/cosmos/sdtm_v1.0/PackageTypeEnum#sdtm> ;
    cosmos_sdtm:sdtmigStartVersion "3-4" ;
    cosmos_sdtm:shortName "Single Nucleotide Variation Assessment Read Depth" ;
    cosmos_sdtm:source "GF.GFTESTCD" ;
    cosmos_sdtm:variables <https://w3id.org/cdisc/cosmos/dss/GF/SNVREADEPTH/GFCAT>,
        <https://w3id.org/cdisc/cosmos/dss/GF/SNVREADEPTH/GFCHROM>,
        <https://w3id.org/cdisc/cosmos/dss/GF/SNVREADEPTH/GFDTC>,
        <https://w3id.org/cdisc/cosmos/dss/GF/SNVREADEPTH/GFGENLOC>,
        <https://w3id.org/cdisc/cosmos/dss/GF/SNVREADEPTH/GFGENREF>,
        <https://w3id.org/cdisc/cosmos/dss/GF/SNVREADEPTH/GFGENSR>,
        <https://w3id.org/cdisc/cosmos/dss/GF/SNVREADEPTH/GFINHERT>,
        <https://w3id.org/cdisc/cosmos/dss/GF/SNVREADEPTH/GFMETHOD>,
        <https://w3id.org/cdisc/cosmos/dss/GF/SNVREADEPTH/GFORRES>,
        <https://w3id.org/cdisc/cosmos/dss/GF/SNVREADEPTH/GFPRVID>,
        <https://w3id.org/cdisc/cosmos/dss/GF/SNVREADEPTH/GFSEQID>,
        <https://w3id.org/cdisc/cosmos/dss/GF/SNVREADEPTH/GFSPEC>,
        <https://w3id.org/cdisc/cosmos/dss/GF/SNVREADEPTH/GFSTRESC>,
        <https://w3id.org/cdisc/cosmos/dss/GF/SNVREADEPTH/GFSTRESN>,
        <https://w3id.org/cdisc/cosmos/dss/GF/SNVREADEPTH/GFSYM>,
        <https://w3id.org/cdisc/cosmos/dss/GF/SNVREADEPTH/GFSYMTYP>,
        <https://w3id.org/cdisc/cosmos/dss/GF/SNVREADEPTH/GFTEST>,
        <https://w3id.org/cdisc/cosmos/dss/GF/SNVREADEPTH/GFTESTCD>,
        <https://w3id.org/cdisc/cosmos/dss/GF/SNVREADEPTH/GFTSTDTL>,
        <https://w3id.org/cdisc/cosmos/dss/GF/SNVREADEPTH/SPDEVID> .

<https://w3id.org/cdisc/cosmos/dss/GF/SNVVAREADEPTHRD> a cosmos_sdtm:SDTMGroup ;
    dcterms:identifier "SNVVAREADEPTHRD" ;
    rdf:_1 <https://w3id.org/cdisc/cosmos/dss/GF/SNVVAREADEPTHRD/SPDEVID> ;
    rdf:_10 <https://w3id.org/cdisc/cosmos/dss/GF/SNVVAREADEPTHRD/GFSTRESU> ;
    rdf:_11 <https://w3id.org/cdisc/cosmos/dss/GF/SNVVAREADEPTHRD/GFINHERT> ;
    rdf:_12 <https://w3id.org/cdisc/cosmos/dss/GF/SNVVAREADEPTHRD/GFGENREF> ;
    rdf:_13 <https://w3id.org/cdisc/cosmos/dss/GF/SNVVAREADEPTHRD/GFCHROM> ;
    rdf:_14 <https://w3id.org/cdisc/cosmos/dss/GF/SNVVAREADEPTHRD/GFSYM> ;
    rdf:_15 <https://w3id.org/cdisc/cosmos/dss/GF/SNVVAREADEPTHRD/GFSYMTYP> ;
    rdf:_16 <https://w3id.org/cdisc/cosmos/dss/GF/SNVVAREADEPTHRD/GFGENLOC> ;
    rdf:_17 <https://w3id.org/cdisc/cosmos/dss/GF/SNVVAREADEPTHRD/GFGENSR> ;
    rdf:_18 <https://w3id.org/cdisc/cosmos/dss/GF/SNVVAREADEPTHRD/GFSEQID> ;
    rdf:_19 <https://w3id.org/cdisc/cosmos/dss/GF/SNVVAREADEPTHRD/GFPRVID> ;
    rdf:_2 <https://w3id.org/cdisc/cosmos/dss/GF/SNVVAREADEPTHRD/GFTESTCD> ;
    rdf:_20 <https://w3id.org/cdisc/cosmos/dss/GF/SNVVAREADEPTHRD/GFSPEC> ;
    rdf:_21 <https://w3id.org/cdisc/cosmos/dss/GF/SNVVAREADEPTHRD/GFMETHOD> ;
    rdf:_22 <https://w3id.org/cdisc/cosmos/dss/GF/SNVVAREADEPTHRD/GFDTC> ;
    rdf:_3 <https://w3id.org/cdisc/cosmos/dss/GF/SNVVAREADEPTHRD/GFTEST> ;
    rdf:_4 <https://w3id.org/cdisc/cosmos/dss/GF/SNVVAREADEPTHRD/GFTSTDTL> ;
    rdf:_5 <https://w3id.org/cdisc/cosmos/dss/GF/SNVVAREADEPTHRD/GFCAT> ;
    rdf:_6 <https://w3id.org/cdisc/cosmos/dss/GF/SNVVAREADEPTHRD/GFORRES> ;
    rdf:_7 <https://w3id.org/cdisc/cosmos/dss/GF/SNVVAREADEPTHRD/GFORRESU> ;
    rdf:_8 <https://w3id.org/cdisc/cosmos/dss/GF/SNVVAREADEPTHRD/GFSTRESC> ;
    rdf:_9 <https://w3id.org/cdisc/cosmos/dss/GF/SNVVAREADEPTHRD/GFSTRESN> ;
    cosmos_sdtm:biomedicalConceptId NCIT:C181331 ;
    cosmos_sdtm:domain "GF" ;
    cosmos_sdtm:packageDate "2026-05-26"^^xsd:date ;
    cosmos_sdtm:packageType <https://www.cdisc.org/cosmos/sdtm_v1.0/PackageTypeEnum#sdtm> ;
    cosmos_sdtm:sdtmigStartVersion "3-4" ;
    cosmos_sdtm:shortName "Single Nucleotide Variation Assessment Variant Read Depth/Read Depth" ;
    cosmos_sdtm:source "GF.GFTESTCD" ;
    cosmos_sdtm:variables <https://w3id.org/cdisc/cosmos/dss/GF/SNVVAREADEPTHRD/GFCAT>,
        <https://w3id.org/cdisc/cosmos/dss/GF/SNVVAREADEPTHRD/GFCHROM>,
        <https://w3id.org/cdisc/cosmos/dss/GF/SNVVAREADEPTHRD/GFDTC>,
        <https://w3id.org/cdisc/cosmos/dss/GF/SNVVAREADEPTHRD/GFGENLOC>,
        <https://w3id.org/cdisc/cosmos/dss/GF/SNVVAREADEPTHRD/GFGENREF>,
        <https://w3id.org/cdisc/cosmos/dss/GF/SNVVAREADEPTHRD/GFGENSR>,
        <https://w3id.org/cdisc/cosmos/dss/GF/SNVVAREADEPTHRD/GFINHERT>,
        <https://w3id.org/cdisc/cosmos/dss/GF/SNVVAREADEPTHRD/GFMETHOD>,
        <https://w3id.org/cdisc/cosmos/dss/GF/SNVVAREADEPTHRD/GFORRES>,
        <https://w3id.org/cdisc/cosmos/dss/GF/SNVVAREADEPTHRD/GFORRESU>,
        <https://w3id.org/cdisc/cosmos/dss/GF/SNVVAREADEPTHRD/GFPRVID>,
        <https://w3id.org/cdisc/cosmos/dss/GF/SNVVAREADEPTHRD/GFSEQID>,
        <https://w3id.org/cdisc/cosmos/dss/GF/SNVVAREADEPTHRD/GFSPEC>,
        <https://w3id.org/cdisc/cosmos/dss/GF/SNVVAREADEPTHRD/GFSTRESC>,
        <https://w3id.org/cdisc/cosmos/dss/GF/SNVVAREADEPTHRD/GFSTRESN>,
        <https://w3id.org/cdisc/cosmos/dss/GF/SNVVAREADEPTHRD/GFSTRESU>,
        <https://w3id.org/cdisc/cosmos/dss/GF/SNVVAREADEPTHRD/GFSYM>,
        <https://w3id.org/cdisc/cosmos/dss/GF/SNVVAREADEPTHRD/GFSYMTYP>,
        <https://w3id.org/cdisc/cosmos/dss/GF/SNVVAREADEPTHRD/GFTEST>,
        <https://w3id.org/cdisc/cosmos/dss/GF/SNVVAREADEPTHRD/GFTESTCD>,
        <https://w3id.org/cdisc/cosmos/dss/GF/SNVVAREADEPTHRD/GFTSTDTL>,
        <https://w3id.org/cdisc/cosmos/dss/GF/SNVVAREADEPTHRD/SPDEVID> .

<https://w3id.org/cdisc/cosmos/dss/GF/SNVVARIMPCLASS> a cosmos_sdtm:SDTMGroup ;
    dcterms:identifier "SNVVARIMPCLASS" ;
    rdf:_1 <https://w3id.org/cdisc/cosmos/dss/GF/SNVVARIMPCLASS/SPDEVID> ;
    rdf:_10 <https://w3id.org/cdisc/cosmos/dss/GF/SNVVARIMPCLASS/GFCHROM> ;
    rdf:_11 <https://w3id.org/cdisc/cosmos/dss/GF/SNVVARIMPCLASS/GFSYM> ;
    rdf:_12 <https://w3id.org/cdisc/cosmos/dss/GF/SNVVARIMPCLASS/GFSYMTYP> ;
    rdf:_13 <https://w3id.org/cdisc/cosmos/dss/GF/SNVVARIMPCLASS/GFGENLOC> ;
    rdf:_14 <https://w3id.org/cdisc/cosmos/dss/GF/SNVVARIMPCLASS/GFGENSR> ;
    rdf:_15 <https://w3id.org/cdisc/cosmos/dss/GF/SNVVARIMPCLASS/GFSEQID> ;
    rdf:_16 <https://w3id.org/cdisc/cosmos/dss/GF/SNVVARIMPCLASS/GFPRVID> ;
    rdf:_17 <https://w3id.org/cdisc/cosmos/dss/GF/SNVVARIMPCLASS/GFSPEC> ;
    rdf:_18 <https://w3id.org/cdisc/cosmos/dss/GF/SNVVARIMPCLASS/GFMETHOD> ;
    rdf:_19 <https://w3id.org/cdisc/cosmos/dss/GF/SNVVARIMPCLASS/GFDTC> ;
    rdf:_2 <https://w3id.org/cdisc/cosmos/dss/GF/SNVVARIMPCLASS/GFTESTCD> ;
    rdf:_3 <https://w3id.org/cdisc/cosmos/dss/GF/SNVVARIMPCLASS/GFTEST> ;
    rdf:_4 <https://w3id.org/cdisc/cosmos/dss/GF/SNVVARIMPCLASS/GFTSTDTL> ;
    rdf:_5 <https://w3id.org/cdisc/cosmos/dss/GF/SNVVARIMPCLASS/GFCAT> ;
    rdf:_6 <https://w3id.org/cdisc/cosmos/dss/GF/SNVVARIMPCLASS/GFORRES> ;
    rdf:_7 <https://w3id.org/cdisc/cosmos/dss/GF/SNVVARIMPCLASS/GFSTRESC> ;
    rdf:_8 <https://w3id.org/cdisc/cosmos/dss/GF/SNVVARIMPCLASS/GFINHERT> ;
    rdf:_9 <https://w3id.org/cdisc/cosmos/dss/GF/SNVVARIMPCLASS/GFGENREF> ;
    cosmos_sdtm:biomedicalConceptId NCIT:C181331 ;
    cosmos_sdtm:domain "GF" ;
    cosmos_sdtm:packageDate "2026-05-26"^^xsd:date ;
    cosmos_sdtm:packageType <https://www.cdisc.org/cosmos/sdtm_v1.0/PackageTypeEnum#sdtm> ;
    cosmos_sdtm:sdtmigStartVersion "3-4" ;
    cosmos_sdtm:shortName "Single Nucleotide Variation Assessment Variant Impact Classification" ;
    cosmos_sdtm:source "GF.GFTESTCD" ;
    cosmos_sdtm:variables <https://w3id.org/cdisc/cosmos/dss/GF/SNVVARIMPCLASS/GFCAT>,
        <https://w3id.org/cdisc/cosmos/dss/GF/SNVVARIMPCLASS/GFCHROM>,
        <https://w3id.org/cdisc/cosmos/dss/GF/SNVVARIMPCLASS/GFDTC>,
        <https://w3id.org/cdisc/cosmos/dss/GF/SNVVARIMPCLASS/GFGENLOC>,
        <https://w3id.org/cdisc/cosmos/dss/GF/SNVVARIMPCLASS/GFGENREF>,
        <https://w3id.org/cdisc/cosmos/dss/GF/SNVVARIMPCLASS/GFGENSR>,
        <https://w3id.org/cdisc/cosmos/dss/GF/SNVVARIMPCLASS/GFINHERT>,
        <https://w3id.org/cdisc/cosmos/dss/GF/SNVVARIMPCLASS/GFMETHOD>,
        <https://w3id.org/cdisc/cosmos/dss/GF/SNVVARIMPCLASS/GFORRES>,
        <https://w3id.org/cdisc/cosmos/dss/GF/SNVVARIMPCLASS/GFPRVID>,
        <https://w3id.org/cdisc/cosmos/dss/GF/SNVVARIMPCLASS/GFSEQID>,
        <https://w3id.org/cdisc/cosmos/dss/GF/SNVVARIMPCLASS/GFSPEC>,
        <https://w3id.org/cdisc/cosmos/dss/GF/SNVVARIMPCLASS/GFSTRESC>,
        <https://w3id.org/cdisc/cosmos/dss/GF/SNVVARIMPCLASS/GFSYM>,
        <https://w3id.org/cdisc/cosmos/dss/GF/SNVVARIMPCLASS/GFSYMTYP>,
        <https://w3id.org/cdisc/cosmos/dss/GF/SNVVARIMPCLASS/GFTEST>,
        <https://w3id.org/cdisc/cosmos/dss/GF/SNVVARIMPCLASS/GFTESTCD>,
        <https://w3id.org/cdisc/cosmos/dss/GF/SNVVARIMPCLASS/GFTSTDTL>,
        <https://w3id.org/cdisc/cosmos/dss/GF/SNVVARIMPCLASS/SPDEVID> .

<https://w3id.org/cdisc/cosmos/dss/GF/TMBNORMNUMSEQVAR> a cosmos_sdtm:SDTMGroup ;
    dcterms:identifier "TMBNORMNUMSEQVAR" ;
    rdf:_1 <https://w3id.org/cdisc/cosmos/dss/GF/TMBNORMNUMSEQVAR/SPDEVID> ;
    rdf:_10 <https://w3id.org/cdisc/cosmos/dss/GF/TMBNORMNUMSEQVAR/GFSTRESU> ;
    rdf:_11 <https://w3id.org/cdisc/cosmos/dss/GF/TMBNORMNUMSEQVAR/GFSPEC> ;
    rdf:_12 <https://w3id.org/cdisc/cosmos/dss/GF/TMBNORMNUMSEQVAR/GFMETHOD> ;
    rdf:_13 <https://w3id.org/cdisc/cosmos/dss/GF/TMBNORMNUMSEQVAR/GFANMETH> ;
    rdf:_14 <https://w3id.org/cdisc/cosmos/dss/GF/TMBNORMNUMSEQVAR/GFDTC> ;
    rdf:_2 <https://w3id.org/cdisc/cosmos/dss/GF/TMBNORMNUMSEQVAR/GFTESTCD> ;
    rdf:_3 <https://w3id.org/cdisc/cosmos/dss/GF/TMBNORMNUMSEQVAR/GFTEST> ;
    rdf:_4 <https://w3id.org/cdisc/cosmos/dss/GF/TMBNORMNUMSEQVAR/GFTSTDTL> ;
    rdf:_5 <https://w3id.org/cdisc/cosmos/dss/GF/TMBNORMNUMSEQVAR/GFCAT> ;
    rdf:_6 <https://w3id.org/cdisc/cosmos/dss/GF/TMBNORMNUMSEQVAR/GFORRES> ;
    rdf:_7 <https://w3id.org/cdisc/cosmos/dss/GF/TMBNORMNUMSEQVAR/GFORRESU> ;
    rdf:_8 <https://w3id.org/cdisc/cosmos/dss/GF/TMBNORMNUMSEQVAR/GFSTRESC> ;
    rdf:_9 <https://w3id.org/cdisc/cosmos/dss/GF/TMBNORMNUMSEQVAR/GFSTRESN> ;
    cosmos_sdtm:biomedicalConceptId NCIT:C181335 ;
    cosmos_sdtm:domain "GF" ;
    cosmos_sdtm:packageDate "2026-05-26"^^xsd:date ;
    cosmos_sdtm:packageType <https://www.cdisc.org/cosmos/sdtm_v1.0/PackageTypeEnum#sdtm> ;
    cosmos_sdtm:sdtmigStartVersion "3-4" ;
    cosmos_sdtm:shortName "Tumor Mutation Burden Normalized Number of Sequence Variants" ;
    cosmos_sdtm:source "GF.GFTESTCD" ;
    cosmos_sdtm:variables <https://w3id.org/cdisc/cosmos/dss/GF/TMBNORMNUMSEQVAR/GFANMETH>,
        <https://w3id.org/cdisc/cosmos/dss/GF/TMBNORMNUMSEQVAR/GFCAT>,
        <https://w3id.org/cdisc/cosmos/dss/GF/TMBNORMNUMSEQVAR/GFDTC>,
        <https://w3id.org/cdisc/cosmos/dss/GF/TMBNORMNUMSEQVAR/GFMETHOD>,
        <https://w3id.org/cdisc/cosmos/dss/GF/TMBNORMNUMSEQVAR/GFORRES>,
        <https://w3id.org/cdisc/cosmos/dss/GF/TMBNORMNUMSEQVAR/GFORRESU>,
        <https://w3id.org/cdisc/cosmos/dss/GF/TMBNORMNUMSEQVAR/GFSPEC>,
        <https://w3id.org/cdisc/cosmos/dss/GF/TMBNORMNUMSEQVAR/GFSTRESC>,
        <https://w3id.org/cdisc/cosmos/dss/GF/TMBNORMNUMSEQVAR/GFSTRESN>,
        <https://w3id.org/cdisc/cosmos/dss/GF/TMBNORMNUMSEQVAR/GFSTRESU>,
        <https://w3id.org/cdisc/cosmos/dss/GF/TMBNORMNUMSEQVAR/GFTEST>,
        <https://w3id.org/cdisc/cosmos/dss/GF/TMBNORMNUMSEQVAR/GFTESTCD>,
        <https://w3id.org/cdisc/cosmos/dss/GF/TMBNORMNUMSEQVAR/GFTSTDTL>,
        <https://w3id.org/cdisc/cosmos/dss/GF/TMBNORMNUMSEQVAR/SPDEVID> .

<https://w3id.org/cdisc/cosmos/dss/GF/TMBNUMSEQVAR> a cosmos_sdtm:SDTMGroup ;
    dcterms:identifier "TMBNUMSEQVAR" ;
    rdf:_1 <https://w3id.org/cdisc/cosmos/dss/GF/TMBNUMSEQVAR/GFTESTCD> ;
    rdf:_10 <https://w3id.org/cdisc/cosmos/dss/GF/TMBNUMSEQVAR/GFSTRESC> ;
    rdf:_2 <https://w3id.org/cdisc/cosmos/dss/GF/TMBNUMSEQVAR/GFTEST> ;
    rdf:_3 <https://w3id.org/cdisc/cosmos/dss/GF/TMBNUMSEQVAR/GFTSTDTL> ;
    rdf:_4 <https://w3id.org/cdisc/cosmos/dss/GF/TMBNUMSEQVAR/GFCAT> ;
    rdf:_5 <https://w3id.org/cdisc/cosmos/dss/GF/TMBNUMSEQVAR/GFORRES> ;
    rdf:_6 <https://w3id.org/cdisc/cosmos/dss/GF/TMBNUMSEQVAR/GFSPEC> ;
    rdf:_7 <https://w3id.org/cdisc/cosmos/dss/GF/TMBNUMSEQVAR/GFMETHOD> ;
    rdf:_8 <https://w3id.org/cdisc/cosmos/dss/GF/TMBNUMSEQVAR/GFANMETH> ;
    rdf:_9 <https://w3id.org/cdisc/cosmos/dss/GF/TMBNUMSEQVAR/GFDTC> ;
    cosmos_sdtm:biomedicalConceptId NCIT:C181335 ;
    cosmos_sdtm:domain "GF" ;
    cosmos_sdtm:packageDate "2026-05-26"^^xsd:date ;
    cosmos_sdtm:packageType <https://www.cdisc.org/cosmos/sdtm_v1.0/PackageTypeEnum#sdtm> ;
    cosmos_sdtm:sdtmigStartVersion "3-4" ;
    cosmos_sdtm:shortName "Tumor Mutation Burden Number of Sequence Variants" ;
    cosmos_sdtm:source "GF.GFTESTCD" ;
    cosmos_sdtm:variables <https://w3id.org/cdisc/cosmos/dss/GF/TMBNUMSEQVAR/GFANMETH>,
        <https://w3id.org/cdisc/cosmos/dss/GF/TMBNUMSEQVAR/GFCAT>,
        <https://w3id.org/cdisc/cosmos/dss/GF/TMBNUMSEQVAR/GFDTC>,
        <https://w3id.org/cdisc/cosmos/dss/GF/TMBNUMSEQVAR/GFMETHOD>,
        <https://w3id.org/cdisc/cosmos/dss/GF/TMBNUMSEQVAR/GFORRES>,
        <https://w3id.org/cdisc/cosmos/dss/GF/TMBNUMSEQVAR/GFSPEC>,
        <https://w3id.org/cdisc/cosmos/dss/GF/TMBNUMSEQVAR/GFSTRESC>,
        <https://w3id.org/cdisc/cosmos/dss/GF/TMBNUMSEQVAR/GFTEST>,
        <https://w3id.org/cdisc/cosmos/dss/GF/TMBNUMSEQVAR/GFTESTCD>,
        <https://w3id.org/cdisc/cosmos/dss/GF/TMBNUMSEQVAR/GFTSTDTL> .

<https://w3id.org/cdisc/cosmos/dss/GF/TMBVARSEQBURDINTP> a cosmos_sdtm:SDTMGroup ;
    dcterms:identifier "TMBVARSEQBURDINTP" ;
    rdf:_1 <https://w3id.org/cdisc/cosmos/dss/GF/TMBVARSEQBURDINTP/SPDEVID> ;
    rdf:_10 <https://w3id.org/cdisc/cosmos/dss/GF/TMBVARSEQBURDINTP/GFANMETH> ;
    rdf:_11 <https://w3id.org/cdisc/cosmos/dss/GF/TMBVARSEQBURDINTP/GFDTC> ;
    rdf:_2 <https://w3id.org/cdisc/cosmos/dss/GF/TMBVARSEQBURDINTP/GFTESTCD> ;
    rdf:_3 <https://w3id.org/cdisc/cosmos/dss/GF/TMBVARSEQBURDINTP/GFTEST> ;
    rdf:_4 <https://w3id.org/cdisc/cosmos/dss/GF/TMBVARSEQBURDINTP/GFTSTDTL> ;
    rdf:_5 <https://w3id.org/cdisc/cosmos/dss/GF/TMBVARSEQBURDINTP/GFCAT> ;
    rdf:_6 <https://w3id.org/cdisc/cosmos/dss/GF/TMBVARSEQBURDINTP/GFORRES> ;
    rdf:_7 <https://w3id.org/cdisc/cosmos/dss/GF/TMBVARSEQBURDINTP/GFSTRESC> ;
    rdf:_8 <https://w3id.org/cdisc/cosmos/dss/GF/TMBVARSEQBURDINTP/GFSPEC> ;
    rdf:_9 <https://w3id.org/cdisc/cosmos/dss/GF/TMBVARSEQBURDINTP/GFMETHOD> ;
    cosmos_sdtm:biomedicalConceptId NCIT:C181335 ;
    cosmos_sdtm:domain "GF" ;
    cosmos_sdtm:packageDate "2026-05-26"^^xsd:date ;
    cosmos_sdtm:packageType <https://www.cdisc.org/cosmos/sdtm_v1.0/PackageTypeEnum#sdtm> ;
    cosmos_sdtm:sdtmigStartVersion "3-4" ;
    cosmos_sdtm:shortName "Tumor Mutation Burden Variant Sequence Burden Interpretation" ;
    cosmos_sdtm:source "GF.GFTESTCD" ;
    cosmos_sdtm:variables <https://w3id.org/cdisc/cosmos/dss/GF/TMBVARSEQBURDINTP/GFANMETH>,
        <https://w3id.org/cdisc/cosmos/dss/GF/TMBVARSEQBURDINTP/GFCAT>,
        <https://w3id.org/cdisc/cosmos/dss/GF/TMBVARSEQBURDINTP/GFDTC>,
        <https://w3id.org/cdisc/cosmos/dss/GF/TMBVARSEQBURDINTP/GFMETHOD>,
        <https://w3id.org/cdisc/cosmos/dss/GF/TMBVARSEQBURDINTP/GFORRES>,
        <https://w3id.org/cdisc/cosmos/dss/GF/TMBVARSEQBURDINTP/GFSPEC>,
        <https://w3id.org/cdisc/cosmos/dss/GF/TMBVARSEQBURDINTP/GFSTRESC>,
        <https://w3id.org/cdisc/cosmos/dss/GF/TMBVARSEQBURDINTP/GFTEST>,
        <https://w3id.org/cdisc/cosmos/dss/GF/TMBVARSEQBURDINTP/GFTESTCD>,
        <https://w3id.org/cdisc/cosmos/dss/GF/TMBVARSEQBURDINTP/GFTSTDTL>,
        <https://w3id.org/cdisc/cosmos/dss/GF/TMBVARSEQBURDINTP/SPDEVID> .

<https://w3id.org/cdisc/cosmos/dss/GF/TRNSCPTNFRAGCNT> a cosmos_sdtm:SDTMGroup ;
    dcterms:identifier "TRNSCPTNFRAGCNT" ;
    rdf:_1 <https://w3id.org/cdisc/cosmos/dss/GF/TRNSCPTNFRAGCNT/SPDEVID> ;
    rdf:_10 <https://w3id.org/cdisc/cosmos/dss/GF/TRNSCPTNFRAGCNT/GFCHROM> ;
    rdf:_11 <https://w3id.org/cdisc/cosmos/dss/GF/TRNSCPTNFRAGCNT/GFSYM> ;
    rdf:_12 <https://w3id.org/cdisc/cosmos/dss/GF/TRNSCPTNFRAGCNT/GFSYMTYP> ;
    rdf:_13 <https://w3id.org/cdisc/cosmos/dss/GF/TRNSCPTNFRAGCNT/GFSEQID> ;
    rdf:_14 <https://w3id.org/cdisc/cosmos/dss/GF/TRNSCPTNFRAGCNT/GFSPEC> ;
    rdf:_15 <https://w3id.org/cdisc/cosmos/dss/GF/TRNSCPTNFRAGCNT/GFMETHOD> ;
    rdf:_16 <https://w3id.org/cdisc/cosmos/dss/GF/TRNSCPTNFRAGCNT/GFANMETH> ;
    rdf:_17 <https://w3id.org/cdisc/cosmos/dss/GF/TRNSCPTNFRAGCNT/GFDTC> ;
    rdf:_2 <https://w3id.org/cdisc/cosmos/dss/GF/TRNSCPTNFRAGCNT/GFTESTCD> ;
    rdf:_3 <https://w3id.org/cdisc/cosmos/dss/GF/TRNSCPTNFRAGCNT/GFTEST> ;
    rdf:_4 <https://w3id.org/cdisc/cosmos/dss/GF/TRNSCPTNFRAGCNT/GFTSTDTL> ;
    rdf:_5 <https://w3id.org/cdisc/cosmos/dss/GF/TRNSCPTNFRAGCNT/GFCAT> ;
    rdf:_6 <https://w3id.org/cdisc/cosmos/dss/GF/TRNSCPTNFRAGCNT/GFORRES> ;
    rdf:_7 <https://w3id.org/cdisc/cosmos/dss/GF/TRNSCPTNFRAGCNT/GFSTRESC> ;
    rdf:_8 <https://w3id.org/cdisc/cosmos/dss/GF/TRNSCPTNFRAGCNT/GFSTRESN> ;
    rdf:_9 <https://w3id.org/cdisc/cosmos/dss/GF/TRNSCPTNFRAGCNT/GFGENREF> ;
    cosmos_sdtm:biomedicalConceptId NCIT:C17208 ;
    cosmos_sdtm:domain "GF" ;
    cosmos_sdtm:packageDate "2026-05-26"^^xsd:date ;
    cosmos_sdtm:packageType <https://www.cdisc.org/cosmos/sdtm_v1.0/PackageTypeEnum#sdtm> ;
    cosmos_sdtm:sdtmigStartVersion "3-4" ;
    cosmos_sdtm:shortName "Transcription Fragment Count" ;
    cosmos_sdtm:source "GF.GFTESTCD" ;
    cosmos_sdtm:variables <https://w3id.org/cdisc/cosmos/dss/GF/TRNSCPTNFRAGCNT/GFANMETH>,
        <https://w3id.org/cdisc/cosmos/dss/GF/TRNSCPTNFRAGCNT/GFCAT>,
        <https://w3id.org/cdisc/cosmos/dss/GF/TRNSCPTNFRAGCNT/GFCHROM>,
        <https://w3id.org/cdisc/cosmos/dss/GF/TRNSCPTNFRAGCNT/GFDTC>,
        <https://w3id.org/cdisc/cosmos/dss/GF/TRNSCPTNFRAGCNT/GFGENREF>,
        <https://w3id.org/cdisc/cosmos/dss/GF/TRNSCPTNFRAGCNT/GFMETHOD>,
        <https://w3id.org/cdisc/cosmos/dss/GF/TRNSCPTNFRAGCNT/GFORRES>,
        <https://w3id.org/cdisc/cosmos/dss/GF/TRNSCPTNFRAGCNT/GFSEQID>,
        <https://w3id.org/cdisc/cosmos/dss/GF/TRNSCPTNFRAGCNT/GFSPEC>,
        <https://w3id.org/cdisc/cosmos/dss/GF/TRNSCPTNFRAGCNT/GFSTRESC>,
        <https://w3id.org/cdisc/cosmos/dss/GF/TRNSCPTNFRAGCNT/GFSTRESN>,
        <https://w3id.org/cdisc/cosmos/dss/GF/TRNSCPTNFRAGCNT/GFSYM>,
        <https://w3id.org/cdisc/cosmos/dss/GF/TRNSCPTNFRAGCNT/GFSYMTYP>,
        <https://w3id.org/cdisc/cosmos/dss/GF/TRNSCPTNFRAGCNT/GFTEST>,
        <https://w3id.org/cdisc/cosmos/dss/GF/TRNSCPTNFRAGCNT/GFTESTCD>,
        <https://w3id.org/cdisc/cosmos/dss/GF/TRNSCPTNFRAGCNT/GFTSTDTL>,
        <https://w3id.org/cdisc/cosmos/dss/GF/TRNSCPTNFRAGCNT/SPDEVID> .

<https://w3id.org/cdisc/cosmos/dss/GF/TRNSCPTNGENTRNIND> a cosmos_sdtm:SDTMGroup ;
    dcterms:identifier "TRNSCPTNGENTRNIND" ;
    rdf:_1 <https://w3id.org/cdisc/cosmos/dss/GF/TRNSCPTNGENTRNIND/SPDEVID> ;
    rdf:_10 <https://w3id.org/cdisc/cosmos/dss/GF/TRNSCPTNGENTRNIND/GFSYM> ;
    rdf:_11 <https://w3id.org/cdisc/cosmos/dss/GF/TRNSCPTNGENTRNIND/GFSYMTYP> ;
    rdf:_12 <https://w3id.org/cdisc/cosmos/dss/GF/TRNSCPTNGENTRNIND/GFSEQID> ;
    rdf:_13 <https://w3id.org/cdisc/cosmos/dss/GF/TRNSCPTNGENTRNIND/GFSPEC> ;
    rdf:_14 <https://w3id.org/cdisc/cosmos/dss/GF/TRNSCPTNGENTRNIND/GFMETHOD> ;
    rdf:_15 <https://w3id.org/cdisc/cosmos/dss/GF/TRNSCPTNGENTRNIND/GFANMETH> ;
    rdf:_16 <https://w3id.org/cdisc/cosmos/dss/GF/TRNSCPTNGENTRNIND/GFDTC> ;
    rdf:_2 <https://w3id.org/cdisc/cosmos/dss/GF/TRNSCPTNGENTRNIND/GFTESTCD> ;
    rdf:_3 <https://w3id.org/cdisc/cosmos/dss/GF/TRNSCPTNGENTRNIND/GFTEST> ;
    rdf:_4 <https://w3id.org/cdisc/cosmos/dss/GF/TRNSCPTNGENTRNIND/GFTSTDTL> ;
    rdf:_5 <https://w3id.org/cdisc/cosmos/dss/GF/TRNSCPTNGENTRNIND/GFCAT> ;
    rdf:_6 <https://w3id.org/cdisc/cosmos/dss/GF/TRNSCPTNGENTRNIND/GFORRES> ;
    rdf:_7 <https://w3id.org/cdisc/cosmos/dss/GF/TRNSCPTNGENTRNIND/GFSTRESC> ;
    rdf:_8 <https://w3id.org/cdisc/cosmos/dss/GF/TRNSCPTNGENTRNIND/GFGENREF> ;
    rdf:_9 <https://w3id.org/cdisc/cosmos/dss/GF/TRNSCPTNGENTRNIND/GFCHROM> ;
    cosmos_sdtm:biomedicalConceptId NCIT:C17208 ;
    cosmos_sdtm:domain "GF" ;
    cosmos_sdtm:packageDate "2026-05-26"^^xsd:date ;
    cosmos_sdtm:packageType <https://www.cdisc.org/cosmos/sdtm_v1.0/PackageTypeEnum#sdtm> ;
    cosmos_sdtm:sdtmigStartVersion "3-4" ;
    cosmos_sdtm:shortName "Transcription Genetic Indicator" ;
    cosmos_sdtm:source "GF.GFTESTCD" ;
    cosmos_sdtm:variables <https://w3id.org/cdisc/cosmos/dss/GF/TRNSCPTNGENTRNIND/GFANMETH>,
        <https://w3id.org/cdisc/cosmos/dss/GF/TRNSCPTNGENTRNIND/GFCAT>,
        <https://w3id.org/cdisc/cosmos/dss/GF/TRNSCPTNGENTRNIND/GFCHROM>,
        <https://w3id.org/cdisc/cosmos/dss/GF/TRNSCPTNGENTRNIND/GFDTC>,
        <https://w3id.org/cdisc/cosmos/dss/GF/TRNSCPTNGENTRNIND/GFGENREF>,
        <https://w3id.org/cdisc/cosmos/dss/GF/TRNSCPTNGENTRNIND/GFMETHOD>,
        <https://w3id.org/cdisc/cosmos/dss/GF/TRNSCPTNGENTRNIND/GFORRES>,
        <https://w3id.org/cdisc/cosmos/dss/GF/TRNSCPTNGENTRNIND/GFSEQID>,
        <https://w3id.org/cdisc/cosmos/dss/GF/TRNSCPTNGENTRNIND/GFSPEC>,
        <https://w3id.org/cdisc/cosmos/dss/GF/TRNSCPTNGENTRNIND/GFSTRESC>,
        <https://w3id.org/cdisc/cosmos/dss/GF/TRNSCPTNGENTRNIND/GFSYM>,
        <https://w3id.org/cdisc/cosmos/dss/GF/TRNSCPTNGENTRNIND/GFSYMTYP>,
        <https://w3id.org/cdisc/cosmos/dss/GF/TRNSCPTNGENTRNIND/GFTEST>,
        <https://w3id.org/cdisc/cosmos/dss/GF/TRNSCPTNGENTRNIND/GFTESTCD>,
        <https://w3id.org/cdisc/cosmos/dss/GF/TRNSCPTNGENTRNIND/GFTSTDTL>,
        <https://w3id.org/cdisc/cosmos/dss/GF/TRNSCPTNGENTRNIND/SPDEVID> .

<https://w3id.org/cdisc/cosmos/dss/GF/TRNSCPTNNORMLVL> a cosmos_sdtm:SDTMGroup ;
    dcterms:identifier "TRNSCPTNNORMLVL" ;
    rdf:_1 <https://w3id.org/cdisc/cosmos/dss/GF/TRNSCPTNNORMLVL/SPDEVID> ;
    rdf:_10 <https://w3id.org/cdisc/cosmos/dss/GF/TRNSCPTNNORMLVL/GFSTRESU> ;
    rdf:_11 <https://w3id.org/cdisc/cosmos/dss/GF/TRNSCPTNNORMLVL/GFGENREF> ;
    rdf:_12 <https://w3id.org/cdisc/cosmos/dss/GF/TRNSCPTNNORMLVL/GFCHROM> ;
    rdf:_13 <https://w3id.org/cdisc/cosmos/dss/GF/TRNSCPTNNORMLVL/GFSYM> ;
    rdf:_14 <https://w3id.org/cdisc/cosmos/dss/GF/TRNSCPTNNORMLVL/GFSYMTYP> ;
    rdf:_15 <https://w3id.org/cdisc/cosmos/dss/GF/TRNSCPTNNORMLVL/GFSEQID> ;
    rdf:_16 <https://w3id.org/cdisc/cosmos/dss/GF/TRNSCPTNNORMLVL/GFSPEC> ;
    rdf:_17 <https://w3id.org/cdisc/cosmos/dss/GF/TRNSCPTNNORMLVL/GFMETHOD> ;
    rdf:_18 <https://w3id.org/cdisc/cosmos/dss/GF/TRNSCPTNNORMLVL/GFANMETH> ;
    rdf:_19 <https://w3id.org/cdisc/cosmos/dss/GF/TRNSCPTNNORMLVL/GFDTC> ;
    rdf:_2 <https://w3id.org/cdisc/cosmos/dss/GF/TRNSCPTNNORMLVL/GFTESTCD> ;
    rdf:_3 <https://w3id.org/cdisc/cosmos/dss/GF/TRNSCPTNNORMLVL/GFTEST> ;
    rdf:_4 <https://w3id.org/cdisc/cosmos/dss/GF/TRNSCPTNNORMLVL/GFTSTDTL> ;
    rdf:_5 <https://w3id.org/cdisc/cosmos/dss/GF/TRNSCPTNNORMLVL/GFCAT> ;
    rdf:_6 <https://w3id.org/cdisc/cosmos/dss/GF/TRNSCPTNNORMLVL/GFORRES> ;
    rdf:_7 <https://w3id.org/cdisc/cosmos/dss/GF/TRNSCPTNNORMLVL/GFORRESU> ;
    rdf:_8 <https://w3id.org/cdisc/cosmos/dss/GF/TRNSCPTNNORMLVL/GFSTRESC> ;
    rdf:_9 <https://w3id.org/cdisc/cosmos/dss/GF/TRNSCPTNNORMLVL/GFSTRESN> ;
    cosmos_sdtm:biomedicalConceptId NCIT:C17208 ;
    cosmos_sdtm:domain "GF" ;
    cosmos_sdtm:packageDate "2026-05-26"^^xsd:date ;
    cosmos_sdtm:packageType <https://www.cdisc.org/cosmos/sdtm_v1.0/PackageTypeEnum#sdtm> ;
    cosmos_sdtm:sdtmigStartVersion "3-4" ;
    cosmos_sdtm:shortName "Transcription Normalized Level" ;
    cosmos_sdtm:source "GF.GFTESTCD" ;
    cosmos_sdtm:variables <https://w3id.org/cdisc/cosmos/dss/GF/TRNSCPTNNORMLVL/GFANMETH>,
        <https://w3id.org/cdisc/cosmos/dss/GF/TRNSCPTNNORMLVL/GFCAT>,
        <https://w3id.org/cdisc/cosmos/dss/GF/TRNSCPTNNORMLVL/GFCHROM>,
        <https://w3id.org/cdisc/cosmos/dss/GF/TRNSCPTNNORMLVL/GFDTC>,
        <https://w3id.org/cdisc/cosmos/dss/GF/TRNSCPTNNORMLVL/GFGENREF>,
        <https://w3id.org/cdisc/cosmos/dss/GF/TRNSCPTNNORMLVL/GFMETHOD>,
        <https://w3id.org/cdisc/cosmos/dss/GF/TRNSCPTNNORMLVL/GFORRES>,
        <https://w3id.org/cdisc/cosmos/dss/GF/TRNSCPTNNORMLVL/GFORRESU>,
        <https://w3id.org/cdisc/cosmos/dss/GF/TRNSCPTNNORMLVL/GFSEQID>,
        <https://w3id.org/cdisc/cosmos/dss/GF/TRNSCPTNNORMLVL/GFSPEC>,
        <https://w3id.org/cdisc/cosmos/dss/GF/TRNSCPTNNORMLVL/GFSTRESC>,
        <https://w3id.org/cdisc/cosmos/dss/GF/TRNSCPTNNORMLVL/GFSTRESN>,
        <https://w3id.org/cdisc/cosmos/dss/GF/TRNSCPTNNORMLVL/GFSTRESU>,
        <https://w3id.org/cdisc/cosmos/dss/GF/TRNSCPTNNORMLVL/GFSYM>,
        <https://w3id.org/cdisc/cosmos/dss/GF/TRNSCPTNNORMLVL/GFSYMTYP>,
        <https://w3id.org/cdisc/cosmos/dss/GF/TRNSCPTNNORMLVL/GFTEST>,
        <https://w3id.org/cdisc/cosmos/dss/GF/TRNSCPTNNORMLVL/GFTESTCD>,
        <https://w3id.org/cdisc/cosmos/dss/GF/TRNSCPTNNORMLVL/GFTSTDTL>,
        <https://w3id.org/cdisc/cosmos/dss/GF/TRNSCPTNNORMLVL/SPDEVID> .

<https://w3id.org/cdisc/cosmos/dss/GF/TRNSCPTNNORMLVLDIFF> a cosmos_sdtm:SDTMGroup ;
    dcterms:identifier "TRNSCPTNNORMLVLDIFF" ;
    rdf:_1 <https://w3id.org/cdisc/cosmos/dss/GF/TRNSCPTNNORMLVLDIFF/SPDEVID> ;
    rdf:_10 <https://w3id.org/cdisc/cosmos/dss/GF/TRNSCPTNNORMLVLDIFF/GFCHROM> ;
    rdf:_11 <https://w3id.org/cdisc/cosmos/dss/GF/TRNSCPTNNORMLVLDIFF/GFSYM> ;
    rdf:_12 <https://w3id.org/cdisc/cosmos/dss/GF/TRNSCPTNNORMLVLDIFF/GFSYMTYP> ;
    rdf:_13 <https://w3id.org/cdisc/cosmos/dss/GF/TRNSCPTNNORMLVLDIFF/GFSEQID> ;
    rdf:_14 <https://w3id.org/cdisc/cosmos/dss/GF/TRNSCPTNNORMLVLDIFF/GFSPEC> ;
    rdf:_15 <https://w3id.org/cdisc/cosmos/dss/GF/TRNSCPTNNORMLVLDIFF/GFMETHOD> ;
    rdf:_16 <https://w3id.org/cdisc/cosmos/dss/GF/TRNSCPTNNORMLVLDIFF/GFANMETH> ;
    rdf:_17 <https://w3id.org/cdisc/cosmos/dss/GF/TRNSCPTNNORMLVLDIFF/GFDTC> ;
    rdf:_2 <https://w3id.org/cdisc/cosmos/dss/GF/TRNSCPTNNORMLVLDIFF/GFTESTCD> ;
    rdf:_3 <https://w3id.org/cdisc/cosmos/dss/GF/TRNSCPTNNORMLVLDIFF/GFTEST> ;
    rdf:_4 <https://w3id.org/cdisc/cosmos/dss/GF/TRNSCPTNNORMLVLDIFF/GFTSTDTL> ;
    rdf:_5 <https://w3id.org/cdisc/cosmos/dss/GF/TRNSCPTNNORMLVLDIFF/GFCAT> ;
    rdf:_6 <https://w3id.org/cdisc/cosmos/dss/GF/TRNSCPTNNORMLVLDIFF/GFORRES> ;
    rdf:_7 <https://w3id.org/cdisc/cosmos/dss/GF/TRNSCPTNNORMLVLDIFF/GFSTRESC> ;
    rdf:_8 <https://w3id.org/cdisc/cosmos/dss/GF/TRNSCPTNNORMLVLDIFF/GFSTRESN> ;
    rdf:_9 <https://w3id.org/cdisc/cosmos/dss/GF/TRNSCPTNNORMLVLDIFF/GFGENREF> ;
    cosmos_sdtm:biomedicalConceptId NCIT:C17208 ;
    cosmos_sdtm:domain "GF" ;
    cosmos_sdtm:packageDate "2026-05-26"^^xsd:date ;
    cosmos_sdtm:packageType <https://www.cdisc.org/cosmos/sdtm_v1.0/PackageTypeEnum#sdtm> ;
    cosmos_sdtm:sdtmigStartVersion "3-4" ;
    cosmos_sdtm:shortName "Transcription Normalized Level/Differences of LOG2 Intensities Forumula" ;
    cosmos_sdtm:source "GF.GFTESTCD" ;
    cosmos_sdtm:variables <https://w3id.org/cdisc/cosmos/dss/GF/TRNSCPTNNORMLVLDIFF/GFANMETH>,
        <https://w3id.org/cdisc/cosmos/dss/GF/TRNSCPTNNORMLVLDIFF/GFCAT>,
        <https://w3id.org/cdisc/cosmos/dss/GF/TRNSCPTNNORMLVLDIFF/GFCHROM>,
        <https://w3id.org/cdisc/cosmos/dss/GF/TRNSCPTNNORMLVLDIFF/GFDTC>,
        <https://w3id.org/cdisc/cosmos/dss/GF/TRNSCPTNNORMLVLDIFF/GFGENREF>,
        <https://w3id.org/cdisc/cosmos/dss/GF/TRNSCPTNNORMLVLDIFF/GFMETHOD>,
        <https://w3id.org/cdisc/cosmos/dss/GF/TRNSCPTNNORMLVLDIFF/GFORRES>,
        <https://w3id.org/cdisc/cosmos/dss/GF/TRNSCPTNNORMLVLDIFF/GFSEQID>,
        <https://w3id.org/cdisc/cosmos/dss/GF/TRNSCPTNNORMLVLDIFF/GFSPEC>,
        <https://w3id.org/cdisc/cosmos/dss/GF/TRNSCPTNNORMLVLDIFF/GFSTRESC>,
        <https://w3id.org/cdisc/cosmos/dss/GF/TRNSCPTNNORMLVLDIFF/GFSTRESN>,
        <https://w3id.org/cdisc/cosmos/dss/GF/TRNSCPTNNORMLVLDIFF/GFSYM>,
        <https://w3id.org/cdisc/cosmos/dss/GF/TRNSCPTNNORMLVLDIFF/GFSYMTYP>,
        <https://w3id.org/cdisc/cosmos/dss/GF/TRNSCPTNNORMLVLDIFF/GFTEST>,
        <https://w3id.org/cdisc/cosmos/dss/GF/TRNSCPTNNORMLVLDIFF/GFTESTCD>,
        <https://w3id.org/cdisc/cosmos/dss/GF/TRNSCPTNNORMLVLDIFF/GFTSTDTL>,
        <https://w3id.org/cdisc/cosmos/dss/GF/TRNSCPTNNORMLVLDIFF/SPDEVID> .

<https://w3id.org/cdisc/cosmos/dss/GF/TRNSCPTNPERCNTRANK> a cosmos_sdtm:SDTMGroup ;
    dcterms:identifier "TRNSCPTNPERCNTRANK" ;
    rdf:_1 <https://w3id.org/cdisc/cosmos/dss/GF/TRNSCPTNPERCNTRANK/SPDEVID> ;
    rdf:_10 <https://w3id.org/cdisc/cosmos/dss/GF/TRNSCPTNPERCNTRANK/GFSTRESU> ;
    rdf:_11 <https://w3id.org/cdisc/cosmos/dss/GF/TRNSCPTNPERCNTRANK/GFGENREF> ;
    rdf:_12 <https://w3id.org/cdisc/cosmos/dss/GF/TRNSCPTNPERCNTRANK/GFCHROM> ;
    rdf:_13 <https://w3id.org/cdisc/cosmos/dss/GF/TRNSCPTNPERCNTRANK/GFSYM> ;
    rdf:_14 <https://w3id.org/cdisc/cosmos/dss/GF/TRNSCPTNPERCNTRANK/GFSYMTYP> ;
    rdf:_15 <https://w3id.org/cdisc/cosmos/dss/GF/TRNSCPTNPERCNTRANK/GFSEQID> ;
    rdf:_16 <https://w3id.org/cdisc/cosmos/dss/GF/TRNSCPTNPERCNTRANK/GFSPEC> ;
    rdf:_17 <https://w3id.org/cdisc/cosmos/dss/GF/TRNSCPTNPERCNTRANK/GFMETHOD> ;
    rdf:_18 <https://w3id.org/cdisc/cosmos/dss/GF/TRNSCPTNPERCNTRANK/GFANMETH> ;
    rdf:_19 <https://w3id.org/cdisc/cosmos/dss/GF/TRNSCPTNPERCNTRANK/GFDTC> ;
    rdf:_2 <https://w3id.org/cdisc/cosmos/dss/GF/TRNSCPTNPERCNTRANK/GFTESTCD> ;
    rdf:_3 <https://w3id.org/cdisc/cosmos/dss/GF/TRNSCPTNPERCNTRANK/GFTEST> ;
    rdf:_4 <https://w3id.org/cdisc/cosmos/dss/GF/TRNSCPTNPERCNTRANK/GFTSTDTL> ;
    rdf:_5 <https://w3id.org/cdisc/cosmos/dss/GF/TRNSCPTNPERCNTRANK/GFCAT> ;
    rdf:_6 <https://w3id.org/cdisc/cosmos/dss/GF/TRNSCPTNPERCNTRANK/GFORRES> ;
    rdf:_7 <https://w3id.org/cdisc/cosmos/dss/GF/TRNSCPTNPERCNTRANK/GFORRESU> ;
    rdf:_8 <https://w3id.org/cdisc/cosmos/dss/GF/TRNSCPTNPERCNTRANK/GFSTRESC> ;
    rdf:_9 <https://w3id.org/cdisc/cosmos/dss/GF/TRNSCPTNPERCNTRANK/GFSTRESN> ;
    cosmos_sdtm:biomedicalConceptId NCIT:C17208 ;
    cosmos_sdtm:domain "GF" ;
    cosmos_sdtm:packageDate "2026-05-26"^^xsd:date ;
    cosmos_sdtm:packageType <https://www.cdisc.org/cosmos/sdtm_v1.0/PackageTypeEnum#sdtm> ;
    cosmos_sdtm:sdtmigStartVersion "3-4" ;
    cosmos_sdtm:shortName "Transcription Percentile Rank" ;
    cosmos_sdtm:source "GF.GFTESTCD" ;
    cosmos_sdtm:variables <https://w3id.org/cdisc/cosmos/dss/GF/TRNSCPTNPERCNTRANK/GFANMETH>,
        <https://w3id.org/cdisc/cosmos/dss/GF/TRNSCPTNPERCNTRANK/GFCAT>,
        <https://w3id.org/cdisc/cosmos/dss/GF/TRNSCPTNPERCNTRANK/GFCHROM>,
        <https://w3id.org/cdisc/cosmos/dss/GF/TRNSCPTNPERCNTRANK/GFDTC>,
        <https://w3id.org/cdisc/cosmos/dss/GF/TRNSCPTNPERCNTRANK/GFGENREF>,
        <https://w3id.org/cdisc/cosmos/dss/GF/TRNSCPTNPERCNTRANK/GFMETHOD>,
        <https://w3id.org/cdisc/cosmos/dss/GF/TRNSCPTNPERCNTRANK/GFORRES>,
        <https://w3id.org/cdisc/cosmos/dss/GF/TRNSCPTNPERCNTRANK/GFORRESU>,
        <https://w3id.org/cdisc/cosmos/dss/GF/TRNSCPTNPERCNTRANK/GFSEQID>,
        <https://w3id.org/cdisc/cosmos/dss/GF/TRNSCPTNPERCNTRANK/GFSPEC>,
        <https://w3id.org/cdisc/cosmos/dss/GF/TRNSCPTNPERCNTRANK/GFSTRESC>,
        <https://w3id.org/cdisc/cosmos/dss/GF/TRNSCPTNPERCNTRANK/GFSTRESN>,
        <https://w3id.org/cdisc/cosmos/dss/GF/TRNSCPTNPERCNTRANK/GFSTRESU>,
        <https://w3id.org/cdisc/cosmos/dss/GF/TRNSCPTNPERCNTRANK/GFSYM>,
        <https://w3id.org/cdisc/cosmos/dss/GF/TRNSCPTNPERCNTRANK/GFSYMTYP>,
        <https://w3id.org/cdisc/cosmos/dss/GF/TRNSCPTNPERCNTRANK/GFTEST>,
        <https://w3id.org/cdisc/cosmos/dss/GF/TRNSCPTNPERCNTRANK/GFTESTCD>,
        <https://w3id.org/cdisc/cosmos/dss/GF/TRNSCPTNPERCNTRANK/GFTSTDTL>,
        <https://w3id.org/cdisc/cosmos/dss/GF/TRNSCPTNPERCNTRANK/SPDEVID> .

<https://w3id.org/cdisc/cosmos/dss/GF/VARPROFPRDIPLO> a cosmos_sdtm:SDTMGroup ;
    dcterms:identifier "VARPROFPRDIPLO" ;
    rdf:_1 <https://w3id.org/cdisc/cosmos/dss/GF/VARPROFPRDIPLO/SPDEVID> ;
    rdf:_10 <https://w3id.org/cdisc/cosmos/dss/GF/VARPROFPRDIPLO/GFCOPYID> ;
    rdf:_11 <https://w3id.org/cdisc/cosmos/dss/GF/VARPROFPRDIPLO/GFSPEC> ;
    rdf:_12 <https://w3id.org/cdisc/cosmos/dss/GF/VARPROFPRDIPLO/GFMETHOD> ;
    rdf:_13 <https://w3id.org/cdisc/cosmos/dss/GF/VARPROFPRDIPLO/GFANMETH> ;
    rdf:_14 <https://w3id.org/cdisc/cosmos/dss/GF/VARPROFPRDIPLO/GFDTC> ;
    rdf:_2 <https://w3id.org/cdisc/cosmos/dss/GF/VARPROFPRDIPLO/GFTESTCD> ;
    rdf:_3 <https://w3id.org/cdisc/cosmos/dss/GF/VARPROFPRDIPLO/GFTEST> ;
    rdf:_4 <https://w3id.org/cdisc/cosmos/dss/GF/VARPROFPRDIPLO/GFTSTDTL> ;
    rdf:_5 <https://w3id.org/cdisc/cosmos/dss/GF/VARPROFPRDIPLO/GFCAT> ;
    rdf:_6 <https://w3id.org/cdisc/cosmos/dss/GF/VARPROFPRDIPLO/GFORRES> ;
    rdf:_7 <https://w3id.org/cdisc/cosmos/dss/GF/VARPROFPRDIPLO/GFSTRESC> ;
    rdf:_8 <https://w3id.org/cdisc/cosmos/dss/GF/VARPROFPRDIPLO/GFSYM> ;
    rdf:_9 <https://w3id.org/cdisc/cosmos/dss/GF/VARPROFPRDIPLO/GFSYMTYP> ;
    cosmos_sdtm:biomedicalConceptId NCIT:C189441 ;
    cosmos_sdtm:domain "GF" ;
    cosmos_sdtm:packageDate "2026-05-26"^^xsd:date ;
    cosmos_sdtm:packageType <https://www.cdisc.org/cosmos/sdtm_v1.0/PackageTypeEnum#sdtm> ;
    cosmos_sdtm:sdtmigStartVersion "3-4" ;
    cosmos_sdtm:shortName "Variant Profile Predicted Diplotype" ;
    cosmos_sdtm:source "GF.GFTESTCD" ;
    cosmos_sdtm:variables <https://w3id.org/cdisc/cosmos/dss/GF/VARPROFPRDIPLO/GFANMETH>,
        <https://w3id.org/cdisc/cosmos/dss/GF/VARPROFPRDIPLO/GFCAT>,
        <https://w3id.org/cdisc/cosmos/dss/GF/VARPROFPRDIPLO/GFCOPYID>,
        <https://w3id.org/cdisc/cosmos/dss/GF/VARPROFPRDIPLO/GFDTC>,
        <https://w3id.org/cdisc/cosmos/dss/GF/VARPROFPRDIPLO/GFMETHOD>,
        <https://w3id.org/cdisc/cosmos/dss/GF/VARPROFPRDIPLO/GFORRES>,
        <https://w3id.org/cdisc/cosmos/dss/GF/VARPROFPRDIPLO/GFSPEC>,
        <https://w3id.org/cdisc/cosmos/dss/GF/VARPROFPRDIPLO/GFSTRESC>,
        <https://w3id.org/cdisc/cosmos/dss/GF/VARPROFPRDIPLO/GFSYM>,
        <https://w3id.org/cdisc/cosmos/dss/GF/VARPROFPRDIPLO/GFSYMTYP>,
        <https://w3id.org/cdisc/cosmos/dss/GF/VARPROFPRDIPLO/GFTEST>,
        <https://w3id.org/cdisc/cosmos/dss/GF/VARPROFPRDIPLO/GFTESTCD>,
        <https://w3id.org/cdisc/cosmos/dss/GF/VARPROFPRDIPLO/GFTSTDTL>,
        <https://w3id.org/cdisc/cosmos/dss/GF/VARPROFPRDIPLO/SPDEVID> .

<https://w3id.org/cdisc/cosmos/dss/GF/VARPROFPRPHENO> a cosmos_sdtm:SDTMGroup ;
    dcterms:identifier "VARPROFPRPHENO" ;
    rdf:_1 <https://w3id.org/cdisc/cosmos/dss/GF/VARPROFPRPHENO/SPDEVID> ;
    rdf:_10 <https://w3id.org/cdisc/cosmos/dss/GF/VARPROFPRPHENO/GFCOPYID> ;
    rdf:_11 <https://w3id.org/cdisc/cosmos/dss/GF/VARPROFPRPHENO/GFSPEC> ;
    rdf:_12 <https://w3id.org/cdisc/cosmos/dss/GF/VARPROFPRPHENO/GFMETHOD> ;
    rdf:_13 <https://w3id.org/cdisc/cosmos/dss/GF/VARPROFPRPHENO/GFANMETH> ;
    rdf:_14 <https://w3id.org/cdisc/cosmos/dss/GF/VARPROFPRPHENO/GFDTC> ;
    rdf:_2 <https://w3id.org/cdisc/cosmos/dss/GF/VARPROFPRPHENO/GFTESTCD> ;
    rdf:_3 <https://w3id.org/cdisc/cosmos/dss/GF/VARPROFPRPHENO/GFTEST> ;
    rdf:_4 <https://w3id.org/cdisc/cosmos/dss/GF/VARPROFPRPHENO/GFTSTDTL> ;
    rdf:_5 <https://w3id.org/cdisc/cosmos/dss/GF/VARPROFPRPHENO/GFCAT> ;
    rdf:_6 <https://w3id.org/cdisc/cosmos/dss/GF/VARPROFPRPHENO/GFORRES> ;
    rdf:_7 <https://w3id.org/cdisc/cosmos/dss/GF/VARPROFPRPHENO/GFSTRESC> ;
    rdf:_8 <https://w3id.org/cdisc/cosmos/dss/GF/VARPROFPRPHENO/GFSYM> ;
    rdf:_9 <https://w3id.org/cdisc/cosmos/dss/GF/VARPROFPRPHENO/GFSYMTYP> ;
    cosmos_sdtm:biomedicalConceptId NCIT:C189441 ;
    cosmos_sdtm:domain "GF" ;
    cosmos_sdtm:packageDate "2026-05-26"^^xsd:date ;
    cosmos_sdtm:packageType <https://www.cdisc.org/cosmos/sdtm_v1.0/PackageTypeEnum#sdtm> ;
    cosmos_sdtm:sdtmigStartVersion "3-4" ;
    cosmos_sdtm:shortName "Variant Profile Predicted Phenotype" ;
    cosmos_sdtm:source "GF.GFTESTCD" ;
    cosmos_sdtm:variables <https://w3id.org/cdisc/cosmos/dss/GF/VARPROFPRPHENO/GFANMETH>,
        <https://w3id.org/cdisc/cosmos/dss/GF/VARPROFPRPHENO/GFCAT>,
        <https://w3id.org/cdisc/cosmos/dss/GF/VARPROFPRPHENO/GFCOPYID>,
        <https://w3id.org/cdisc/cosmos/dss/GF/VARPROFPRPHENO/GFDTC>,
        <https://w3id.org/cdisc/cosmos/dss/GF/VARPROFPRPHENO/GFMETHOD>,
        <https://w3id.org/cdisc/cosmos/dss/GF/VARPROFPRPHENO/GFORRES>,
        <https://w3id.org/cdisc/cosmos/dss/GF/VARPROFPRPHENO/GFSPEC>,
        <https://w3id.org/cdisc/cosmos/dss/GF/VARPROFPRPHENO/GFSTRESC>,
        <https://w3id.org/cdisc/cosmos/dss/GF/VARPROFPRPHENO/GFSYM>,
        <https://w3id.org/cdisc/cosmos/dss/GF/VARPROFPRPHENO/GFSYMTYP>,
        <https://w3id.org/cdisc/cosmos/dss/GF/VARPROFPRPHENO/GFTEST>,
        <https://w3id.org/cdisc/cosmos/dss/GF/VARPROFPRPHENO/GFTESTCD>,
        <https://w3id.org/cdisc/cosmos/dss/GF/VARPROFPRPHENO/GFTSTDTL>,
        <https://w3id.org/cdisc/cosmos/dss/GF/VARPROFPRPHENO/SPDEVID> .

<https://w3id.org/cdisc/cosmos/dss/GF/VNTRNCAGRPT> a cosmos_sdtm:SDTMGroup ;
    dcterms:identifier "VNTRNCAGRPT" ;
    rdf:_1 <https://w3id.org/cdisc/cosmos/dss/GF/VNTRNCAGRPT/GFTESTCD> ;
    rdf:_10 <https://w3id.org/cdisc/cosmos/dss/GF/VNTRNCAGRPT/GFGENLOC> ;
    rdf:_11 <https://w3id.org/cdisc/cosmos/dss/GF/VNTRNCAGRPT/GFGENSR> ;
    rdf:_12 <https://w3id.org/cdisc/cosmos/dss/GF/VNTRNCAGRPT/GFSEQID> ;
    rdf:_13 <https://w3id.org/cdisc/cosmos/dss/GF/VNTRNCAGRPT/GFCOPYID> ;
    rdf:_14 <https://w3id.org/cdisc/cosmos/dss/GF/VNTRNCAGRPT/GFSPEC> ;
    rdf:_15 <https://w3id.org/cdisc/cosmos/dss/GF/VNTRNCAGRPT/GFMETHOD> ;
    rdf:_16 <https://w3id.org/cdisc/cosmos/dss/GF/VNTRNCAGRPT/GFANMETH> ;
    rdf:_17 <https://w3id.org/cdisc/cosmos/dss/GF/VNTRNCAGRPT/GFDTC> ;
    rdf:_2 <https://w3id.org/cdisc/cosmos/dss/GF/VNTRNCAGRPT/GFTEST> ;
    rdf:_3 <https://w3id.org/cdisc/cosmos/dss/GF/VNTRNCAGRPT/GFTSTDTL> ;
    rdf:_4 <https://w3id.org/cdisc/cosmos/dss/GF/VNTRNCAGRPT/GFCAT> ;
    rdf:_5 <https://w3id.org/cdisc/cosmos/dss/GF/VNTRNCAGRPT/GFORRES> ;
    rdf:_6 <https://w3id.org/cdisc/cosmos/dss/GF/VNTRNCAGRPT/GFSTRESC> ;
    rdf:_7 <https://w3id.org/cdisc/cosmos/dss/GF/VNTRNCAGRPT/GFSTRESN> ;
    rdf:_8 <https://w3id.org/cdisc/cosmos/dss/GF/VNTRNCAGRPT/GFSYM> ;
    rdf:_9 <https://w3id.org/cdisc/cosmos/dss/GF/VNTRNCAGRPT/GFSYMTYP> ;
    cosmos_sdtm:biomedicalConceptId NCIT:C189440 ;
    cosmos_sdtm:domain "GF" ;
    cosmos_sdtm:packageDate "2026-05-26"^^xsd:date ;
    cosmos_sdtm:packageType <https://www.cdisc.org/cosmos/sdtm_v1.0/PackageTypeEnum#sdtm> ;
    cosmos_sdtm:sdtmigStartVersion "3-4" ;
    cosmos_sdtm:shortName "Variable Number Tandem Repeats CAG Repeats" ;
    cosmos_sdtm:source "GF.GFTESTCD" ;
    cosmos_sdtm:variables <https://w3id.org/cdisc/cosmos/dss/GF/VNTRNCAGRPT/GFANMETH>,
        <https://w3id.org/cdisc/cosmos/dss/GF/VNTRNCAGRPT/GFCAT>,
        <https://w3id.org/cdisc/cosmos/dss/GF/VNTRNCAGRPT/GFCOPYID>,
        <https://w3id.org/cdisc/cosmos/dss/GF/VNTRNCAGRPT/GFDTC>,
        <https://w3id.org/cdisc/cosmos/dss/GF/VNTRNCAGRPT/GFGENLOC>,
        <https://w3id.org/cdisc/cosmos/dss/GF/VNTRNCAGRPT/GFGENSR>,
        <https://w3id.org/cdisc/cosmos/dss/GF/VNTRNCAGRPT/GFMETHOD>,
        <https://w3id.org/cdisc/cosmos/dss/GF/VNTRNCAGRPT/GFORRES>,
        <https://w3id.org/cdisc/cosmos/dss/GF/VNTRNCAGRPT/GFSEQID>,
        <https://w3id.org/cdisc/cosmos/dss/GF/VNTRNCAGRPT/GFSPEC>,
        <https://w3id.org/cdisc/cosmos/dss/GF/VNTRNCAGRPT/GFSTRESC>,
        <https://w3id.org/cdisc/cosmos/dss/GF/VNTRNCAGRPT/GFSTRESN>,
        <https://w3id.org/cdisc/cosmos/dss/GF/VNTRNCAGRPT/GFSYM>,
        <https://w3id.org/cdisc/cosmos/dss/GF/VNTRNCAGRPT/GFSYMTYP>,
        <https://w3id.org/cdisc/cosmos/dss/GF/VNTRNCAGRPT/GFTEST>,
        <https://w3id.org/cdisc/cosmos/dss/GF/VNTRNCAGRPT/GFTESTCD>,
        <https://w3id.org/cdisc/cosmos/dss/GF/VNTRNCAGRPT/GFTSTDTL> .

<https://w3id.org/cdisc/cosmos/dss/GF/VNTRNUCLSEQ> a cosmos_sdtm:SDTMGroup ;
    dcterms:identifier "VNTRNUCLSEQ" ;
    rdf:_1 <https://w3id.org/cdisc/cosmos/dss/GF/VNTRNUCLSEQ/GFTESTCD> ;
    rdf:_10 <https://w3id.org/cdisc/cosmos/dss/GF/VNTRNUCLSEQ/GFGENSR> ;
    rdf:_11 <https://w3id.org/cdisc/cosmos/dss/GF/VNTRNUCLSEQ/GFSEQID> ;
    rdf:_12 <https://w3id.org/cdisc/cosmos/dss/GF/VNTRNUCLSEQ/GFCOPYID> ;
    rdf:_13 <https://w3id.org/cdisc/cosmos/dss/GF/VNTRNUCLSEQ/GFSPEC> ;
    rdf:_14 <https://w3id.org/cdisc/cosmos/dss/GF/VNTRNUCLSEQ/GFMETHOD> ;
    rdf:_15 <https://w3id.org/cdisc/cosmos/dss/GF/VNTRNUCLSEQ/GFANMETH> ;
    rdf:_16 <https://w3id.org/cdisc/cosmos/dss/GF/VNTRNUCLSEQ/GFDTC> ;
    rdf:_2 <https://w3id.org/cdisc/cosmos/dss/GF/VNTRNUCLSEQ/GFTEST> ;
    rdf:_3 <https://w3id.org/cdisc/cosmos/dss/GF/VNTRNUCLSEQ/GFTSTDTL> ;
    rdf:_4 <https://w3id.org/cdisc/cosmos/dss/GF/VNTRNUCLSEQ/GFCAT> ;
    rdf:_5 <https://w3id.org/cdisc/cosmos/dss/GF/VNTRNUCLSEQ/GFORRES> ;
    rdf:_6 <https://w3id.org/cdisc/cosmos/dss/GF/VNTRNUCLSEQ/GFSTRESC> ;
    rdf:_7 <https://w3id.org/cdisc/cosmos/dss/GF/VNTRNUCLSEQ/GFSYM> ;
    rdf:_8 <https://w3id.org/cdisc/cosmos/dss/GF/VNTRNUCLSEQ/GFSYMTYP> ;
    rdf:_9 <https://w3id.org/cdisc/cosmos/dss/GF/VNTRNUCLSEQ/GFGENLOC> ;
    cosmos_sdtm:biomedicalConceptId NCIT:C189440 ;
    cosmos_sdtm:domain "GF" ;
    cosmos_sdtm:packageDate "2026-05-26"^^xsd:date ;
    cosmos_sdtm:packageType <https://www.cdisc.org/cosmos/sdtm_v1.0/PackageTypeEnum#sdtm> ;
    cosmos_sdtm:sdtmigStartVersion "3-4" ;
    cosmos_sdtm:shortName "Variable Number Tandem Repeats Nucleotide Sequence" ;
    cosmos_sdtm:source "GF.GFTESTCD" ;
    cosmos_sdtm:variables <https://w3id.org/cdisc/cosmos/dss/GF/VNTRNUCLSEQ/GFANMETH>,
        <https://w3id.org/cdisc/cosmos/dss/GF/VNTRNUCLSEQ/GFCAT>,
        <https://w3id.org/cdisc/cosmos/dss/GF/VNTRNUCLSEQ/GFCOPYID>,
        <https://w3id.org/cdisc/cosmos/dss/GF/VNTRNUCLSEQ/GFDTC>,
        <https://w3id.org/cdisc/cosmos/dss/GF/VNTRNUCLSEQ/GFGENLOC>,
        <https://w3id.org/cdisc/cosmos/dss/GF/VNTRNUCLSEQ/GFGENSR>,
        <https://w3id.org/cdisc/cosmos/dss/GF/VNTRNUCLSEQ/GFMETHOD>,
        <https://w3id.org/cdisc/cosmos/dss/GF/VNTRNUCLSEQ/GFORRES>,
        <https://w3id.org/cdisc/cosmos/dss/GF/VNTRNUCLSEQ/GFSEQID>,
        <https://w3id.org/cdisc/cosmos/dss/GF/VNTRNUCLSEQ/GFSPEC>,
        <https://w3id.org/cdisc/cosmos/dss/GF/VNTRNUCLSEQ/GFSTRESC>,
        <https://w3id.org/cdisc/cosmos/dss/GF/VNTRNUCLSEQ/GFSYM>,
        <https://w3id.org/cdisc/cosmos/dss/GF/VNTRNUCLSEQ/GFSYMTYP>,
        <https://w3id.org/cdisc/cosmos/dss/GF/VNTRNUCLSEQ/GFTEST>,
        <https://w3id.org/cdisc/cosmos/dss/GF/VNTRNUCLSEQ/GFTESTCD>,
        <https://w3id.org/cdisc/cosmos/dss/GF/VNTRNUCLSEQ/GFTSTDTL> .

<https://w3id.org/cdisc/cosmos/dss/GF/VNTRPNCAGRPT> a cosmos_sdtm:SDTMGroup ;
    dcterms:identifier "VNTRPNCAGRPT" ;
    rdf:_1 <https://w3id.org/cdisc/cosmos/dss/GF/VNTRPNCAGRPT/GFTESTCD> ;
    rdf:_10 <https://w3id.org/cdisc/cosmos/dss/GF/VNTRPNCAGRPT/GFGENLOC> ;
    rdf:_11 <https://w3id.org/cdisc/cosmos/dss/GF/VNTRPNCAGRPT/GFGENSR> ;
    rdf:_12 <https://w3id.org/cdisc/cosmos/dss/GF/VNTRPNCAGRPT/GFSEQID> ;
    rdf:_13 <https://w3id.org/cdisc/cosmos/dss/GF/VNTRPNCAGRPT/GFCOPYID> ;
    rdf:_14 <https://w3id.org/cdisc/cosmos/dss/GF/VNTRPNCAGRPT/GFSPEC> ;
    rdf:_15 <https://w3id.org/cdisc/cosmos/dss/GF/VNTRPNCAGRPT/GFMETHOD> ;
    rdf:_16 <https://w3id.org/cdisc/cosmos/dss/GF/VNTRPNCAGRPT/GFANMETH> ;
    rdf:_17 <https://w3id.org/cdisc/cosmos/dss/GF/VNTRPNCAGRPT/GFDTC> ;
    rdf:_2 <https://w3id.org/cdisc/cosmos/dss/GF/VNTRPNCAGRPT/GFTEST> ;
    rdf:_3 <https://w3id.org/cdisc/cosmos/dss/GF/VNTRPNCAGRPT/GFTSTDTL> ;
    rdf:_4 <https://w3id.org/cdisc/cosmos/dss/GF/VNTRPNCAGRPT/GFCAT> ;
    rdf:_5 <https://w3id.org/cdisc/cosmos/dss/GF/VNTRPNCAGRPT/GFORRES> ;
    rdf:_6 <https://w3id.org/cdisc/cosmos/dss/GF/VNTRPNCAGRPT/GFSTRESC> ;
    rdf:_7 <https://w3id.org/cdisc/cosmos/dss/GF/VNTRPNCAGRPT/GFSTRESN> ;
    rdf:_8 <https://w3id.org/cdisc/cosmos/dss/GF/VNTRPNCAGRPT/GFSYM> ;
    rdf:_9 <https://w3id.org/cdisc/cosmos/dss/GF/VNTRPNCAGRPT/GFSYMTYP> ;
    cosmos_sdtm:biomedicalConceptId NCIT:C189440 ;
    cosmos_sdtm:domain "GF" ;
    cosmos_sdtm:packageDate "2026-05-26"^^xsd:date ;
    cosmos_sdtm:packageType <https://www.cdisc.org/cosmos/sdtm_v1.0/PackageTypeEnum#sdtm> ;
    cosmos_sdtm:sdtmigStartVersion "3-4" ;
    cosmos_sdtm:shortName "Variable Number Tandem Repeats Predicted CAG Repeats" ;
    cosmos_sdtm:source "GF.GFTESTCD" ;
    cosmos_sdtm:variables <https://w3id.org/cdisc/cosmos/dss/GF/VNTRPNCAGRPT/GFANMETH>,
        <https://w3id.org/cdisc/cosmos/dss/GF/VNTRPNCAGRPT/GFCAT>,
        <https://w3id.org/cdisc/cosmos/dss/GF/VNTRPNCAGRPT/GFCOPYID>,
        <https://w3id.org/cdisc/cosmos/dss/GF/VNTRPNCAGRPT/GFDTC>,
        <https://w3id.org/cdisc/cosmos/dss/GF/VNTRPNCAGRPT/GFGENLOC>,
        <https://w3id.org/cdisc/cosmos/dss/GF/VNTRPNCAGRPT/GFGENSR>,
        <https://w3id.org/cdisc/cosmos/dss/GF/VNTRPNCAGRPT/GFMETHOD>,
        <https://w3id.org/cdisc/cosmos/dss/GF/VNTRPNCAGRPT/GFORRES>,
        <https://w3id.org/cdisc/cosmos/dss/GF/VNTRPNCAGRPT/GFSEQID>,
        <https://w3id.org/cdisc/cosmos/dss/GF/VNTRPNCAGRPT/GFSPEC>,
        <https://w3id.org/cdisc/cosmos/dss/GF/VNTRPNCAGRPT/GFSTRESC>,
        <https://w3id.org/cdisc/cosmos/dss/GF/VNTRPNCAGRPT/GFSTRESN>,
        <https://w3id.org/cdisc/cosmos/dss/GF/VNTRPNCAGRPT/GFSYM>,
        <https://w3id.org/cdisc/cosmos/dss/GF/VNTRPNCAGRPT/GFSYMTYP>,
        <https://w3id.org/cdisc/cosmos/dss/GF/VNTRPNCAGRPT/GFTEST>,
        <https://w3id.org/cdisc/cosmos/dss/GF/VNTRPNCAGRPT/GFTESTCD>,
        <https://w3id.org/cdisc/cosmos/dss/GF/VNTRPNCAGRPT/GFTSTDTL> .

<https://w3id.org/cdisc/cosmos/dss/GF/CPNUMVARALTEXON/GFCAT/assignedTerm> a cosmos_sdtm:AssignedTerm ;
    cosmos_sdtm:value "GENETIC VARIATION" .

<https://w3id.org/cdisc/cosmos/dss/GF/CPNUMVARALTEXON/GFCAT/relationship> a cosmos_sdtm:RelationShip ;
    cosmos_sdtm:linkingPhrase <https://www.cdisc.org/cosmos/sdtm_v1.0/LinkingPhraseEnum#groups%20values%20in> ;
    cosmos_sdtm:object "GFTESTCD" ;
    cosmos_sdtm:predicateTerm <https://www.cdisc.org/cosmos/sdtm_v1.0/PredicateTermEnum#GROUPS> ;
    cosmos_sdtm:subject "GFCAT" .

<https://w3id.org/cdisc/cosmos/dss/GF/CPNUMVARALTEXON/GFCHROM/relationship> a cosmos_sdtm:RelationShip ;
    cosmos_sdtm:linkingPhrase <https://www.cdisc.org/cosmos/sdtm_v1.0/LinkingPhraseEnum#is%20the%20chromosome%20that%20is%20the%20position%20of%20the%20result%20in> ;
    cosmos_sdtm:object "GFORRES" ;
    cosmos_sdtm:predicateTerm <https://www.cdisc.org/cosmos/sdtm_v1.0/PredicateTermEnum#IS_POSITION_FOR> ;
    cosmos_sdtm:subject "GFCHROM" .

<https://w3id.org/cdisc/cosmos/dss/GF/CPNUMVARALTEXON/GFDTC/relationship> a cosmos_sdtm:RelationShip ;
    cosmos_sdtm:linkingPhrase <https://www.cdisc.org/cosmos/sdtm_v1.0/LinkingPhraseEnum#is%20the%20date%20of%20occurrence%20for> ;
    cosmos_sdtm:object "GFTESTCD" ;
    cosmos_sdtm:predicateTerm <https://www.cdisc.org/cosmos/sdtm_v1.0/PredicateTermEnum#IS_TIMING_FOR> ;
    cosmos_sdtm:subject "GFDTC" .

<https://w3id.org/cdisc/cosmos/dss/GF/CPNUMVARALTEXON/GFGENLOC/relationship> a cosmos_sdtm:RelationShip ;
    cosmos_sdtm:linkingPhrase <https://www.cdisc.org/cosmos/sdtm_v1.0/LinkingPhraseEnum#is%20the%20numeric%20location%2C%20within%20a%20chromosone%2C%20genetic%20entity%2C%20or%20genetic%20sub-region%2C%20of%20the%20result%20in> ;
    cosmos_sdtm:object "GFORRES" ;
    cosmos_sdtm:predicateTerm <https://www.cdisc.org/cosmos/sdtm_v1.0/PredicateTermEnum#IS_POSITION_FOR> ;
    cosmos_sdtm:subject "GFGENLOC" .

<https://w3id.org/cdisc/cosmos/dss/GF/CPNUMVARALTEXON/GFGENREF/relationship> a cosmos_sdtm:RelationShip ;
    cosmos_sdtm:linkingPhrase <https://www.cdisc.org/cosmos/sdtm_v1.0/LinkingPhraseEnum#identifies%20the%20reference%20used%20in%20the%20genomic%20test%20in> ;
    cosmos_sdtm:object "GFTESTCD" ;
    cosmos_sdtm:predicateTerm <https://www.cdisc.org/cosmos/sdtm_v1.0/PredicateTermEnum#SPECIFIES> ;
    cosmos_sdtm:subject "GFGENREF" .

<https://w3id.org/cdisc/cosmos/dss/GF/CPNUMVARALTEXON/GFGENSR/relationship> a cosmos_sdtm:RelationShip ;
    cosmos_sdtm:linkingPhrase <https://www.cdisc.org/cosmos/sdtm_v1.0/LinkingPhraseEnum#is%20the%20genetic%20sub-location%20of%20the%20result%20in> ;
    cosmos_sdtm:object "GFORRES" ;
    cosmos_sdtm:predicateTerm <https://www.cdisc.org/cosmos/sdtm_v1.0/PredicateTermEnum#IS_POSITION_FOR> ;
    cosmos_sdtm:subject "GFGENSR" .

<https://w3id.org/cdisc/cosmos/dss/GF/CPNUMVARALTEXON/GFINHERT/assignedTerm> a cosmos_sdtm:AssignedTerm ;
    cosmos_sdtm:conceptId NCIT:C18060 ;
    cosmos_sdtm:value "SOMATIC VARIATION" .

<https://w3id.org/cdisc/cosmos/dss/GF/CPNUMVARALTEXON/GFINHERT/relationship> a cosmos_sdtm:RelationShip ;
    cosmos_sdtm:linkingPhrase <https://www.cdisc.org/cosmos/sdtm_v1.0/LinkingPhraseEnum#indicates%20heritability%20of%20the%20genetic%20variant%20in> ;
    cosmos_sdtm:object "GFORRES" ;
    cosmos_sdtm:predicateTerm <https://www.cdisc.org/cosmos/sdtm_v1.0/PredicateTermEnum#IS_ATTRIBUTE_FOR> ;
    cosmos_sdtm:subject "GFINHERT" .

<https://w3id.org/cdisc/cosmos/dss/GF/CPNUMVARALTEXON/GFMETHOD/relationship> a cosmos_sdtm:RelationShip ;
    cosmos_sdtm:linkingPhrase <https://www.cdisc.org/cosmos/sdtm_v1.0/LinkingPhraseEnum#is%20the%20method%20for%20the%20test%20in> ;
    cosmos_sdtm:object "GFTESTCD" ;
    cosmos_sdtm:predicateTerm <https://www.cdisc.org/cosmos/sdtm_v1.0/PredicateTermEnum#SPECIFIES> ;
    cosmos_sdtm:subject "GFMETHOD" .

<https://w3id.org/cdisc/cosmos/dss/GF/CPNUMVARALTEXON/GFORRES/relationship> a cosmos_sdtm:RelationShip ;
    cosmos_sdtm:linkingPhrase <https://www.cdisc.org/cosmos/sdtm_v1.0/LinkingPhraseEnum#is%20the%20result%20of%20the%20test%20in> ;
    cosmos_sdtm:object "GFTESTCD" ;
    cosmos_sdtm:predicateTerm <https://www.cdisc.org/cosmos/sdtm_v1.0/PredicateTermEnum#IS_RESULT_OF> ;
    cosmos_sdtm:subject "GFORRES" .

<https://w3id.org/cdisc/cosmos/dss/GF/CPNUMVARALTEXON/GFPRVID/relationship> a cosmos_sdtm:RelationShip ;
    cosmos_sdtm:linkingPhrase <https://www.cdisc.org/cosmos/sdtm_v1.0/LinkingPhraseEnum#is%20an%20identifier%20for%20a%20published%20reference%20for%20the%20genetic%20variant%20in> ;
    cosmos_sdtm:object "GFORRES" ;
    cosmos_sdtm:predicateTerm <https://www.cdisc.org/cosmos/sdtm_v1.0/PredicateTermEnum#IS_ATTRIBUTE_FOR> ;
    cosmos_sdtm:subject "GFPRVID" .

<https://w3id.org/cdisc/cosmos/dss/GF/CPNUMVARALTEXON/GFSEQID/relationship> a cosmos_sdtm:RelationShip ;
    cosmos_sdtm:linkingPhrase <https://www.cdisc.org/cosmos/sdtm_v1.0/LinkingPhraseEnum#is%20an%20identifier%20for%20the%20genetic%20sequence%20of%20the%20genetic%20entity%20represented%20by> ;
    cosmos_sdtm:object "GFSYM" ;
    cosmos_sdtm:predicateTerm <https://www.cdisc.org/cosmos/sdtm_v1.0/PredicateTermEnum#IDENTIFIES> ;
    cosmos_sdtm:subject "GFSEQID" .

<https://w3id.org/cdisc/cosmos/dss/GF/CPNUMVARALTEXON/GFSPEC/assignedTerm> a cosmos_sdtm:AssignedTerm ;
    cosmos_sdtm:conceptId NCIT:C449 ;
    cosmos_sdtm:value "DNA" .

<https://w3id.org/cdisc/cosmos/dss/GF/CPNUMVARALTEXON/GFSPEC/relationship> a cosmos_sdtm:RelationShip ;
    cosmos_sdtm:linkingPhrase <https://www.cdisc.org/cosmos/sdtm_v1.0/LinkingPhraseEnum#is%20the%20specimen%20tested%20in> ;
    cosmos_sdtm:object "GFTESTCD" ;
    cosmos_sdtm:predicateTerm <https://www.cdisc.org/cosmos/sdtm_v1.0/PredicateTermEnum#IS_SPECIMEN_TESTED_IN> ;
    cosmos_sdtm:subject "GFSPEC" .

<https://w3id.org/cdisc/cosmos/dss/GF/CPNUMVARALTEXON/GFSTRESC/relationship> a cosmos_sdtm:RelationShip ;
    cosmos_sdtm:linkingPhrase <https://www.cdisc.org/cosmos/sdtm_v1.0/LinkingPhraseEnum#is%20the%20result%20of%20the%20test%20in> ;
    cosmos_sdtm:object "GFTESTCD" ;
    cosmos_sdtm:predicateTerm <https://www.cdisc.org/cosmos/sdtm_v1.0/PredicateTermEnum#IS_RESULT_OF> ;
    cosmos_sdtm:subject "GFSTRESC" .

<https://w3id.org/cdisc/cosmos/dss/GF/CPNUMVARALTEXON/GFSTRESN/relationship> a cosmos_sdtm:RelationShip ;
    cosmos_sdtm:linkingPhrase <https://www.cdisc.org/cosmos/sdtm_v1.0/LinkingPhraseEnum#is%20the%20result%20of%20the%20test%20in> ;
    cosmos_sdtm:object "GFTESTCD" ;
    cosmos_sdtm:predicateTerm <https://www.cdisc.org/cosmos/sdtm_v1.0/PredicateTermEnum#IS_RESULT_OF> ;
    cosmos_sdtm:subject "GFSTRESN" .

<https://w3id.org/cdisc/cosmos/dss/GF/CPNUMVARALTEXON/GFSYM/relationship> a cosmos_sdtm:RelationShip ;
    cosmos_sdtm:linkingPhrase <https://www.cdisc.org/cosmos/sdtm_v1.0/LinkingPhraseEnum#is%20the%20symbol%20for%20the%20genomic%20entity%20that%20is%20the%20position%20of%20the%20result%20in> ;
    cosmos_sdtm:object "GFORRES" ;
    cosmos_sdtm:predicateTerm <https://www.cdisc.org/cosmos/sdtm_v1.0/PredicateTermEnum#IS_POSITION_FOR> ;
    cosmos_sdtm:subject "GFSYM" .

<https://w3id.org/cdisc/cosmos/dss/GF/CPNUMVARALTEXON/GFSYMTYP/relationship> a cosmos_sdtm:RelationShip ;
    cosmos_sdtm:linkingPhrase <https://www.cdisc.org/cosmos/sdtm_v1.0/LinkingPhraseEnum#is%20the%20type%20of%20genomic%20entity%20that%20is%20the%20position%20of%20the%20result%20in> ;
    cosmos_sdtm:object "GFORRES" ;
    cosmos_sdtm:predicateTerm <https://www.cdisc.org/cosmos/sdtm_v1.0/PredicateTermEnum#IS_POSITION_FOR> ;
    cosmos_sdtm:subject "GFSYMTYP" .

<https://w3id.org/cdisc/cosmos/dss/GF/CPNUMVARALTEXON/GFTEST/assignedTerm> a cosmos_sdtm:AssignedTerm ;
    cosmos_sdtm:conceptId NCIT:C181330 ;
    cosmos_sdtm:value "Copy Number Variation" .

<https://w3id.org/cdisc/cosmos/dss/GF/CPNUMVARALTEXON/GFTEST/relationship> a cosmos_sdtm:RelationShip ;
    cosmos_sdtm:linkingPhrase <https://www.cdisc.org/cosmos/sdtm_v1.0/LinkingPhraseEnum#decodes%20the%20value%20in> ;
    cosmos_sdtm:object "GFTESTCD" ;
    cosmos_sdtm:predicateTerm <https://www.cdisc.org/cosmos/sdtm_v1.0/PredicateTermEnum#DECODES> ;
    cosmos_sdtm:subject "GFTEST" .

<https://w3id.org/cdisc/cosmos/dss/GF/CPNUMVARALTEXON/GFTESTCD/assignedTerm> a cosmos_sdtm:AssignedTerm ;
    cosmos_sdtm:conceptId NCIT:C181330 ;
    cosmos_sdtm:value "CPNUMVAR" .

<https://w3id.org/cdisc/cosmos/dss/GF/CPNUMVARALTEXON/GFTESTCD/relationship> a cosmos_sdtm:RelationShip ;
    cosmos_sdtm:linkingPhrase <https://www.cdisc.org/cosmos/sdtm_v1.0/LinkingPhraseEnum#is%20the%20code%20for%20the%20value%20in> ;
    cosmos_sdtm:object "GFTEST" ;
    cosmos_sdtm:predicateTerm <https://www.cdisc.org/cosmos/sdtm_v1.0/PredicateTermEnum#IS_DECODED_BY> ;
    cosmos_sdtm:subject "GFTESTCD" .

<https://w3id.org/cdisc/cosmos/dss/GF/CPNUMVARALTEXON/GFTSTDTL/assignedTerm> a cosmos_sdtm:AssignedTerm ;
    cosmos_sdtm:conceptId NCIT:C181348 ;
    cosmos_sdtm:value "NUMBER OF ALTERED EXONS" .

<https://w3id.org/cdisc/cosmos/dss/GF/CPNUMVARALTEXON/GFTSTDTL/relationship> a cosmos_sdtm:RelationShip ;
    cosmos_sdtm:linkingPhrase <https://www.cdisc.org/cosmos/sdtm_v1.0/LinkingPhraseEnum#further%20describes%20the%20test%20in> ;
    cosmos_sdtm:object "GFTESTCD" ;
    cosmos_sdtm:predicateTerm <https://www.cdisc.org/cosmos/sdtm_v1.0/PredicateTermEnum#SPECIFIES> ;
    cosmos_sdtm:subject "GFTSTDTL" .

<https://w3id.org/cdisc/cosmos/dss/GF/CPNUMVARATIO/GFCAT/assignedTerm> a cosmos_sdtm:AssignedTerm ;
    cosmos_sdtm:value "GENETIC VARIATION" .

<https://w3id.org/cdisc/cosmos/dss/GF/CPNUMVARATIO/GFCAT/relationship> a cosmos_sdtm:RelationShip ;
    cosmos_sdtm:linkingPhrase <https://www.cdisc.org/cosmos/sdtm_v1.0/LinkingPhraseEnum#groups%20values%20in> ;
    cosmos_sdtm:object "GFTESTCD" ;
    cosmos_sdtm:predicateTerm <https://www.cdisc.org/cosmos/sdtm_v1.0/PredicateTermEnum#GROUPS> ;
    cosmos_sdtm:subject "GFCAT" .

<https://w3id.org/cdisc/cosmos/dss/GF/CPNUMVARATIO/GFCHROM/relationship> a cosmos_sdtm:RelationShip ;
    cosmos_sdtm:linkingPhrase <https://www.cdisc.org/cosmos/sdtm_v1.0/LinkingPhraseEnum#is%20the%20chromosome%20that%20is%20the%20position%20of%20the%20result%20in> ;
    cosmos_sdtm:object "GFORRES" ;
    cosmos_sdtm:predicateTerm <https://www.cdisc.org/cosmos/sdtm_v1.0/PredicateTermEnum#IS_POSITION_FOR> ;
    cosmos_sdtm:subject "GFCHROM" .

<https://w3id.org/cdisc/cosmos/dss/GF/CPNUMVARATIO/GFDTC/relationship> a cosmos_sdtm:RelationShip ;
    cosmos_sdtm:linkingPhrase <https://www.cdisc.org/cosmos/sdtm_v1.0/LinkingPhraseEnum#is%20the%20date%20of%20occurrence%20for> ;
    cosmos_sdtm:object "GFTESTCD" ;
    cosmos_sdtm:predicateTerm <https://www.cdisc.org/cosmos/sdtm_v1.0/PredicateTermEnum#IS_TIMING_FOR> ;
    cosmos_sdtm:subject "GFDTC" .

<https://w3id.org/cdisc/cosmos/dss/GF/CPNUMVARATIO/GFGENLOC/relationship> a cosmos_sdtm:RelationShip ;
    cosmos_sdtm:linkingPhrase <https://www.cdisc.org/cosmos/sdtm_v1.0/LinkingPhraseEnum#is%20the%20numeric%20location%2C%20within%20a%20chromosone%2C%20genetic%20entity%2C%20or%20genetic%20sub-region%2C%20of%20the%20result%20in> ;
    cosmos_sdtm:object "GFORRES" ;
    cosmos_sdtm:predicateTerm <https://www.cdisc.org/cosmos/sdtm_v1.0/PredicateTermEnum#IS_POSITION_FOR> ;
    cosmos_sdtm:subject "GFGENLOC" .

<https://w3id.org/cdisc/cosmos/dss/GF/CPNUMVARATIO/GFGENREF/relationship> a cosmos_sdtm:RelationShip ;
    cosmos_sdtm:linkingPhrase <https://www.cdisc.org/cosmos/sdtm_v1.0/LinkingPhraseEnum#identifies%20the%20reference%20used%20in%20the%20genomic%20test%20in> ;
    cosmos_sdtm:object "GFTESTCD" ;
    cosmos_sdtm:predicateTerm <https://www.cdisc.org/cosmos/sdtm_v1.0/PredicateTermEnum#SPECIFIES> ;
    cosmos_sdtm:subject "GFGENREF" .

<https://w3id.org/cdisc/cosmos/dss/GF/CPNUMVARATIO/GFGENSR/relationship> a cosmos_sdtm:RelationShip ;
    cosmos_sdtm:linkingPhrase <https://www.cdisc.org/cosmos/sdtm_v1.0/LinkingPhraseEnum#is%20the%20genetic%20sub-location%20of%20the%20result%20in> ;
    cosmos_sdtm:object "GFORRES" ;
    cosmos_sdtm:predicateTerm <https://www.cdisc.org/cosmos/sdtm_v1.0/PredicateTermEnum#IS_POSITION_FOR> ;
    cosmos_sdtm:subject "GFGENSR" .

<https://w3id.org/cdisc/cosmos/dss/GF/CPNUMVARATIO/GFINHERT/assignedTerm> a cosmos_sdtm:AssignedTerm ;
    cosmos_sdtm:conceptId NCIT:C18060 ;
    cosmos_sdtm:value "SOMATIC VARIATION" .

<https://w3id.org/cdisc/cosmos/dss/GF/CPNUMVARATIO/GFINHERT/relationship> a cosmos_sdtm:RelationShip ;
    cosmos_sdtm:linkingPhrase <https://www.cdisc.org/cosmos/sdtm_v1.0/LinkingPhraseEnum#indicates%20heritability%20of%20the%20genetic%20variant%20in> ;
    cosmos_sdtm:object "GFORRES" ;
    cosmos_sdtm:predicateTerm <https://www.cdisc.org/cosmos/sdtm_v1.0/PredicateTermEnum#IS_ATTRIBUTE_FOR> ;
    cosmos_sdtm:subject "GFINHERT" .

<https://w3id.org/cdisc/cosmos/dss/GF/CPNUMVARATIO/GFMETHOD/relationship> a cosmos_sdtm:RelationShip ;
    cosmos_sdtm:linkingPhrase <https://www.cdisc.org/cosmos/sdtm_v1.0/LinkingPhraseEnum#is%20the%20method%20for%20the%20test%20in> ;
    cosmos_sdtm:object "GFTESTCD" ;
    cosmos_sdtm:predicateTerm <https://www.cdisc.org/cosmos/sdtm_v1.0/PredicateTermEnum#SPECIFIES> ;
    cosmos_sdtm:subject "GFMETHOD" .

<https://w3id.org/cdisc/cosmos/dss/GF/CPNUMVARATIO/GFORRES/relationship> a cosmos_sdtm:RelationShip ;
    cosmos_sdtm:linkingPhrase <https://www.cdisc.org/cosmos/sdtm_v1.0/LinkingPhraseEnum#is%20the%20result%20of%20the%20test%20in> ;
    cosmos_sdtm:object "GFTESTCD" ;
    cosmos_sdtm:predicateTerm <https://www.cdisc.org/cosmos/sdtm_v1.0/PredicateTermEnum#IS_RESULT_OF> ;
    cosmos_sdtm:subject "GFORRES" .

<https://w3id.org/cdisc/cosmos/dss/GF/CPNUMVARATIO/GFPRVID/relationship> a cosmos_sdtm:RelationShip ;
    cosmos_sdtm:linkingPhrase <https://www.cdisc.org/cosmos/sdtm_v1.0/LinkingPhraseEnum#is%20an%20identifier%20for%20a%20published%20reference%20for%20the%20genetic%20variant%20in> ;
    cosmos_sdtm:object "GFORRES" ;
    cosmos_sdtm:predicateTerm <https://www.cdisc.org/cosmos/sdtm_v1.0/PredicateTermEnum#IS_ATTRIBUTE_FOR> ;
    cosmos_sdtm:subject "GFPRVID" .

<https://w3id.org/cdisc/cosmos/dss/GF/CPNUMVARATIO/GFSEQID/relationship> a cosmos_sdtm:RelationShip ;
    cosmos_sdtm:linkingPhrase <https://www.cdisc.org/cosmos/sdtm_v1.0/LinkingPhraseEnum#is%20an%20identifier%20for%20the%20genetic%20sequence%20of%20the%20genetic%20entity%20represented%20by> ;
    cosmos_sdtm:object "GFSYM" ;
    cosmos_sdtm:predicateTerm <https://www.cdisc.org/cosmos/sdtm_v1.0/PredicateTermEnum#IDENTIFIES> ;
    cosmos_sdtm:subject "GFSEQID" .

<https://w3id.org/cdisc/cosmos/dss/GF/CPNUMVARATIO/GFSPEC/assignedTerm> a cosmos_sdtm:AssignedTerm ;
    cosmos_sdtm:conceptId NCIT:C449 ;
    cosmos_sdtm:value "DNA" .

<https://w3id.org/cdisc/cosmos/dss/GF/CPNUMVARATIO/GFSPEC/relationship> a cosmos_sdtm:RelationShip ;
    cosmos_sdtm:linkingPhrase <https://www.cdisc.org/cosmos/sdtm_v1.0/LinkingPhraseEnum#is%20the%20specimen%20tested%20in> ;
    cosmos_sdtm:object "GFTESTCD" ;
    cosmos_sdtm:predicateTerm <https://www.cdisc.org/cosmos/sdtm_v1.0/PredicateTermEnum#IS_SPECIMEN_TESTED_IN> ;
    cosmos_sdtm:subject "GFSPEC" .

<https://w3id.org/cdisc/cosmos/dss/GF/CPNUMVARATIO/GFSTRESC/relationship> a cosmos_sdtm:RelationShip ;
    cosmos_sdtm:linkingPhrase <https://www.cdisc.org/cosmos/sdtm_v1.0/LinkingPhraseEnum#is%20the%20result%20of%20the%20test%20in> ;
    cosmos_sdtm:object "GFTESTCD" ;
    cosmos_sdtm:predicateTerm <https://www.cdisc.org/cosmos/sdtm_v1.0/PredicateTermEnum#IS_RESULT_OF> ;
    cosmos_sdtm:subject "GFSTRESC" .

<https://w3id.org/cdisc/cosmos/dss/GF/CPNUMVARATIO/GFSTRESN/relationship> a cosmos_sdtm:RelationShip ;
    cosmos_sdtm:linkingPhrase <https://www.cdisc.org/cosmos/sdtm_v1.0/LinkingPhraseEnum#is%20the%20result%20of%20the%20test%20in> ;
    cosmos_sdtm:object "GFTESTCD" ;
    cosmos_sdtm:predicateTerm <https://www.cdisc.org/cosmos/sdtm_v1.0/PredicateTermEnum#IS_RESULT_OF> ;
    cosmos_sdtm:subject "GFSTRESN" .

<https://w3id.org/cdisc/cosmos/dss/GF/CPNUMVARATIO/GFSYM/relationship> a cosmos_sdtm:RelationShip ;
    cosmos_sdtm:linkingPhrase <https://www.cdisc.org/cosmos/sdtm_v1.0/LinkingPhraseEnum#is%20the%20symbol%20for%20the%20genomic%20entity%20that%20is%20the%20position%20of%20the%20result%20in> ;
    cosmos_sdtm:object "GFORRES" ;
    cosmos_sdtm:predicateTerm <https://www.cdisc.org/cosmos/sdtm_v1.0/PredicateTermEnum#IS_POSITION_FOR> ;
    cosmos_sdtm:subject "GFSYM" .

<https://w3id.org/cdisc/cosmos/dss/GF/CPNUMVARATIO/GFSYMTYP/relationship> a cosmos_sdtm:RelationShip ;
    cosmos_sdtm:linkingPhrase <https://www.cdisc.org/cosmos/sdtm_v1.0/LinkingPhraseEnum#is%20the%20type%20of%20genomic%20entity%20that%20is%20the%20position%20of%20the%20result%20in> ;
    cosmos_sdtm:object "GFORRES" ;
    cosmos_sdtm:predicateTerm <https://www.cdisc.org/cosmos/sdtm_v1.0/PredicateTermEnum#IS_POSITION_FOR> ;
    cosmos_sdtm:subject "GFSYMTYP" .

<https://w3id.org/cdisc/cosmos/dss/GF/CPNUMVARATIO/GFTEST/assignedTerm> a cosmos_sdtm:AssignedTerm ;
    cosmos_sdtm:conceptId NCIT:C181330 ;
    cosmos_sdtm:value "Copy Number Variation" .

<https://w3id.org/cdisc/cosmos/dss/GF/CPNUMVARATIO/GFTEST/relationship> a cosmos_sdtm:RelationShip ;
    cosmos_sdtm:linkingPhrase <https://www.cdisc.org/cosmos/sdtm_v1.0/LinkingPhraseEnum#decodes%20the%20value%20in> ;
    cosmos_sdtm:object "GFTESTCD" ;
    cosmos_sdtm:predicateTerm <https://www.cdisc.org/cosmos/sdtm_v1.0/PredicateTermEnum#DECODES> ;
    cosmos_sdtm:subject "GFTEST" .

<https://w3id.org/cdisc/cosmos/dss/GF/CPNUMVARATIO/GFTESTCD/assignedTerm> a cosmos_sdtm:AssignedTerm ;
    cosmos_sdtm:conceptId NCIT:C181330 ;
    cosmos_sdtm:value "CPNUMVAR" .

<https://w3id.org/cdisc/cosmos/dss/GF/CPNUMVARATIO/GFTESTCD/relationship> a cosmos_sdtm:RelationShip ;
    cosmos_sdtm:linkingPhrase <https://www.cdisc.org/cosmos/sdtm_v1.0/LinkingPhraseEnum#is%20the%20code%20for%20the%20value%20in> ;
    cosmos_sdtm:object "GFTEST" ;
    cosmos_sdtm:predicateTerm <https://www.cdisc.org/cosmos/sdtm_v1.0/PredicateTermEnum#IS_DECODED_BY> ;
    cosmos_sdtm:subject "GFTESTCD" .

<https://w3id.org/cdisc/cosmos/dss/GF/CPNUMVARATIO/GFTSTDTL/assignedTerm> a cosmos_sdtm:AssignedTerm ;
    cosmos_sdtm:conceptId NCIT:C181349 ;
    cosmos_sdtm:value "COPY NUMBER RATIO" .

<https://w3id.org/cdisc/cosmos/dss/GF/CPNUMVARATIO/GFTSTDTL/relationship> a cosmos_sdtm:RelationShip ;
    cosmos_sdtm:linkingPhrase <https://www.cdisc.org/cosmos/sdtm_v1.0/LinkingPhraseEnum#further%20describes%20the%20test%20in> ;
    cosmos_sdtm:object "GFTESTCD" ;
    cosmos_sdtm:predicateTerm <https://www.cdisc.org/cosmos/sdtm_v1.0/PredicateTermEnum#SPECIFIES> ;
    cosmos_sdtm:subject "GFTSTDTL" .

<https://w3id.org/cdisc/cosmos/dss/GF/CPNUMVARINTP/GFCAT/assignedTerm> a cosmos_sdtm:AssignedTerm ;
    cosmos_sdtm:value "GENETIC VARIATION" .

<https://w3id.org/cdisc/cosmos/dss/GF/CPNUMVARINTP/GFCAT/relationship> a cosmos_sdtm:RelationShip ;
    cosmos_sdtm:linkingPhrase <https://www.cdisc.org/cosmos/sdtm_v1.0/LinkingPhraseEnum#groups%20values%20in> ;
    cosmos_sdtm:object "GFTESTCD" ;
    cosmos_sdtm:predicateTerm <https://www.cdisc.org/cosmos/sdtm_v1.0/PredicateTermEnum#GROUPS> ;
    cosmos_sdtm:subject "GFCAT" .

<https://w3id.org/cdisc/cosmos/dss/GF/CPNUMVARINTP/GFCHROM/relationship> a cosmos_sdtm:RelationShip ;
    cosmos_sdtm:linkingPhrase <https://www.cdisc.org/cosmos/sdtm_v1.0/LinkingPhraseEnum#is%20the%20chromosome%20that%20is%20the%20position%20of%20the%20result%20in> ;
    cosmos_sdtm:object "GFORRES" ;
    cosmos_sdtm:predicateTerm <https://www.cdisc.org/cosmos/sdtm_v1.0/PredicateTermEnum#IS_POSITION_FOR> ;
    cosmos_sdtm:subject "GFCHROM" .

<https://w3id.org/cdisc/cosmos/dss/GF/CPNUMVARINTP/GFDTC/relationship> a cosmos_sdtm:RelationShip ;
    cosmos_sdtm:linkingPhrase <https://www.cdisc.org/cosmos/sdtm_v1.0/LinkingPhraseEnum#is%20the%20date%20of%20occurrence%20for> ;
    cosmos_sdtm:object "GFTESTCD" ;
    cosmos_sdtm:predicateTerm <https://www.cdisc.org/cosmos/sdtm_v1.0/PredicateTermEnum#IS_TIMING_FOR> ;
    cosmos_sdtm:subject "GFDTC" .

<https://w3id.org/cdisc/cosmos/dss/GF/CPNUMVARINTP/GFGENLOC/relationship> a cosmos_sdtm:RelationShip ;
    cosmos_sdtm:linkingPhrase <https://www.cdisc.org/cosmos/sdtm_v1.0/LinkingPhraseEnum#is%20the%20numeric%20location%2C%20within%20a%20chromosone%2C%20genetic%20entity%2C%20or%20genetic%20sub-region%2C%20of%20the%20result%20in> ;
    cosmos_sdtm:object "GFORRES" ;
    cosmos_sdtm:predicateTerm <https://www.cdisc.org/cosmos/sdtm_v1.0/PredicateTermEnum#IS_POSITION_FOR> ;
    cosmos_sdtm:subject "GFGENLOC" .

<https://w3id.org/cdisc/cosmos/dss/GF/CPNUMVARINTP/GFGENREF/relationship> a cosmos_sdtm:RelationShip ;
    cosmos_sdtm:linkingPhrase <https://www.cdisc.org/cosmos/sdtm_v1.0/LinkingPhraseEnum#identifies%20the%20reference%20used%20in%20the%20genomic%20test%20in> ;
    cosmos_sdtm:object "GFTESTCD" ;
    cosmos_sdtm:predicateTerm <https://www.cdisc.org/cosmos/sdtm_v1.0/PredicateTermEnum#SPECIFIES> ;
    cosmos_sdtm:subject "GFGENREF" .

<https://w3id.org/cdisc/cosmos/dss/GF/CPNUMVARINTP/GFGENSR/relationship> a cosmos_sdtm:RelationShip ;
    cosmos_sdtm:linkingPhrase <https://www.cdisc.org/cosmos/sdtm_v1.0/LinkingPhraseEnum#is%20the%20genetic%20sub-location%20of%20the%20result%20in> ;
    cosmos_sdtm:object "GFORRES" ;
    cosmos_sdtm:predicateTerm <https://www.cdisc.org/cosmos/sdtm_v1.0/PredicateTermEnum#IS_POSITION_FOR> ;
    cosmos_sdtm:subject "GFGENSR" .

<https://w3id.org/cdisc/cosmos/dss/GF/CPNUMVARINTP/GFINHERT/assignedTerm> a cosmos_sdtm:AssignedTerm ;
    cosmos_sdtm:conceptId NCIT:C18060 ;
    cosmos_sdtm:value "SOMATIC VARIATION" .

<https://w3id.org/cdisc/cosmos/dss/GF/CPNUMVARINTP/GFINHERT/relationship> a cosmos_sdtm:RelationShip ;
    cosmos_sdtm:linkingPhrase <https://www.cdisc.org/cosmos/sdtm_v1.0/LinkingPhraseEnum#indicates%20heritability%20of%20the%20genetic%20variant%20in> ;
    cosmos_sdtm:object "GFORRES" ;
    cosmos_sdtm:predicateTerm <https://www.cdisc.org/cosmos/sdtm_v1.0/PredicateTermEnum#IS_ATTRIBUTE_FOR> ;
    cosmos_sdtm:subject "GFINHERT" .

<https://w3id.org/cdisc/cosmos/dss/GF/CPNUMVARINTP/GFMETHOD/relationship> a cosmos_sdtm:RelationShip ;
    cosmos_sdtm:linkingPhrase <https://www.cdisc.org/cosmos/sdtm_v1.0/LinkingPhraseEnum#is%20the%20method%20for%20the%20test%20in> ;
    cosmos_sdtm:object "GFTESTCD" ;
    cosmos_sdtm:predicateTerm <https://www.cdisc.org/cosmos/sdtm_v1.0/PredicateTermEnum#SPECIFIES> ;
    cosmos_sdtm:subject "GFMETHOD" .

<https://w3id.org/cdisc/cosmos/dss/GF/CPNUMVARINTP/GFORRES/relationship> a cosmos_sdtm:RelationShip ;
    cosmos_sdtm:linkingPhrase <https://www.cdisc.org/cosmos/sdtm_v1.0/LinkingPhraseEnum#is%20the%20result%20of%20the%20test%20in> ;
    cosmos_sdtm:object "GFTESTCD" ;
    cosmos_sdtm:predicateTerm <https://www.cdisc.org/cosmos/sdtm_v1.0/PredicateTermEnum#IS_RESULT_OF> ;
    cosmos_sdtm:subject "GFORRES" .

<https://w3id.org/cdisc/cosmos/dss/GF/CPNUMVARINTP/GFPRVID/relationship> a cosmos_sdtm:RelationShip ;
    cosmos_sdtm:linkingPhrase <https://www.cdisc.org/cosmos/sdtm_v1.0/LinkingPhraseEnum#is%20an%20identifier%20for%20a%20published%20reference%20for%20the%20genetic%20variant%20in> ;
    cosmos_sdtm:object "GFORRES" ;
    cosmos_sdtm:predicateTerm <https://www.cdisc.org/cosmos/sdtm_v1.0/PredicateTermEnum#IS_ATTRIBUTE_FOR> ;
    cosmos_sdtm:subject "GFPRVID" .

<https://w3id.org/cdisc/cosmos/dss/GF/CPNUMVARINTP/GFSEQID/relationship> a cosmos_sdtm:RelationShip ;
    cosmos_sdtm:linkingPhrase <https://www.cdisc.org/cosmos/sdtm_v1.0/LinkingPhraseEnum#is%20an%20identifier%20for%20the%20genetic%20sequence%20of%20the%20genetic%20entity%20represented%20by> ;
    cosmos_sdtm:object "GFSYM" ;
    cosmos_sdtm:predicateTerm <https://www.cdisc.org/cosmos/sdtm_v1.0/PredicateTermEnum#IDENTIFIES> ;
    cosmos_sdtm:subject "GFSEQID" .

<https://w3id.org/cdisc/cosmos/dss/GF/CPNUMVARINTP/GFSPEC/assignedTerm> a cosmos_sdtm:AssignedTerm ;
    cosmos_sdtm:conceptId NCIT:C449 ;
    cosmos_sdtm:value "DNA" .

<https://w3id.org/cdisc/cosmos/dss/GF/CPNUMVARINTP/GFSPEC/relationship> a cosmos_sdtm:RelationShip ;
    cosmos_sdtm:linkingPhrase <https://www.cdisc.org/cosmos/sdtm_v1.0/LinkingPhraseEnum#is%20the%20specimen%20tested%20in> ;
    cosmos_sdtm:object "GFTESTCD" ;
    cosmos_sdtm:predicateTerm <https://www.cdisc.org/cosmos/sdtm_v1.0/PredicateTermEnum#IS_SPECIMEN_TESTED_IN> ;
    cosmos_sdtm:subject "GFSPEC" .

<https://w3id.org/cdisc/cosmos/dss/GF/CPNUMVARINTP/GFSTRESC/relationship> a cosmos_sdtm:RelationShip ;
    cosmos_sdtm:linkingPhrase <https://www.cdisc.org/cosmos/sdtm_v1.0/LinkingPhraseEnum#is%20the%20result%20of%20the%20test%20in> ;
    cosmos_sdtm:object "GFTESTCD" ;
    cosmos_sdtm:predicateTerm <https://www.cdisc.org/cosmos/sdtm_v1.0/PredicateTermEnum#IS_RESULT_OF> ;
    cosmos_sdtm:subject "GFSTRESC" .

<https://w3id.org/cdisc/cosmos/dss/GF/CPNUMVARINTP/GFSYM/relationship> a cosmos_sdtm:RelationShip ;
    cosmos_sdtm:linkingPhrase <https://www.cdisc.org/cosmos/sdtm_v1.0/LinkingPhraseEnum#is%20the%20symbol%20for%20the%20genomic%20entity%20that%20is%20the%20position%20of%20the%20result%20in> ;
    cosmos_sdtm:object "GFORRES" ;
    cosmos_sdtm:predicateTerm <https://www.cdisc.org/cosmos/sdtm_v1.0/PredicateTermEnum#IS_POSITION_FOR> ;
    cosmos_sdtm:subject "GFSYM" .

<https://w3id.org/cdisc/cosmos/dss/GF/CPNUMVARINTP/GFSYMTYP/relationship> a cosmos_sdtm:RelationShip ;
    cosmos_sdtm:linkingPhrase <https://www.cdisc.org/cosmos/sdtm_v1.0/LinkingPhraseEnum#is%20the%20type%20of%20genomic%20entity%20that%20is%20the%20position%20of%20the%20result%20in> ;
    cosmos_sdtm:object "GFORRES" ;
    cosmos_sdtm:predicateTerm <https://www.cdisc.org/cosmos/sdtm_v1.0/PredicateTermEnum#IS_POSITION_FOR> ;
    cosmos_sdtm:subject "GFSYMTYP" .

<https://w3id.org/cdisc/cosmos/dss/GF/CPNUMVARINTP/GFTEST/assignedTerm> a cosmos_sdtm:AssignedTerm ;
    cosmos_sdtm:conceptId NCIT:C181330 ;
    cosmos_sdtm:value "Copy Number Variation" .

<https://w3id.org/cdisc/cosmos/dss/GF/CPNUMVARINTP/GFTEST/relationship> a cosmos_sdtm:RelationShip ;
    cosmos_sdtm:linkingPhrase <https://www.cdisc.org/cosmos/sdtm_v1.0/LinkingPhraseEnum#decodes%20the%20value%20in> ;
    cosmos_sdtm:object "GFTESTCD" ;
    cosmos_sdtm:predicateTerm <https://www.cdisc.org/cosmos/sdtm_v1.0/PredicateTermEnum#DECODES> ;
    cosmos_sdtm:subject "GFTEST" .

<https://w3id.org/cdisc/cosmos/dss/GF/CPNUMVARINTP/GFTESTCD/assignedTerm> a cosmos_sdtm:AssignedTerm ;
    cosmos_sdtm:conceptId NCIT:C181330 ;
    cosmos_sdtm:value "CPNUMVAR" .

<https://w3id.org/cdisc/cosmos/dss/GF/CPNUMVARINTP/GFTESTCD/relationship> a cosmos_sdtm:RelationShip ;
    cosmos_sdtm:linkingPhrase <https://www.cdisc.org/cosmos/sdtm_v1.0/LinkingPhraseEnum#is%20the%20code%20for%20the%20value%20in> ;
    cosmos_sdtm:object "GFTEST" ;
    cosmos_sdtm:predicateTerm <https://www.cdisc.org/cosmos/sdtm_v1.0/PredicateTermEnum#IS_DECODED_BY> ;
    cosmos_sdtm:subject "GFTESTCD" .

<https://w3id.org/cdisc/cosmos/dss/GF/CPNUMVARINTP/GFTSTDTL/assignedTerm> a cosmos_sdtm:AssignedTerm ;
    cosmos_sdtm:conceptId NCIT:C181337 ;
    cosmos_sdtm:value "COPY NUMBER ALTERATION INTERPRETATION" .

<https://w3id.org/cdisc/cosmos/dss/GF/CPNUMVARINTP/GFTSTDTL/relationship> a cosmos_sdtm:RelationShip ;
    cosmos_sdtm:linkingPhrase <https://www.cdisc.org/cosmos/sdtm_v1.0/LinkingPhraseEnum#further%20describes%20the%20test%20in> ;
    cosmos_sdtm:object "GFTESTCD" ;
    cosmos_sdtm:predicateTerm <https://www.cdisc.org/cosmos/sdtm_v1.0/PredicateTermEnum#SPECIFIES> ;
    cosmos_sdtm:subject "GFTSTDTL" .

<https://w3id.org/cdisc/cosmos/dss/GF/CPNUMVARNUMGCPY/GFCAT/assignedTerm> a cosmos_sdtm:AssignedTerm ;
    cosmos_sdtm:value "GENETIC VARIATION" .

<https://w3id.org/cdisc/cosmos/dss/GF/CPNUMVARNUMGCPY/GFCAT/relationship> a cosmos_sdtm:RelationShip ;
    cosmos_sdtm:linkingPhrase <https://www.cdisc.org/cosmos/sdtm_v1.0/LinkingPhraseEnum#groups%20values%20in> ;
    cosmos_sdtm:object "GFTESTCD" ;
    cosmos_sdtm:predicateTerm <https://www.cdisc.org/cosmos/sdtm_v1.0/PredicateTermEnum#GROUPS> ;
    cosmos_sdtm:subject "GFCAT" .

<https://w3id.org/cdisc/cosmos/dss/GF/CPNUMVARNUMGCPY/GFCHROM/relationship> a cosmos_sdtm:RelationShip ;
    cosmos_sdtm:linkingPhrase <https://www.cdisc.org/cosmos/sdtm_v1.0/LinkingPhraseEnum#is%20the%20chromosome%20that%20is%20the%20position%20of%20the%20result%20in> ;
    cosmos_sdtm:object "GFORRES" ;
    cosmos_sdtm:predicateTerm <https://www.cdisc.org/cosmos/sdtm_v1.0/PredicateTermEnum#IS_POSITION_FOR> ;
    cosmos_sdtm:subject "GFCHROM" .

<https://w3id.org/cdisc/cosmos/dss/GF/CPNUMVARNUMGCPY/GFDTC/relationship> a cosmos_sdtm:RelationShip ;
    cosmos_sdtm:linkingPhrase <https://www.cdisc.org/cosmos/sdtm_v1.0/LinkingPhraseEnum#is%20the%20date%20of%20occurrence%20for> ;
    cosmos_sdtm:object "GFTESTCD" ;
    cosmos_sdtm:predicateTerm <https://www.cdisc.org/cosmos/sdtm_v1.0/PredicateTermEnum#IS_TIMING_FOR> ;
    cosmos_sdtm:subject "GFDTC" .

<https://w3id.org/cdisc/cosmos/dss/GF/CPNUMVARNUMGCPY/GFGENLOC/relationship> a cosmos_sdtm:RelationShip ;
    cosmos_sdtm:linkingPhrase <https://www.cdisc.org/cosmos/sdtm_v1.0/LinkingPhraseEnum#is%20the%20numeric%20location%2C%20within%20a%20chromosone%2C%20genetic%20entity%2C%20or%20genetic%20sub-region%2C%20of%20the%20result%20in> ;
    cosmos_sdtm:object "GFORRES" ;
    cosmos_sdtm:predicateTerm <https://www.cdisc.org/cosmos/sdtm_v1.0/PredicateTermEnum#IS_POSITION_FOR> ;
    cosmos_sdtm:subject "GFGENLOC" .

<https://w3id.org/cdisc/cosmos/dss/GF/CPNUMVARNUMGCPY/GFGENREF/relationship> a cosmos_sdtm:RelationShip ;
    cosmos_sdtm:linkingPhrase <https://www.cdisc.org/cosmos/sdtm_v1.0/LinkingPhraseEnum#identifies%20the%20reference%20used%20in%20the%20genomic%20test%20in> ;
    cosmos_sdtm:object "GFTESTCD" ;
    cosmos_sdtm:predicateTerm <https://www.cdisc.org/cosmos/sdtm_v1.0/PredicateTermEnum#SPECIFIES> ;
    cosmos_sdtm:subject "GFGENREF" .

<https://w3id.org/cdisc/cosmos/dss/GF/CPNUMVARNUMGCPY/GFGENSR/relationship> a cosmos_sdtm:RelationShip ;
    cosmos_sdtm:linkingPhrase <https://www.cdisc.org/cosmos/sdtm_v1.0/LinkingPhraseEnum#is%20the%20genetic%20sub-location%20of%20the%20result%20in> ;
    cosmos_sdtm:object "GFORRES" ;
    cosmos_sdtm:predicateTerm <https://www.cdisc.org/cosmos/sdtm_v1.0/PredicateTermEnum#IS_POSITION_FOR> ;
    cosmos_sdtm:subject "GFGENSR" .

<https://w3id.org/cdisc/cosmos/dss/GF/CPNUMVARNUMGCPY/GFINHERT/assignedTerm> a cosmos_sdtm:AssignedTerm ;
    cosmos_sdtm:conceptId NCIT:C18060 ;
    cosmos_sdtm:value "SOMATIC VARIATION" .

<https://w3id.org/cdisc/cosmos/dss/GF/CPNUMVARNUMGCPY/GFINHERT/relationship> a cosmos_sdtm:RelationShip ;
    cosmos_sdtm:linkingPhrase <https://www.cdisc.org/cosmos/sdtm_v1.0/LinkingPhraseEnum#indicates%20heritability%20of%20the%20genetic%20variant%20in> ;
    cosmos_sdtm:object "GFORRES" ;
    cosmos_sdtm:predicateTerm <https://www.cdisc.org/cosmos/sdtm_v1.0/PredicateTermEnum#IS_ATTRIBUTE_FOR> ;
    cosmos_sdtm:subject "GFINHERT" .

<https://w3id.org/cdisc/cosmos/dss/GF/CPNUMVARNUMGCPY/GFMETHOD/relationship> a cosmos_sdtm:RelationShip ;
    cosmos_sdtm:linkingPhrase <https://www.cdisc.org/cosmos/sdtm_v1.0/LinkingPhraseEnum#is%20the%20method%20for%20the%20test%20in> ;
    cosmos_sdtm:object "GFTESTCD" ;
    cosmos_sdtm:predicateTerm <https://www.cdisc.org/cosmos/sdtm_v1.0/PredicateTermEnum#SPECIFIES> ;
    cosmos_sdtm:subject "GFMETHOD" .

<https://w3id.org/cdisc/cosmos/dss/GF/CPNUMVARNUMGCPY/GFORRES/relationship> a cosmos_sdtm:RelationShip ;
    cosmos_sdtm:linkingPhrase <https://www.cdisc.org/cosmos/sdtm_v1.0/LinkingPhraseEnum#is%20the%20result%20of%20the%20test%20in> ;
    cosmos_sdtm:object "GFTESTCD" ;
    cosmos_sdtm:predicateTerm <https://www.cdisc.org/cosmos/sdtm_v1.0/PredicateTermEnum#IS_RESULT_OF> ;
    cosmos_sdtm:subject "GFORRES" .

<https://w3id.org/cdisc/cosmos/dss/GF/CPNUMVARNUMGCPY/GFPRVID/relationship> a cosmos_sdtm:RelationShip ;
    cosmos_sdtm:linkingPhrase <https://www.cdisc.org/cosmos/sdtm_v1.0/LinkingPhraseEnum#is%20an%20identifier%20for%20a%20published%20reference%20for%20the%20genetic%20variant%20in> ;
    cosmos_sdtm:object "GFORRES" ;
    cosmos_sdtm:predicateTerm <https://www.cdisc.org/cosmos/sdtm_v1.0/PredicateTermEnum#IS_ATTRIBUTE_FOR> ;
    cosmos_sdtm:subject "GFPRVID" .

<https://w3id.org/cdisc/cosmos/dss/GF/CPNUMVARNUMGCPY/GFSEQID/relationship> a cosmos_sdtm:RelationShip ;
    cosmos_sdtm:linkingPhrase <https://www.cdisc.org/cosmos/sdtm_v1.0/LinkingPhraseEnum#is%20an%20identifier%20for%20the%20genetic%20sequence%20of%20the%20genetic%20entity%20represented%20by> ;
    cosmos_sdtm:object "GFSYM" ;
    cosmos_sdtm:predicateTerm <https://www.cdisc.org/cosmos/sdtm_v1.0/PredicateTermEnum#IDENTIFIES> ;
    cosmos_sdtm:subject "GFSEQID" .

<https://w3id.org/cdisc/cosmos/dss/GF/CPNUMVARNUMGCPY/GFSPEC/assignedTerm> a cosmos_sdtm:AssignedTerm ;
    cosmos_sdtm:conceptId NCIT:C449 ;
    cosmos_sdtm:value "DNA" .

<https://w3id.org/cdisc/cosmos/dss/GF/CPNUMVARNUMGCPY/GFSPEC/relationship> a cosmos_sdtm:RelationShip ;
    cosmos_sdtm:linkingPhrase <https://www.cdisc.org/cosmos/sdtm_v1.0/LinkingPhraseEnum#is%20the%20specimen%20tested%20in> ;
    cosmos_sdtm:object "GFTESTCD" ;
    cosmos_sdtm:predicateTerm <https://www.cdisc.org/cosmos/sdtm_v1.0/PredicateTermEnum#IS_SPECIMEN_TESTED_IN> ;
    cosmos_sdtm:subject "GFSPEC" .

<https://w3id.org/cdisc/cosmos/dss/GF/CPNUMVARNUMGCPY/GFSTRESC/relationship> a cosmos_sdtm:RelationShip ;
    cosmos_sdtm:linkingPhrase <https://www.cdisc.org/cosmos/sdtm_v1.0/LinkingPhraseEnum#is%20the%20result%20of%20the%20test%20in> ;
    cosmos_sdtm:object "GFTESTCD" ;
    cosmos_sdtm:predicateTerm <https://www.cdisc.org/cosmos/sdtm_v1.0/PredicateTermEnum#IS_RESULT_OF> ;
    cosmos_sdtm:subject "GFSTRESC" .

<https://w3id.org/cdisc/cosmos/dss/GF/CPNUMVARNUMGCPY/GFSTRESN/relationship> a cosmos_sdtm:RelationShip ;
    cosmos_sdtm:linkingPhrase <https://www.cdisc.org/cosmos/sdtm_v1.0/LinkingPhraseEnum#is%20the%20result%20of%20the%20test%20in> ;
    cosmos_sdtm:object "GFTESTCD" ;
    cosmos_sdtm:predicateTerm <https://www.cdisc.org/cosmos/sdtm_v1.0/PredicateTermEnum#IS_RESULT_OF> ;
    cosmos_sdtm:subject "GFSTRESN" .

<https://w3id.org/cdisc/cosmos/dss/GF/CPNUMVARNUMGCPY/GFSYM/relationship> a cosmos_sdtm:RelationShip ;
    cosmos_sdtm:linkingPhrase <https://www.cdisc.org/cosmos/sdtm_v1.0/LinkingPhraseEnum#is%20the%20symbol%20for%20the%20genomic%20entity%20that%20is%20the%20position%20of%20the%20result%20in> ;
    cosmos_sdtm:object "GFORRES" ;
    cosmos_sdtm:predicateTerm <https://www.cdisc.org/cosmos/sdtm_v1.0/PredicateTermEnum#IS_POSITION_FOR> ;
    cosmos_sdtm:subject "GFSYM" .

<https://w3id.org/cdisc/cosmos/dss/GF/CPNUMVARNUMGCPY/GFSYMTYP/relationship> a cosmos_sdtm:RelationShip ;
    cosmos_sdtm:linkingPhrase <https://www.cdisc.org/cosmos/sdtm_v1.0/LinkingPhraseEnum#is%20the%20type%20of%20genomic%20entity%20that%20is%20the%20position%20of%20the%20result%20in> ;
    cosmos_sdtm:object "GFORRES" ;
    cosmos_sdtm:predicateTerm <https://www.cdisc.org/cosmos/sdtm_v1.0/PredicateTermEnum#IS_POSITION_FOR> ;
    cosmos_sdtm:subject "GFSYMTYP" .

<https://w3id.org/cdisc/cosmos/dss/GF/CPNUMVARNUMGCPY/GFTEST/assignedTerm> a cosmos_sdtm:AssignedTerm ;
    cosmos_sdtm:conceptId NCIT:C181330 ;
    cosmos_sdtm:value "Copy Number Variation" .

<https://w3id.org/cdisc/cosmos/dss/GF/CPNUMVARNUMGCPY/GFTEST/relationship> a cosmos_sdtm:RelationShip ;
    cosmos_sdtm:linkingPhrase <https://www.cdisc.org/cosmos/sdtm_v1.0/LinkingPhraseEnum#decodes%20the%20value%20in> ;
    cosmos_sdtm:object "GFTESTCD" ;
    cosmos_sdtm:predicateTerm <https://www.cdisc.org/cosmos/sdtm_v1.0/PredicateTermEnum#DECODES> ;
    cosmos_sdtm:subject "GFTEST" .

<https://w3id.org/cdisc/cosmos/dss/GF/CPNUMVARNUMGCPY/GFTESTCD/assignedTerm> a cosmos_sdtm:AssignedTerm ;
    cosmos_sdtm:conceptId NCIT:C181330 ;
    cosmos_sdtm:value "CPNUMVAR" .

<https://w3id.org/cdisc/cosmos/dss/GF/CPNUMVARNUMGCPY/GFTESTCD/relationship> a cosmos_sdtm:RelationShip ;
    cosmos_sdtm:linkingPhrase <https://www.cdisc.org/cosmos/sdtm_v1.0/LinkingPhraseEnum#is%20the%20code%20for%20the%20value%20in> ;
    cosmos_sdtm:object "GFTEST" ;
    cosmos_sdtm:predicateTerm <https://www.cdisc.org/cosmos/sdtm_v1.0/PredicateTermEnum#IS_DECODED_BY> ;
    cosmos_sdtm:subject "GFTESTCD" .

<https://w3id.org/cdisc/cosmos/dss/GF/CPNUMVARNUMGCPY/GFTSTDTL/assignedTerm> a cosmos_sdtm:AssignedTerm ;
    cosmos_sdtm:conceptId NCIT:C181336 ;
    cosmos_sdtm:value "NUMBER OF GENE COPIES" .

<https://w3id.org/cdisc/cosmos/dss/GF/CPNUMVARNUMGCPY/GFTSTDTL/relationship> a cosmos_sdtm:RelationShip ;
    cosmos_sdtm:linkingPhrase <https://www.cdisc.org/cosmos/sdtm_v1.0/LinkingPhraseEnum#further%20describes%20the%20test%20in> ;
    cosmos_sdtm:object "GFTESTCD" ;
    cosmos_sdtm:predicateTerm <https://www.cdisc.org/cosmos/sdtm_v1.0/PredicateTermEnum#SPECIFIES> ;
    cosmos_sdtm:subject "GFTSTDTL" .

<https://w3id.org/cdisc/cosmos/dss/GF/GENESIGINTP/GFANMETH/assignedTerm> a cosmos_sdtm:AssignedTerm ;
    cosmos_sdtm:conceptId NCIT:C181329 ;
    cosmos_sdtm:value "IFN-1 GENE SIGNATURE" .

<https://w3id.org/cdisc/cosmos/dss/GF/GENESIGINTP/GFANMETH/relationship> a cosmos_sdtm:RelationShip ;
    cosmos_sdtm:linkingPhrase <https://www.cdisc.org/cosmos/sdtm_v1.0/LinkingPhraseEnum#is%20the%20method%20of%20secondary%20analysis%20of%20results%20in> ;
    cosmos_sdtm:object "GFTESTCD" ;
    cosmos_sdtm:predicateTerm <https://www.cdisc.org/cosmos/sdtm_v1.0/PredicateTermEnum#SPECIFIES> ;
    cosmos_sdtm:subject "GFANMETH" .

<https://w3id.org/cdisc/cosmos/dss/GF/GENESIGINTP/GFCAT/assignedTerm> a cosmos_sdtm:AssignedTerm ;
    cosmos_sdtm:value "GENE EXPRESSION" .

<https://w3id.org/cdisc/cosmos/dss/GF/GENESIGINTP/GFCAT/relationship> a cosmos_sdtm:RelationShip ;
    cosmos_sdtm:linkingPhrase <https://www.cdisc.org/cosmos/sdtm_v1.0/LinkingPhraseEnum#groups%20values%20in> ;
    cosmos_sdtm:object "GFTESTCD" ;
    cosmos_sdtm:predicateTerm <https://www.cdisc.org/cosmos/sdtm_v1.0/PredicateTermEnum#GROUPS> ;
    cosmos_sdtm:subject "GFCAT" .

<https://w3id.org/cdisc/cosmos/dss/GF/GENESIGINTP/GFCHROM/relationship> a cosmos_sdtm:RelationShip ;
    cosmos_sdtm:linkingPhrase <https://www.cdisc.org/cosmos/sdtm_v1.0/LinkingPhraseEnum#is%20the%20chromosome%20that%20is%20the%20position%20of%20the%20result%20in> ;
    cosmos_sdtm:object "GFORRES" ;
    cosmos_sdtm:predicateTerm <https://www.cdisc.org/cosmos/sdtm_v1.0/PredicateTermEnum#IS_POSITION_FOR> ;
    cosmos_sdtm:subject "GFCHROM" .

<https://w3id.org/cdisc/cosmos/dss/GF/GENESIGINTP/GFDTC/relationship> a cosmos_sdtm:RelationShip ;
    cosmos_sdtm:linkingPhrase <https://www.cdisc.org/cosmos/sdtm_v1.0/LinkingPhraseEnum#is%20the%20date%20of%20occurrence%20for> ;
    cosmos_sdtm:object "GFTESTCD" ;
    cosmos_sdtm:predicateTerm <https://www.cdisc.org/cosmos/sdtm_v1.0/PredicateTermEnum#IS_TIMING_FOR> ;
    cosmos_sdtm:subject "GFDTC" .

<https://w3id.org/cdisc/cosmos/dss/GF/GENESIGINTP/GFGENLOC/relationship> a cosmos_sdtm:RelationShip ;
    cosmos_sdtm:linkingPhrase <https://www.cdisc.org/cosmos/sdtm_v1.0/LinkingPhraseEnum#is%20the%20numeric%20location%2C%20within%20a%20chromosone%2C%20genetic%20entity%2C%20or%20genetic%20sub-region%2C%20of%20the%20result%20in> ;
    cosmos_sdtm:object "GFORRES" ;
    cosmos_sdtm:predicateTerm <https://www.cdisc.org/cosmos/sdtm_v1.0/PredicateTermEnum#IS_POSITION_FOR> ;
    cosmos_sdtm:subject "GFGENLOC" .

<https://w3id.org/cdisc/cosmos/dss/GF/GENESIGINTP/GFGENREF/relationship> a cosmos_sdtm:RelationShip ;
    cosmos_sdtm:linkingPhrase <https://www.cdisc.org/cosmos/sdtm_v1.0/LinkingPhraseEnum#identifies%20the%20reference%20used%20in%20the%20genomic%20test%20in> ;
    cosmos_sdtm:object "GFTESTCD" ;
    cosmos_sdtm:predicateTerm <https://www.cdisc.org/cosmos/sdtm_v1.0/PredicateTermEnum#SPECIFIES> ;
    cosmos_sdtm:subject "GFGENREF" .

<https://w3id.org/cdisc/cosmos/dss/GF/GENESIGINTP/GFGENSR/relationship> a cosmos_sdtm:RelationShip ;
    cosmos_sdtm:linkingPhrase <https://www.cdisc.org/cosmos/sdtm_v1.0/LinkingPhraseEnum#is%20the%20genetic%20sub-location%20of%20the%20result%20in> ;
    cosmos_sdtm:object "GFORRES" ;
    cosmos_sdtm:predicateTerm <https://www.cdisc.org/cosmos/sdtm_v1.0/PredicateTermEnum#IS_POSITION_FOR> ;
    cosmos_sdtm:subject "GFGENSR" .

<https://w3id.org/cdisc/cosmos/dss/GF/GENESIGINTP/GFINHERT/relationship> a cosmos_sdtm:RelationShip ;
    cosmos_sdtm:linkingPhrase <https://www.cdisc.org/cosmos/sdtm_v1.0/LinkingPhraseEnum#indicates%20heritability%20of%20the%20genetic%20variant%20in> ;
    cosmos_sdtm:object "GFORRES" ;
    cosmos_sdtm:predicateTerm <https://www.cdisc.org/cosmos/sdtm_v1.0/PredicateTermEnum#IS_ATTRIBUTE_FOR> ;
    cosmos_sdtm:subject "GFINHERT" .

<https://w3id.org/cdisc/cosmos/dss/GF/GENESIGINTP/GFMETHOD/assignedTerm> a cosmos_sdtm:AssignedTerm ;
    cosmos_sdtm:conceptId NCIT:C158252 ;
    cosmos_sdtm:value "TARGETED TRANSCRIPTOME SEQUENCING" .

<https://w3id.org/cdisc/cosmos/dss/GF/GENESIGINTP/GFMETHOD/relationship> a cosmos_sdtm:RelationShip ;
    cosmos_sdtm:linkingPhrase <https://www.cdisc.org/cosmos/sdtm_v1.0/LinkingPhraseEnum#is%20the%20method%20for%20the%20test%20in> ;
    cosmos_sdtm:object "GFTESTCD" ;
    cosmos_sdtm:predicateTerm <https://www.cdisc.org/cosmos/sdtm_v1.0/PredicateTermEnum#SPECIFIES> ;
    cosmos_sdtm:subject "GFMETHOD" .

<https://w3id.org/cdisc/cosmos/dss/GF/GENESIGINTP/GFORRES/relationship> a cosmos_sdtm:RelationShip ;
    cosmos_sdtm:linkingPhrase <https://www.cdisc.org/cosmos/sdtm_v1.0/LinkingPhraseEnum#is%20the%20result%20of%20the%20test%20in> ;
    cosmos_sdtm:object "GFTESTCD" ;
    cosmos_sdtm:predicateTerm <https://www.cdisc.org/cosmos/sdtm_v1.0/PredicateTermEnum#IS_RESULT_OF> ;
    cosmos_sdtm:subject "GFORRES" .

<https://w3id.org/cdisc/cosmos/dss/GF/GENESIGINTP/GFPRVID/relationship> a cosmos_sdtm:RelationShip ;
    cosmos_sdtm:linkingPhrase <https://www.cdisc.org/cosmos/sdtm_v1.0/LinkingPhraseEnum#is%20an%20identifier%20for%20a%20published%20reference%20for%20the%20genetic%20variant%20in> ;
    cosmos_sdtm:object "GFORRES" ;
    cosmos_sdtm:predicateTerm <https://www.cdisc.org/cosmos/sdtm_v1.0/PredicateTermEnum#IS_ATTRIBUTE_FOR> ;
    cosmos_sdtm:subject "GFPRVID" .

<https://w3id.org/cdisc/cosmos/dss/GF/GENESIGINTP/GFSEQID/relationship> a cosmos_sdtm:RelationShip ;
    cosmos_sdtm:linkingPhrase <https://www.cdisc.org/cosmos/sdtm_v1.0/LinkingPhraseEnum#is%20an%20identifier%20for%20the%20genetic%20sequence%20of%20the%20genetic%20entity%20represented%20by> ;
    cosmos_sdtm:object "GFSYM" ;
    cosmos_sdtm:predicateTerm <https://www.cdisc.org/cosmos/sdtm_v1.0/PredicateTermEnum#IDENTIFIES> ;
    cosmos_sdtm:subject "GFSEQID" .

<https://w3id.org/cdisc/cosmos/dss/GF/GENESIGINTP/GFSPEC/assignedTerm> a cosmos_sdtm:AssignedTerm ;
    cosmos_sdtm:conceptId NCIT:C812 ;
    cosmos_sdtm:value "RNA" .

<https://w3id.org/cdisc/cosmos/dss/GF/GENESIGINTP/GFSPEC/relationship> a cosmos_sdtm:RelationShip ;
    cosmos_sdtm:linkingPhrase <https://www.cdisc.org/cosmos/sdtm_v1.0/LinkingPhraseEnum#is%20the%20specimen%20tested%20in> ;
    cosmos_sdtm:object "GFTESTCD" ;
    cosmos_sdtm:predicateTerm <https://www.cdisc.org/cosmos/sdtm_v1.0/PredicateTermEnum#IS_SPECIMEN_TESTED_IN> ;
    cosmos_sdtm:subject "GFSPEC" .

<https://w3id.org/cdisc/cosmos/dss/GF/GENESIGINTP/GFSTRESC/relationship> a cosmos_sdtm:RelationShip ;
    cosmos_sdtm:linkingPhrase <https://www.cdisc.org/cosmos/sdtm_v1.0/LinkingPhraseEnum#is%20the%20result%20of%20the%20test%20in> ;
    cosmos_sdtm:object "GFTESTCD" ;
    cosmos_sdtm:predicateTerm <https://www.cdisc.org/cosmos/sdtm_v1.0/PredicateTermEnum#IS_RESULT_OF> ;
    cosmos_sdtm:subject "GFSTRESC" .

<https://w3id.org/cdisc/cosmos/dss/GF/GENESIGINTP/GFSYM/relationship> a cosmos_sdtm:RelationShip ;
    cosmos_sdtm:linkingPhrase <https://www.cdisc.org/cosmos/sdtm_v1.0/LinkingPhraseEnum#is%20the%20symbol%20for%20the%20genomic%20entity%20that%20is%20the%20position%20of%20the%20result%20in> ;
    cosmos_sdtm:object "GFORRES" ;
    cosmos_sdtm:predicateTerm <https://www.cdisc.org/cosmos/sdtm_v1.0/PredicateTermEnum#IS_POSITION_FOR> ;
    cosmos_sdtm:subject "GFSYM" .

<https://w3id.org/cdisc/cosmos/dss/GF/GENESIGINTP/GFSYMTYP/relationship> a cosmos_sdtm:RelationShip ;
    cosmos_sdtm:linkingPhrase <https://www.cdisc.org/cosmos/sdtm_v1.0/LinkingPhraseEnum#is%20the%20type%20of%20genomic%20entity%20that%20is%20the%20position%20of%20the%20result%20in> ;
    cosmos_sdtm:object "GFORRES" ;
    cosmos_sdtm:predicateTerm <https://www.cdisc.org/cosmos/sdtm_v1.0/PredicateTermEnum#IS_POSITION_FOR> ;
    cosmos_sdtm:subject "GFSYMTYP" .

<https://w3id.org/cdisc/cosmos/dss/GF/GENESIGINTP/GFTEST/assignedTerm> a cosmos_sdtm:AssignedTerm ;
    cosmos_sdtm:conceptId NCIT:C181333 ;
    cosmos_sdtm:value "Gene Signature" .

<https://w3id.org/cdisc/cosmos/dss/GF/GENESIGINTP/GFTEST/relationship> a cosmos_sdtm:RelationShip ;
    cosmos_sdtm:linkingPhrase <https://www.cdisc.org/cosmos/sdtm_v1.0/LinkingPhraseEnum#decodes%20the%20value%20in> ;
    cosmos_sdtm:object "GFTESTCD" ;
    cosmos_sdtm:predicateTerm <https://www.cdisc.org/cosmos/sdtm_v1.0/PredicateTermEnum#DECODES> ;
    cosmos_sdtm:subject "GFTEST" .

<https://w3id.org/cdisc/cosmos/dss/GF/GENESIGINTP/GFTESTCD/assignedTerm> a cosmos_sdtm:AssignedTerm ;
    cosmos_sdtm:conceptId NCIT:C181333 ;
    cosmos_sdtm:value "GENESIG" .

<https://w3id.org/cdisc/cosmos/dss/GF/GENESIGINTP/GFTESTCD/relationship> a cosmos_sdtm:RelationShip ;
    cosmos_sdtm:linkingPhrase <https://www.cdisc.org/cosmos/sdtm_v1.0/LinkingPhraseEnum#is%20the%20code%20for%20the%20value%20in> ;
    cosmos_sdtm:object "GFTEST" ;
    cosmos_sdtm:predicateTerm <https://www.cdisc.org/cosmos/sdtm_v1.0/PredicateTermEnum#IS_DECODED_BY> ;
    cosmos_sdtm:subject "GFTESTCD" .

<https://w3id.org/cdisc/cosmos/dss/GF/GENESIGINTP/GFTSTDTL/assignedTerm> a cosmos_sdtm:AssignedTerm ;
    cosmos_sdtm:conceptId NCIT:C181339 ;
    cosmos_sdtm:value "GENETIC TRANSCRIPTION INTERPRETATION" .

<https://w3id.org/cdisc/cosmos/dss/GF/GENESIGINTP/GFTSTDTL/relationship> a cosmos_sdtm:RelationShip ;
    cosmos_sdtm:linkingPhrase <https://www.cdisc.org/cosmos/sdtm_v1.0/LinkingPhraseEnum#further%20describes%20the%20test%20in> ;
    cosmos_sdtm:object "GFTESTCD" ;
    cosmos_sdtm:predicateTerm <https://www.cdisc.org/cosmos/sdtm_v1.0/PredicateTermEnum#SPECIFIES> ;
    cosmos_sdtm:subject "GFTSTDTL" .

<https://w3id.org/cdisc/cosmos/dss/GF/GENESIGSCORE/GFANMETH/assignedTerm> a cosmos_sdtm:AssignedTerm ;
    cosmos_sdtm:conceptId NCIT:C181329 ;
    cosmos_sdtm:value "IFN-1 GENE SIGNATURE" .

<https://w3id.org/cdisc/cosmos/dss/GF/GENESIGSCORE/GFANMETH/relationship> a cosmos_sdtm:RelationShip ;
    cosmos_sdtm:linkingPhrase <https://www.cdisc.org/cosmos/sdtm_v1.0/LinkingPhraseEnum#is%20the%20method%20of%20secondary%20analysis%20of%20results%20in> ;
    cosmos_sdtm:object "GFTESTCD" ;
    cosmos_sdtm:predicateTerm <https://www.cdisc.org/cosmos/sdtm_v1.0/PredicateTermEnum#SPECIFIES> ;
    cosmos_sdtm:subject "GFANMETH" .

<https://w3id.org/cdisc/cosmos/dss/GF/GENESIGSCORE/GFCAT/assignedTerm> a cosmos_sdtm:AssignedTerm ;
    cosmos_sdtm:value "GENE EXPRESSION" .

<https://w3id.org/cdisc/cosmos/dss/GF/GENESIGSCORE/GFCAT/relationship> a cosmos_sdtm:RelationShip ;
    cosmos_sdtm:linkingPhrase <https://www.cdisc.org/cosmos/sdtm_v1.0/LinkingPhraseEnum#groups%20values%20in> ;
    cosmos_sdtm:object "GFTESTCD" ;
    cosmos_sdtm:predicateTerm <https://www.cdisc.org/cosmos/sdtm_v1.0/PredicateTermEnum#GROUPS> ;
    cosmos_sdtm:subject "GFCAT" .

<https://w3id.org/cdisc/cosmos/dss/GF/GENESIGSCORE/GFCHROM/relationship> a cosmos_sdtm:RelationShip ;
    cosmos_sdtm:linkingPhrase <https://www.cdisc.org/cosmos/sdtm_v1.0/LinkingPhraseEnum#is%20the%20chromosome%20that%20is%20the%20position%20of%20the%20result%20in> ;
    cosmos_sdtm:object "GFORRES" ;
    cosmos_sdtm:predicateTerm <https://www.cdisc.org/cosmos/sdtm_v1.0/PredicateTermEnum#IS_POSITION_FOR> ;
    cosmos_sdtm:subject "GFCHROM" .

<https://w3id.org/cdisc/cosmos/dss/GF/GENESIGSCORE/GFDTC/relationship> a cosmos_sdtm:RelationShip ;
    cosmos_sdtm:linkingPhrase <https://www.cdisc.org/cosmos/sdtm_v1.0/LinkingPhraseEnum#is%20the%20date%20of%20occurrence%20for> ;
    cosmos_sdtm:object "GFTESTCD" ;
    cosmos_sdtm:predicateTerm <https://www.cdisc.org/cosmos/sdtm_v1.0/PredicateTermEnum#IS_TIMING_FOR> ;
    cosmos_sdtm:subject "GFDTC" .

<https://w3id.org/cdisc/cosmos/dss/GF/GENESIGSCORE/GFGENLOC/relationship> a cosmos_sdtm:RelationShip ;
    cosmos_sdtm:linkingPhrase <https://www.cdisc.org/cosmos/sdtm_v1.0/LinkingPhraseEnum#is%20the%20numeric%20location%2C%20within%20a%20chromosone%2C%20genetic%20entity%2C%20or%20genetic%20sub-region%2C%20of%20the%20result%20in> ;
    cosmos_sdtm:object "GFORRES" ;
    cosmos_sdtm:predicateTerm <https://www.cdisc.org/cosmos/sdtm_v1.0/PredicateTermEnum#IS_POSITION_FOR> ;
    cosmos_sdtm:subject "GFGENLOC" .

<https://w3id.org/cdisc/cosmos/dss/GF/GENESIGSCORE/GFGENREF/relationship> a cosmos_sdtm:RelationShip ;
    cosmos_sdtm:linkingPhrase <https://www.cdisc.org/cosmos/sdtm_v1.0/LinkingPhraseEnum#identifies%20the%20reference%20used%20in%20the%20genomic%20test%20in> ;
    cosmos_sdtm:object "GFTESTCD" ;
    cosmos_sdtm:predicateTerm <https://www.cdisc.org/cosmos/sdtm_v1.0/PredicateTermEnum#SPECIFIES> ;
    cosmos_sdtm:subject "GFGENREF" .

<https://w3id.org/cdisc/cosmos/dss/GF/GENESIGSCORE/GFGENSR/relationship> a cosmos_sdtm:RelationShip ;
    cosmos_sdtm:linkingPhrase <https://www.cdisc.org/cosmos/sdtm_v1.0/LinkingPhraseEnum#is%20the%20genetic%20sub-location%20of%20the%20result%20in> ;
    cosmos_sdtm:object "GFORRES" ;
    cosmos_sdtm:predicateTerm <https://www.cdisc.org/cosmos/sdtm_v1.0/PredicateTermEnum#IS_POSITION_FOR> ;
    cosmos_sdtm:subject "GFGENSR" .

<https://w3id.org/cdisc/cosmos/dss/GF/GENESIGSCORE/GFINHERT/relationship> a cosmos_sdtm:RelationShip ;
    cosmos_sdtm:linkingPhrase <https://www.cdisc.org/cosmos/sdtm_v1.0/LinkingPhraseEnum#indicates%20heritability%20of%20the%20genetic%20variant%20in> ;
    cosmos_sdtm:object "GFORRES" ;
    cosmos_sdtm:predicateTerm <https://www.cdisc.org/cosmos/sdtm_v1.0/PredicateTermEnum#IS_ATTRIBUTE_FOR> ;
    cosmos_sdtm:subject "GFINHERT" .

<https://w3id.org/cdisc/cosmos/dss/GF/GENESIGSCORE/GFMETHOD/assignedTerm> a cosmos_sdtm:AssignedTerm ;
    cosmos_sdtm:conceptId NCIT:C158252 ;
    cosmos_sdtm:value "TARGETED TRANSCRIPTOME SEQUENCING" .

<https://w3id.org/cdisc/cosmos/dss/GF/GENESIGSCORE/GFMETHOD/relationship> a cosmos_sdtm:RelationShip ;
    cosmos_sdtm:linkingPhrase <https://www.cdisc.org/cosmos/sdtm_v1.0/LinkingPhraseEnum#is%20the%20method%20for%20the%20test%20in> ;
    cosmos_sdtm:object "GFTESTCD" ;
    cosmos_sdtm:predicateTerm <https://www.cdisc.org/cosmos/sdtm_v1.0/PredicateTermEnum#SPECIFIES> ;
    cosmos_sdtm:subject "GFMETHOD" .

<https://w3id.org/cdisc/cosmos/dss/GF/GENESIGSCORE/GFORRES/relationship> a cosmos_sdtm:RelationShip ;
    cosmos_sdtm:linkingPhrase <https://www.cdisc.org/cosmos/sdtm_v1.0/LinkingPhraseEnum#is%20the%20result%20of%20the%20test%20in> ;
    cosmos_sdtm:object "GFTESTCD" ;
    cosmos_sdtm:predicateTerm <https://www.cdisc.org/cosmos/sdtm_v1.0/PredicateTermEnum#IS_RESULT_OF> ;
    cosmos_sdtm:subject "GFORRES" .

<https://w3id.org/cdisc/cosmos/dss/GF/GENESIGSCORE/GFPRVID/relationship> a cosmos_sdtm:RelationShip ;
    cosmos_sdtm:linkingPhrase <https://www.cdisc.org/cosmos/sdtm_v1.0/LinkingPhraseEnum#is%20an%20identifier%20for%20a%20published%20reference%20for%20the%20genetic%20variant%20in> ;
    cosmos_sdtm:object "GFORRES" ;
    cosmos_sdtm:predicateTerm <https://www.cdisc.org/cosmos/sdtm_v1.0/PredicateTermEnum#IS_ATTRIBUTE_FOR> ;
    cosmos_sdtm:subject "GFPRVID" .

<https://w3id.org/cdisc/cosmos/dss/GF/GENESIGSCORE/GFSEQID/relationship> a cosmos_sdtm:RelationShip ;
    cosmos_sdtm:linkingPhrase <https://www.cdisc.org/cosmos/sdtm_v1.0/LinkingPhraseEnum#is%20an%20identifier%20for%20the%20genetic%20sequence%20of%20the%20genetic%20entity%20represented%20by> ;
    cosmos_sdtm:object "GFSYM" ;
    cosmos_sdtm:predicateTerm <https://www.cdisc.org/cosmos/sdtm_v1.0/PredicateTermEnum#IDENTIFIES> ;
    cosmos_sdtm:subject "GFSEQID" .

<https://w3id.org/cdisc/cosmos/dss/GF/GENESIGSCORE/GFSPEC/assignedTerm> a cosmos_sdtm:AssignedTerm ;
    cosmos_sdtm:conceptId NCIT:C812 ;
    cosmos_sdtm:value "RNA" .

<https://w3id.org/cdisc/cosmos/dss/GF/GENESIGSCORE/GFSPEC/relationship> a cosmos_sdtm:RelationShip ;
    cosmos_sdtm:linkingPhrase <https://www.cdisc.org/cosmos/sdtm_v1.0/LinkingPhraseEnum#is%20the%20specimen%20tested%20in> ;
    cosmos_sdtm:object "GFTESTCD" ;
    cosmos_sdtm:predicateTerm <https://www.cdisc.org/cosmos/sdtm_v1.0/PredicateTermEnum#IS_SPECIMEN_TESTED_IN> ;
    cosmos_sdtm:subject "GFSPEC" .

<https://w3id.org/cdisc/cosmos/dss/GF/GENESIGSCORE/GFSTRESC/relationship> a cosmos_sdtm:RelationShip ;
    cosmos_sdtm:linkingPhrase <https://www.cdisc.org/cosmos/sdtm_v1.0/LinkingPhraseEnum#is%20the%20result%20of%20the%20test%20in> ;
    cosmos_sdtm:object "GFTESTCD" ;
    cosmos_sdtm:predicateTerm <https://www.cdisc.org/cosmos/sdtm_v1.0/PredicateTermEnum#IS_RESULT_OF> ;
    cosmos_sdtm:subject "GFSTRESC" .

<https://w3id.org/cdisc/cosmos/dss/GF/GENESIGSCORE/GFSTRESN/relationship> a cosmos_sdtm:RelationShip ;
    cosmos_sdtm:linkingPhrase <https://www.cdisc.org/cosmos/sdtm_v1.0/LinkingPhraseEnum#is%20the%20result%20of%20the%20test%20in> ;
    cosmos_sdtm:object "GFTESTCD" ;
    cosmos_sdtm:predicateTerm <https://www.cdisc.org/cosmos/sdtm_v1.0/PredicateTermEnum#IS_RESULT_OF> ;
    cosmos_sdtm:subject "GFSTRESN" .

<https://w3id.org/cdisc/cosmos/dss/GF/GENESIGSCORE/GFSYM/relationship> a cosmos_sdtm:RelationShip ;
    cosmos_sdtm:linkingPhrase <https://www.cdisc.org/cosmos/sdtm_v1.0/LinkingPhraseEnum#is%20the%20symbol%20for%20the%20genomic%20entity%20that%20is%20the%20position%20of%20the%20result%20in> ;
    cosmos_sdtm:object "GFORRES" ;
    cosmos_sdtm:predicateTerm <https://www.cdisc.org/cosmos/sdtm_v1.0/PredicateTermEnum#IS_POSITION_FOR> ;
    cosmos_sdtm:subject "GFSYM" .

<https://w3id.org/cdisc/cosmos/dss/GF/GENESIGSCORE/GFSYMTYP/relationship> a cosmos_sdtm:RelationShip ;
    cosmos_sdtm:linkingPhrase <https://www.cdisc.org/cosmos/sdtm_v1.0/LinkingPhraseEnum#is%20the%20type%20of%20genomic%20entity%20that%20is%20the%20position%20of%20the%20result%20in> ;
    cosmos_sdtm:object "GFORRES" ;
    cosmos_sdtm:predicateTerm <https://www.cdisc.org/cosmos/sdtm_v1.0/PredicateTermEnum#IS_POSITION_FOR> ;
    cosmos_sdtm:subject "GFSYMTYP" .

<https://w3id.org/cdisc/cosmos/dss/GF/GENESIGSCORE/GFTEST/assignedTerm> a cosmos_sdtm:AssignedTerm ;
    cosmos_sdtm:conceptId NCIT:C181333 ;
    cosmos_sdtm:value "Gene Signature" .

<https://w3id.org/cdisc/cosmos/dss/GF/GENESIGSCORE/GFTEST/relationship> a cosmos_sdtm:RelationShip ;
    cosmos_sdtm:linkingPhrase <https://www.cdisc.org/cosmos/sdtm_v1.0/LinkingPhraseEnum#decodes%20the%20value%20in> ;
    cosmos_sdtm:object "GFTESTCD" ;
    cosmos_sdtm:predicateTerm <https://www.cdisc.org/cosmos/sdtm_v1.0/PredicateTermEnum#DECODES> ;
    cosmos_sdtm:subject "GFTEST" .

<https://w3id.org/cdisc/cosmos/dss/GF/GENESIGSCORE/GFTESTCD/assignedTerm> a cosmos_sdtm:AssignedTerm ;
    cosmos_sdtm:conceptId NCIT:C181333 ;
    cosmos_sdtm:value "GENESIG" .

<https://w3id.org/cdisc/cosmos/dss/GF/GENESIGSCORE/GFTESTCD/relationship> a cosmos_sdtm:RelationShip ;
    cosmos_sdtm:linkingPhrase <https://www.cdisc.org/cosmos/sdtm_v1.0/LinkingPhraseEnum#is%20the%20code%20for%20the%20value%20in> ;
    cosmos_sdtm:object "GFTEST" ;
    cosmos_sdtm:predicateTerm <https://www.cdisc.org/cosmos/sdtm_v1.0/PredicateTermEnum#IS_DECODED_BY> ;
    cosmos_sdtm:subject "GFTESTCD" .

<https://w3id.org/cdisc/cosmos/dss/GF/GENESIGSCORE/GFTSTDTL/assignedTerm> a cosmos_sdtm:AssignedTerm ;
    cosmos_sdtm:conceptId NCIT:C25338 ;
    cosmos_sdtm:value "SCORE" .

<https://w3id.org/cdisc/cosmos/dss/GF/GENESIGSCORE/GFTSTDTL/relationship> a cosmos_sdtm:RelationShip ;
    cosmos_sdtm:linkingPhrase <https://www.cdisc.org/cosmos/sdtm_v1.0/LinkingPhraseEnum#further%20describes%20the%20test%20in> ;
    cosmos_sdtm:object "GFTESTCD" ;
    cosmos_sdtm:predicateTerm <https://www.cdisc.org/cosmos/sdtm_v1.0/PredicateTermEnum#SPECIFIES> ;
    cosmos_sdtm:subject "GFTSTDTL" .

<https://w3id.org/cdisc/cosmos/dss/GF/MICRISTBDETECT/GFCAT/relationship> a cosmos_sdtm:RelationShip ;
    cosmos_sdtm:linkingPhrase <https://www.cdisc.org/cosmos/sdtm_v1.0/LinkingPhraseEnum#groups%20values%20in> ;
    cosmos_sdtm:object "GFTESTCD" ;
    cosmos_sdtm:predicateTerm <https://www.cdisc.org/cosmos/sdtm_v1.0/PredicateTermEnum#GROUPS> ;
    cosmos_sdtm:subject "GFCAT" .

<https://w3id.org/cdisc/cosmos/dss/GF/MICRISTBDETECT/GFDTC/relationship> a cosmos_sdtm:RelationShip ;
    cosmos_sdtm:linkingPhrase <https://www.cdisc.org/cosmos/sdtm_v1.0/LinkingPhraseEnum#is%20the%20date%20of%20occurrence%20for> ;
    cosmos_sdtm:object "GFTESTCD" ;
    cosmos_sdtm:predicateTerm <https://www.cdisc.org/cosmos/sdtm_v1.0/PredicateTermEnum#IS_TIMING_FOR> ;
    cosmos_sdtm:subject "GFDTC" .

<https://w3id.org/cdisc/cosmos/dss/GF/MICRISTBDETECT/GFGENLOC/relationship> a cosmos_sdtm:RelationShip ;
    cosmos_sdtm:linkingPhrase <https://www.cdisc.org/cosmos/sdtm_v1.0/LinkingPhraseEnum#is%20the%20numeric%20location%2C%20within%20a%20chromosone%2C%20genetic%20entity%2C%20or%20genetic%20sub-region%2C%20of%20the%20result%20in> ;
    cosmos_sdtm:object "GFORRES" ;
    cosmos_sdtm:predicateTerm <https://www.cdisc.org/cosmos/sdtm_v1.0/PredicateTermEnum#IS_POSITION_FOR> ;
    cosmos_sdtm:subject "GFGENLOC" .

<https://w3id.org/cdisc/cosmos/dss/GF/MICRISTBDETECT/GFGENSR/relationship> a cosmos_sdtm:RelationShip ;
    cosmos_sdtm:linkingPhrase <https://www.cdisc.org/cosmos/sdtm_v1.0/LinkingPhraseEnum#is%20the%20genetic%20sub-location%20of%20the%20result%20in> ;
    cosmos_sdtm:object "GFORRES" ;
    cosmos_sdtm:predicateTerm <https://www.cdisc.org/cosmos/sdtm_v1.0/PredicateTermEnum#IS_POSITION_FOR> ;
    cosmos_sdtm:subject "GFGENSR" .

<https://w3id.org/cdisc/cosmos/dss/GF/MICRISTBDETECT/GFMETHOD/assignedTerm> a cosmos_sdtm:AssignedTerm ;
    cosmos_sdtm:conceptId NCIT:C17637 ;
    cosmos_sdtm:value "CAPILLARY ELECTROPHORESIS" .

<https://w3id.org/cdisc/cosmos/dss/GF/MICRISTBDETECT/GFMETHOD/relationship> a cosmos_sdtm:RelationShip ;
    cosmos_sdtm:linkingPhrase <https://www.cdisc.org/cosmos/sdtm_v1.0/LinkingPhraseEnum#is%20the%20method%20for%20the%20test%20in> ;
    cosmos_sdtm:object "GFTESTCD" ;
    cosmos_sdtm:predicateTerm <https://www.cdisc.org/cosmos/sdtm_v1.0/PredicateTermEnum#SPECIFIES> ;
    cosmos_sdtm:subject "GFMETHOD" .

<https://w3id.org/cdisc/cosmos/dss/GF/MICRISTBDETECT/GFORRES/relationship> a cosmos_sdtm:RelationShip ;
    cosmos_sdtm:linkingPhrase <https://www.cdisc.org/cosmos/sdtm_v1.0/LinkingPhraseEnum#is%20the%20result%20of%20the%20test%20in> ;
    cosmos_sdtm:object "GFTESTCD" ;
    cosmos_sdtm:predicateTerm <https://www.cdisc.org/cosmos/sdtm_v1.0/PredicateTermEnum#IS_RESULT_OF> ;
    cosmos_sdtm:subject "GFORRES" .

<https://w3id.org/cdisc/cosmos/dss/GF/MICRISTBDETECT/GFSPEC/assignedTerm> a cosmos_sdtm:AssignedTerm ;
    cosmos_sdtm:conceptId NCIT:C449 ;
    cosmos_sdtm:value "DNA" .

<https://w3id.org/cdisc/cosmos/dss/GF/MICRISTBDETECT/GFSPEC/relationship> a cosmos_sdtm:RelationShip ;
    cosmos_sdtm:linkingPhrase <https://www.cdisc.org/cosmos/sdtm_v1.0/LinkingPhraseEnum#is%20the%20specimen%20tested%20in> ;
    cosmos_sdtm:object "GFTESTCD" ;
    cosmos_sdtm:predicateTerm <https://www.cdisc.org/cosmos/sdtm_v1.0/PredicateTermEnum#IS_SPECIMEN_TESTED_IN> ;
    cosmos_sdtm:subject "GFSPEC" .

<https://w3id.org/cdisc/cosmos/dss/GF/MICRISTBDETECT/GFSTRESC/relationship> a cosmos_sdtm:RelationShip ;
    cosmos_sdtm:linkingPhrase <https://www.cdisc.org/cosmos/sdtm_v1.0/LinkingPhraseEnum#is%20the%20result%20of%20the%20test%20in> ;
    cosmos_sdtm:object "GFTESTCD" ;
    cosmos_sdtm:predicateTerm <https://www.cdisc.org/cosmos/sdtm_v1.0/PredicateTermEnum#IS_RESULT_OF> ;
    cosmos_sdtm:subject "GFSTRESC" .

<https://w3id.org/cdisc/cosmos/dss/GF/MICRISTBDETECT/GFTEST/assignedTerm> a cosmos_sdtm:AssignedTerm ;
    cosmos_sdtm:conceptId NCIT:C181332 ;
    cosmos_sdtm:value "Microsatellite Instability" .

<https://w3id.org/cdisc/cosmos/dss/GF/MICRISTBDETECT/GFTEST/relationship> a cosmos_sdtm:RelationShip ;
    cosmos_sdtm:linkingPhrase <https://www.cdisc.org/cosmos/sdtm_v1.0/LinkingPhraseEnum#decodes%20the%20value%20in> ;
    cosmos_sdtm:object "GFTESTCD" ;
    cosmos_sdtm:predicateTerm <https://www.cdisc.org/cosmos/sdtm_v1.0/PredicateTermEnum#DECODES> ;
    cosmos_sdtm:subject "GFTEST" .

<https://w3id.org/cdisc/cosmos/dss/GF/MICRISTBDETECT/GFTESTCD/assignedTerm> a cosmos_sdtm:AssignedTerm ;
    cosmos_sdtm:conceptId NCIT:C181332 ;
    cosmos_sdtm:value "MICRISTB" .

<https://w3id.org/cdisc/cosmos/dss/GF/MICRISTBDETECT/GFTESTCD/relationship> a cosmos_sdtm:RelationShip ;
    cosmos_sdtm:linkingPhrase <https://www.cdisc.org/cosmos/sdtm_v1.0/LinkingPhraseEnum#is%20the%20code%20for%20the%20value%20in> ;
    cosmos_sdtm:object "GFTEST" ;
    cosmos_sdtm:predicateTerm <https://www.cdisc.org/cosmos/sdtm_v1.0/PredicateTermEnum#IS_DECODED_BY> ;
    cosmos_sdtm:subject "GFTESTCD" .

<https://w3id.org/cdisc/cosmos/dss/GF/MICRISTBDETECT/GFTSTDTL/assignedTerm> a cosmos_sdtm:AssignedTerm ;
    cosmos_sdtm:conceptId NCIT:C174330 ;
    cosmos_sdtm:value "DETECTION" .

<https://w3id.org/cdisc/cosmos/dss/GF/MICRISTBDETECT/GFTSTDTL/relationship> a cosmos_sdtm:RelationShip ;
    cosmos_sdtm:linkingPhrase <https://www.cdisc.org/cosmos/sdtm_v1.0/LinkingPhraseEnum#further%20describes%20the%20test%20in> ;
    cosmos_sdtm:object "GFTESTCD" ;
    cosmos_sdtm:predicateTerm <https://www.cdisc.org/cosmos/sdtm_v1.0/PredicateTermEnum#SPECIFIES> ;
    cosmos_sdtm:subject "GFTSTDTL" .

<https://w3id.org/cdisc/cosmos/dss/GF/MICRISTBOVRASTAT/GFCAT/relationship> a cosmos_sdtm:RelationShip ;
    cosmos_sdtm:linkingPhrase <https://www.cdisc.org/cosmos/sdtm_v1.0/LinkingPhraseEnum#groups%20values%20in> ;
    cosmos_sdtm:object "GFTESTCD" ;
    cosmos_sdtm:predicateTerm <https://www.cdisc.org/cosmos/sdtm_v1.0/PredicateTermEnum#GROUPS> ;
    cosmos_sdtm:subject "GFCAT" .

<https://w3id.org/cdisc/cosmos/dss/GF/MICRISTBOVRASTAT/GFDTC/relationship> a cosmos_sdtm:RelationShip ;
    cosmos_sdtm:linkingPhrase <https://www.cdisc.org/cosmos/sdtm_v1.0/LinkingPhraseEnum#is%20the%20date%20of%20occurrence%20for> ;
    cosmos_sdtm:object "GFTESTCD" ;
    cosmos_sdtm:predicateTerm <https://www.cdisc.org/cosmos/sdtm_v1.0/PredicateTermEnum#IS_TIMING_FOR> ;
    cosmos_sdtm:subject "GFDTC" .

<https://w3id.org/cdisc/cosmos/dss/GF/MICRISTBOVRASTAT/GFGENLOC/relationship> a cosmos_sdtm:RelationShip ;
    cosmos_sdtm:linkingPhrase <https://www.cdisc.org/cosmos/sdtm_v1.0/LinkingPhraseEnum#is%20the%20numeric%20location%2C%20within%20a%20chromosone%2C%20genetic%20entity%2C%20or%20genetic%20sub-region%2C%20of%20the%20result%20in> ;
    cosmos_sdtm:object "GFORRES" ;
    cosmos_sdtm:predicateTerm <https://www.cdisc.org/cosmos/sdtm_v1.0/PredicateTermEnum#IS_POSITION_FOR> ;
    cosmos_sdtm:subject "GFGENLOC" .

<https://w3id.org/cdisc/cosmos/dss/GF/MICRISTBOVRASTAT/GFGENSR/relationship> a cosmos_sdtm:RelationShip ;
    cosmos_sdtm:linkingPhrase <https://www.cdisc.org/cosmos/sdtm_v1.0/LinkingPhraseEnum#is%20the%20genetic%20sub-location%20of%20the%20result%20in> ;
    cosmos_sdtm:object "GFORRES" ;
    cosmos_sdtm:predicateTerm <https://www.cdisc.org/cosmos/sdtm_v1.0/PredicateTermEnum#IS_POSITION_FOR> ;
    cosmos_sdtm:subject "GFGENSR" .

<https://w3id.org/cdisc/cosmos/dss/GF/MICRISTBOVRASTAT/GFMETHOD/assignedTerm> a cosmos_sdtm:AssignedTerm ;
    cosmos_sdtm:conceptId NCIT:C17637 ;
    cosmos_sdtm:value "CAPILLARY ELECTROPHORESIS" .

<https://w3id.org/cdisc/cosmos/dss/GF/MICRISTBOVRASTAT/GFMETHOD/relationship> a cosmos_sdtm:RelationShip ;
    cosmos_sdtm:linkingPhrase <https://www.cdisc.org/cosmos/sdtm_v1.0/LinkingPhraseEnum#is%20the%20method%20for%20the%20test%20in> ;
    cosmos_sdtm:object "GFTESTCD" ;
    cosmos_sdtm:predicateTerm <https://www.cdisc.org/cosmos/sdtm_v1.0/PredicateTermEnum#SPECIFIES> ;
    cosmos_sdtm:subject "GFMETHOD" .

<https://w3id.org/cdisc/cosmos/dss/GF/MICRISTBOVRASTAT/GFORRES/relationship> a cosmos_sdtm:RelationShip ;
    cosmos_sdtm:linkingPhrase <https://www.cdisc.org/cosmos/sdtm_v1.0/LinkingPhraseEnum#is%20the%20result%20of%20the%20test%20in> ;
    cosmos_sdtm:object "GFTESTCD" ;
    cosmos_sdtm:predicateTerm <https://www.cdisc.org/cosmos/sdtm_v1.0/PredicateTermEnum#IS_RESULT_OF> ;
    cosmos_sdtm:subject "GFORRES" .

<https://w3id.org/cdisc/cosmos/dss/GF/MICRISTBOVRASTAT/GFSPEC/assignedTerm> a cosmos_sdtm:AssignedTerm ;
    cosmos_sdtm:conceptId NCIT:C449 ;
    cosmos_sdtm:value "DNA" .

<https://w3id.org/cdisc/cosmos/dss/GF/MICRISTBOVRASTAT/GFSPEC/relationship> a cosmos_sdtm:RelationShip ;
    cosmos_sdtm:linkingPhrase <https://www.cdisc.org/cosmos/sdtm_v1.0/LinkingPhraseEnum#is%20the%20specimen%20tested%20in> ;
    cosmos_sdtm:object "GFTESTCD" ;
    cosmos_sdtm:predicateTerm <https://www.cdisc.org/cosmos/sdtm_v1.0/PredicateTermEnum#IS_SPECIMEN_TESTED_IN> ;
    cosmos_sdtm:subject "GFSPEC" .

<https://w3id.org/cdisc/cosmos/dss/GF/MICRISTBOVRASTAT/GFSTRESC/relationship> a cosmos_sdtm:RelationShip ;
    cosmos_sdtm:linkingPhrase <https://www.cdisc.org/cosmos/sdtm_v1.0/LinkingPhraseEnum#is%20the%20result%20of%20the%20test%20in> ;
    cosmos_sdtm:object "GFTESTCD" ;
    cosmos_sdtm:predicateTerm <https://www.cdisc.org/cosmos/sdtm_v1.0/PredicateTermEnum#IS_RESULT_OF> ;
    cosmos_sdtm:subject "GFSTRESC" .

<https://w3id.org/cdisc/cosmos/dss/GF/MICRISTBOVRASTAT/GFTEST/assignedTerm> a cosmos_sdtm:AssignedTerm ;
    cosmos_sdtm:conceptId NCIT:C181332 ;
    cosmos_sdtm:value "Microsatellite Instability" .

<https://w3id.org/cdisc/cosmos/dss/GF/MICRISTBOVRASTAT/GFTEST/relationship> a cosmos_sdtm:RelationShip ;
    cosmos_sdtm:linkingPhrase <https://www.cdisc.org/cosmos/sdtm_v1.0/LinkingPhraseEnum#decodes%20the%20value%20in> ;
    cosmos_sdtm:object "GFTESTCD" ;
    cosmos_sdtm:predicateTerm <https://www.cdisc.org/cosmos/sdtm_v1.0/PredicateTermEnum#DECODES> ;
    cosmos_sdtm:subject "GFTEST" .

<https://w3id.org/cdisc/cosmos/dss/GF/MICRISTBOVRASTAT/GFTESTCD/assignedTerm> a cosmos_sdtm:AssignedTerm ;
    cosmos_sdtm:conceptId NCIT:C181332 ;
    cosmos_sdtm:value "MICRISTB" .

<https://w3id.org/cdisc/cosmos/dss/GF/MICRISTBOVRASTAT/GFTESTCD/relationship> a cosmos_sdtm:RelationShip ;
    cosmos_sdtm:linkingPhrase <https://www.cdisc.org/cosmos/sdtm_v1.0/LinkingPhraseEnum#is%20the%20code%20for%20the%20value%20in> ;
    cosmos_sdtm:object "GFTEST" ;
    cosmos_sdtm:predicateTerm <https://www.cdisc.org/cosmos/sdtm_v1.0/PredicateTermEnum#IS_DECODED_BY> ;
    cosmos_sdtm:subject "GFTESTCD" .

<https://w3id.org/cdisc/cosmos/dss/GF/MICRISTBOVRASTAT/GFTSTDTL/assignedTerm> a cosmos_sdtm:AssignedTerm ;
    cosmos_sdtm:conceptId NCIT:C139285 ;
    cosmos_sdtm:value "MICROSATELLITE INSTABILITY OVERALL STATUS" .

<https://w3id.org/cdisc/cosmos/dss/GF/MICRISTBOVRASTAT/GFTSTDTL/relationship> a cosmos_sdtm:RelationShip ;
    cosmos_sdtm:linkingPhrase <https://www.cdisc.org/cosmos/sdtm_v1.0/LinkingPhraseEnum#further%20describes%20the%20test%20in> ;
    cosmos_sdtm:object "GFTESTCD" ;
    cosmos_sdtm:predicateTerm <https://www.cdisc.org/cosmos/sdtm_v1.0/PredicateTermEnum#SPECIFIES> ;
    cosmos_sdtm:subject "GFTSTDTL" .

<https://w3id.org/cdisc/cosmos/dss/GF/SEQREAREADDEPTH/GFCAT/assignedTerm> a cosmos_sdtm:AssignedTerm ;
    cosmos_sdtm:value "GENETIC VARIATION" .

<https://w3id.org/cdisc/cosmos/dss/GF/SEQREAREADDEPTH/GFCAT/relationship> a cosmos_sdtm:RelationShip ;
    cosmos_sdtm:linkingPhrase <https://www.cdisc.org/cosmos/sdtm_v1.0/LinkingPhraseEnum#groups%20values%20in> ;
    cosmos_sdtm:object "GFTESTCD" ;
    cosmos_sdtm:predicateTerm <https://www.cdisc.org/cosmos/sdtm_v1.0/PredicateTermEnum#GROUPS> ;
    cosmos_sdtm:subject "GFCAT" .

<https://w3id.org/cdisc/cosmos/dss/GF/SEQREAREADDEPTH/GFCHROM/relationship> a cosmos_sdtm:RelationShip ;
    cosmos_sdtm:linkingPhrase <https://www.cdisc.org/cosmos/sdtm_v1.0/LinkingPhraseEnum#is%20the%20chromosome%20that%20is%20the%20position%20of%20the%20result%20in> ;
    cosmos_sdtm:object "GFORRES" ;
    cosmos_sdtm:predicateTerm <https://www.cdisc.org/cosmos/sdtm_v1.0/PredicateTermEnum#IS_POSITION_FOR> ;
    cosmos_sdtm:subject "GFCHROM" .

<https://w3id.org/cdisc/cosmos/dss/GF/SEQREAREADDEPTH/GFDTC/relationship> a cosmos_sdtm:RelationShip ;
    cosmos_sdtm:linkingPhrase <https://www.cdisc.org/cosmos/sdtm_v1.0/LinkingPhraseEnum#is%20the%20date%20of%20occurrence%20for> ;
    cosmos_sdtm:object "GFTESTCD" ;
    cosmos_sdtm:predicateTerm <https://www.cdisc.org/cosmos/sdtm_v1.0/PredicateTermEnum#IS_TIMING_FOR> ;
    cosmos_sdtm:subject "GFDTC" .

<https://w3id.org/cdisc/cosmos/dss/GF/SEQREAREADDEPTH/GFGENLOC/relationship> a cosmos_sdtm:RelationShip ;
    cosmos_sdtm:linkingPhrase <https://www.cdisc.org/cosmos/sdtm_v1.0/LinkingPhraseEnum#is%20the%20numeric%20location%2C%20within%20a%20chromosone%2C%20genetic%20entity%2C%20or%20genetic%20sub-region%2C%20of%20the%20result%20in> ;
    cosmos_sdtm:object "GFORRES" ;
    cosmos_sdtm:predicateTerm <https://www.cdisc.org/cosmos/sdtm_v1.0/PredicateTermEnum#IS_POSITION_FOR> ;
    cosmos_sdtm:subject "GFGENLOC" .

<https://w3id.org/cdisc/cosmos/dss/GF/SEQREAREADDEPTH/GFGENREF/relationship> a cosmos_sdtm:RelationShip ;
    cosmos_sdtm:linkingPhrase <https://www.cdisc.org/cosmos/sdtm_v1.0/LinkingPhraseEnum#identifies%20the%20reference%20used%20in%20the%20genomic%20test%20in> ;
    cosmos_sdtm:object "GFTESTCD" ;
    cosmos_sdtm:predicateTerm <https://www.cdisc.org/cosmos/sdtm_v1.0/PredicateTermEnum#SPECIFIES> ;
    cosmos_sdtm:subject "GFGENREF" .

<https://w3id.org/cdisc/cosmos/dss/GF/SEQREAREADDEPTH/GFGENSR/relationship> a cosmos_sdtm:RelationShip ;
    cosmos_sdtm:linkingPhrase <https://www.cdisc.org/cosmos/sdtm_v1.0/LinkingPhraseEnum#is%20the%20genetic%20sub-location%20of%20the%20result%20in> ;
    cosmos_sdtm:object "GFORRES" ;
    cosmos_sdtm:predicateTerm <https://www.cdisc.org/cosmos/sdtm_v1.0/PredicateTermEnum#IS_POSITION_FOR> ;
    cosmos_sdtm:subject "GFGENSR" .

<https://w3id.org/cdisc/cosmos/dss/GF/SEQREAREADDEPTH/GFINHERT/relationship> a cosmos_sdtm:RelationShip ;
    cosmos_sdtm:linkingPhrase <https://www.cdisc.org/cosmos/sdtm_v1.0/LinkingPhraseEnum#indicates%20heritability%20of%20the%20genetic%20variant%20in> ;
    cosmos_sdtm:object "GFORRES" ;
    cosmos_sdtm:predicateTerm <https://www.cdisc.org/cosmos/sdtm_v1.0/PredicateTermEnum#IS_ATTRIBUTE_FOR> ;
    cosmos_sdtm:subject "GFINHERT" .

<https://w3id.org/cdisc/cosmos/dss/GF/SEQREAREADDEPTH/GFMETHOD/assignedTerm> a cosmos_sdtm:AssignedTerm ;
    cosmos_sdtm:conceptId NCIT:C158253 ;
    cosmos_sdtm:value "TARGETED GENOME SEQUENCING" .

<https://w3id.org/cdisc/cosmos/dss/GF/SEQREAREADDEPTH/GFMETHOD/relationship> a cosmos_sdtm:RelationShip ;
    cosmos_sdtm:linkingPhrase <https://www.cdisc.org/cosmos/sdtm_v1.0/LinkingPhraseEnum#is%20the%20method%20for%20the%20test%20in> ;
    cosmos_sdtm:object "GFTESTCD" ;
    cosmos_sdtm:predicateTerm <https://www.cdisc.org/cosmos/sdtm_v1.0/PredicateTermEnum#SPECIFIES> ;
    cosmos_sdtm:subject "GFMETHOD" .

<https://w3id.org/cdisc/cosmos/dss/GF/SEQREAREADDEPTH/GFORRES/relationship> a cosmos_sdtm:RelationShip ;
    cosmos_sdtm:linkingPhrase <https://www.cdisc.org/cosmos/sdtm_v1.0/LinkingPhraseEnum#is%20the%20result%20of%20the%20test%20in> ;
    cosmos_sdtm:object "GFTESTCD" ;
    cosmos_sdtm:predicateTerm <https://www.cdisc.org/cosmos/sdtm_v1.0/PredicateTermEnum#IS_RESULT_OF> ;
    cosmos_sdtm:subject "GFORRES" .

<https://w3id.org/cdisc/cosmos/dss/GF/SEQREAREADDEPTH/GFPRVID/relationship> a cosmos_sdtm:RelationShip ;
    cosmos_sdtm:linkingPhrase <https://www.cdisc.org/cosmos/sdtm_v1.0/LinkingPhraseEnum#is%20an%20identifier%20for%20a%20published%20reference%20for%20the%20genetic%20variant%20in> ;
    cosmos_sdtm:object "GFORRES" ;
    cosmos_sdtm:predicateTerm <https://www.cdisc.org/cosmos/sdtm_v1.0/PredicateTermEnum#IS_ATTRIBUTE_FOR> ;
    cosmos_sdtm:subject "GFPRVID" .

<https://w3id.org/cdisc/cosmos/dss/GF/SEQREAREADDEPTH/GFSEQID/relationship> a cosmos_sdtm:RelationShip ;
    cosmos_sdtm:linkingPhrase <https://www.cdisc.org/cosmos/sdtm_v1.0/LinkingPhraseEnum#is%20an%20identifier%20for%20the%20genetic%20sequence%20of%20the%20genetic%20entity%20represented%20by> ;
    cosmos_sdtm:object "GFSYM" ;
    cosmos_sdtm:predicateTerm <https://www.cdisc.org/cosmos/sdtm_v1.0/PredicateTermEnum#IDENTIFIES> ;
    cosmos_sdtm:subject "GFSEQID" .

<https://w3id.org/cdisc/cosmos/dss/GF/SEQREAREADDEPTH/GFSPEC/assignedTerm> a cosmos_sdtm:AssignedTerm ;
    cosmos_sdtm:conceptId NCIT:C449 ;
    cosmos_sdtm:value "DNA" .

<https://w3id.org/cdisc/cosmos/dss/GF/SEQREAREADDEPTH/GFSPEC/relationship> a cosmos_sdtm:RelationShip ;
    cosmos_sdtm:linkingPhrase <https://www.cdisc.org/cosmos/sdtm_v1.0/LinkingPhraseEnum#is%20the%20specimen%20tested%20in> ;
    cosmos_sdtm:object "GFTESTCD" ;
    cosmos_sdtm:predicateTerm <https://www.cdisc.org/cosmos/sdtm_v1.0/PredicateTermEnum#IS_SPECIMEN_TESTED_IN> ;
    cosmos_sdtm:subject "GFSPEC" .

<https://w3id.org/cdisc/cosmos/dss/GF/SEQREAREADDEPTH/GFSTRESC/relationship> a cosmos_sdtm:RelationShip ;
    cosmos_sdtm:linkingPhrase <https://www.cdisc.org/cosmos/sdtm_v1.0/LinkingPhraseEnum#is%20the%20result%20of%20the%20test%20in> ;
    cosmos_sdtm:object "GFTESTCD" ;
    cosmos_sdtm:predicateTerm <https://www.cdisc.org/cosmos/sdtm_v1.0/PredicateTermEnum#IS_RESULT_OF> ;
    cosmos_sdtm:subject "GFSTRESC" .

<https://w3id.org/cdisc/cosmos/dss/GF/SEQREAREADDEPTH/GFSTRESN/relationship> a cosmos_sdtm:RelationShip ;
    cosmos_sdtm:linkingPhrase <https://www.cdisc.org/cosmos/sdtm_v1.0/LinkingPhraseEnum#is%20the%20result%20of%20the%20test%20in> ;
    cosmos_sdtm:object "GFTESTCD" ;
    cosmos_sdtm:predicateTerm <https://www.cdisc.org/cosmos/sdtm_v1.0/PredicateTermEnum#IS_RESULT_OF> ;
    cosmos_sdtm:subject "GFSTRESN" .

<https://w3id.org/cdisc/cosmos/dss/GF/SEQREAREADDEPTH/GFSYM/relationship> a cosmos_sdtm:RelationShip ;
    cosmos_sdtm:linkingPhrase <https://www.cdisc.org/cosmos/sdtm_v1.0/LinkingPhraseEnum#is%20the%20symbol%20for%20the%20genomic%20entity%20that%20is%20the%20position%20of%20the%20result%20in> ;
    cosmos_sdtm:object "GFORRES" ;
    cosmos_sdtm:predicateTerm <https://www.cdisc.org/cosmos/sdtm_v1.0/PredicateTermEnum#IS_POSITION_FOR> ;
    cosmos_sdtm:subject "GFSYM" .

<https://w3id.org/cdisc/cosmos/dss/GF/SEQREAREADDEPTH/GFSYMTYP/relationship> a cosmos_sdtm:RelationShip ;
    cosmos_sdtm:linkingPhrase <https://www.cdisc.org/cosmos/sdtm_v1.0/LinkingPhraseEnum#is%20the%20type%20of%20genomic%20entity%20that%20is%20the%20position%20of%20the%20result%20in> ;
    cosmos_sdtm:object "GFORRES" ;
    cosmos_sdtm:predicateTerm <https://www.cdisc.org/cosmos/sdtm_v1.0/PredicateTermEnum#IS_POSITION_FOR> ;
    cosmos_sdtm:subject "GFSYMTYP" .

<https://w3id.org/cdisc/cosmos/dss/GF/SEQREAREADDEPTH/GFTEST/assignedTerm> a cosmos_sdtm:AssignedTerm ;
    cosmos_sdtm:conceptId NCIT:C189439 ;
    cosmos_sdtm:value "Sequence Rearrangement" .

<https://w3id.org/cdisc/cosmos/dss/GF/SEQREAREADDEPTH/GFTEST/relationship> a cosmos_sdtm:RelationShip ;
    cosmos_sdtm:linkingPhrase <https://www.cdisc.org/cosmos/sdtm_v1.0/LinkingPhraseEnum#decodes%20the%20value%20in> ;
    cosmos_sdtm:object "GFTESTCD" ;
    cosmos_sdtm:predicateTerm <https://www.cdisc.org/cosmos/sdtm_v1.0/PredicateTermEnum#DECODES> ;
    cosmos_sdtm:subject "GFTEST" .

<https://w3id.org/cdisc/cosmos/dss/GF/SEQREAREADDEPTH/GFTESTCD/assignedTerm> a cosmos_sdtm:AssignedTerm ;
    cosmos_sdtm:conceptId NCIT:C189439 ;
    cosmos_sdtm:value "SEQREAR" .

<https://w3id.org/cdisc/cosmos/dss/GF/SEQREAREADDEPTH/GFTESTCD/relationship> a cosmos_sdtm:RelationShip ;
    cosmos_sdtm:linkingPhrase <https://www.cdisc.org/cosmos/sdtm_v1.0/LinkingPhraseEnum#is%20the%20code%20for%20the%20value%20in> ;
    cosmos_sdtm:object "GFTEST" ;
    cosmos_sdtm:predicateTerm <https://www.cdisc.org/cosmos/sdtm_v1.0/PredicateTermEnum#IS_DECODED_BY> ;
    cosmos_sdtm:subject "GFTESTCD" .

<https://w3id.org/cdisc/cosmos/dss/GF/SEQREAREADDEPTH/GFTSTDTL/assignedTerm> a cosmos_sdtm:AssignedTerm ;
    cosmos_sdtm:conceptId NCIT:C155320 ;
    cosmos_sdtm:value "READ DEPTH" .

<https://w3id.org/cdisc/cosmos/dss/GF/SEQREAREADDEPTH/GFTSTDTL/relationship> a cosmos_sdtm:RelationShip ;
    cosmos_sdtm:linkingPhrase <https://www.cdisc.org/cosmos/sdtm_v1.0/LinkingPhraseEnum#further%20describes%20the%20test%20in> ;
    cosmos_sdtm:object "GFTESTCD" ;
    cosmos_sdtm:predicateTerm <https://www.cdisc.org/cosmos/sdtm_v1.0/PredicateTermEnum#SPECIFIES> ;
    cosmos_sdtm:subject "GFTSTDTL" .

<https://w3id.org/cdisc/cosmos/dss/GF/SEQREARGENE1/GFCAT/assignedTerm> a cosmos_sdtm:AssignedTerm ;
    cosmos_sdtm:value "GENETIC VARIATION" .

<https://w3id.org/cdisc/cosmos/dss/GF/SEQREARGENE1/GFCAT/relationship> a cosmos_sdtm:RelationShip ;
    cosmos_sdtm:linkingPhrase <https://www.cdisc.org/cosmos/sdtm_v1.0/LinkingPhraseEnum#groups%20values%20in> ;
    cosmos_sdtm:object "GFTESTCD" ;
    cosmos_sdtm:predicateTerm <https://www.cdisc.org/cosmos/sdtm_v1.0/PredicateTermEnum#GROUPS> ;
    cosmos_sdtm:subject "GFCAT" .

<https://w3id.org/cdisc/cosmos/dss/GF/SEQREARGENE1/GFCHROM/relationship> a cosmos_sdtm:RelationShip ;
    cosmos_sdtm:linkingPhrase <https://www.cdisc.org/cosmos/sdtm_v1.0/LinkingPhraseEnum#is%20the%20chromosome%20that%20is%20the%20position%20of%20the%20result%20in> ;
    cosmos_sdtm:object "GFORRES" ;
    cosmos_sdtm:predicateTerm <https://www.cdisc.org/cosmos/sdtm_v1.0/PredicateTermEnum#IS_POSITION_FOR> ;
    cosmos_sdtm:subject "GFCHROM" .

<https://w3id.org/cdisc/cosmos/dss/GF/SEQREARGENE1/GFDTC/relationship> a cosmos_sdtm:RelationShip ;
    cosmos_sdtm:linkingPhrase <https://www.cdisc.org/cosmos/sdtm_v1.0/LinkingPhraseEnum#is%20the%20date%20of%20occurrence%20for> ;
    cosmos_sdtm:object "GFTESTCD" ;
    cosmos_sdtm:predicateTerm <https://www.cdisc.org/cosmos/sdtm_v1.0/PredicateTermEnum#IS_TIMING_FOR> ;
    cosmos_sdtm:subject "GFDTC" .

<https://w3id.org/cdisc/cosmos/dss/GF/SEQREARGENE1/GFGENLOC/relationship> a cosmos_sdtm:RelationShip ;
    cosmos_sdtm:linkingPhrase <https://www.cdisc.org/cosmos/sdtm_v1.0/LinkingPhraseEnum#is%20the%20numeric%20location%2C%20within%20a%20chromosone%2C%20genetic%20entity%2C%20or%20genetic%20sub-region%2C%20of%20the%20result%20in> ;
    cosmos_sdtm:object "GFORRES" ;
    cosmos_sdtm:predicateTerm <https://www.cdisc.org/cosmos/sdtm_v1.0/PredicateTermEnum#IS_POSITION_FOR> ;
    cosmos_sdtm:subject "GFGENLOC" .

<https://w3id.org/cdisc/cosmos/dss/GF/SEQREARGENE1/GFGENREF/relationship> a cosmos_sdtm:RelationShip ;
    cosmos_sdtm:linkingPhrase <https://www.cdisc.org/cosmos/sdtm_v1.0/LinkingPhraseEnum#identifies%20the%20reference%20used%20in%20the%20genomic%20test%20in> ;
    cosmos_sdtm:object "GFTESTCD" ;
    cosmos_sdtm:predicateTerm <https://www.cdisc.org/cosmos/sdtm_v1.0/PredicateTermEnum#SPECIFIES> ;
    cosmos_sdtm:subject "GFGENREF" .

<https://w3id.org/cdisc/cosmos/dss/GF/SEQREARGENE1/GFGENSR/relationship> a cosmos_sdtm:RelationShip ;
    cosmos_sdtm:linkingPhrase <https://www.cdisc.org/cosmos/sdtm_v1.0/LinkingPhraseEnum#is%20the%20genetic%20sub-location%20of%20the%20result%20in> ;
    cosmos_sdtm:object "GFORRES" ;
    cosmos_sdtm:predicateTerm <https://www.cdisc.org/cosmos/sdtm_v1.0/PredicateTermEnum#IS_POSITION_FOR> ;
    cosmos_sdtm:subject "GFGENSR" .

<https://w3id.org/cdisc/cosmos/dss/GF/SEQREARGENE1/GFINHERT/relationship> a cosmos_sdtm:RelationShip ;
    cosmos_sdtm:linkingPhrase <https://www.cdisc.org/cosmos/sdtm_v1.0/LinkingPhraseEnum#indicates%20heritability%20of%20the%20genetic%20variant%20in> ;
    cosmos_sdtm:object "GFORRES" ;
    cosmos_sdtm:predicateTerm <https://www.cdisc.org/cosmos/sdtm_v1.0/PredicateTermEnum#IS_ATTRIBUTE_FOR> ;
    cosmos_sdtm:subject "GFINHERT" .

<https://w3id.org/cdisc/cosmos/dss/GF/SEQREARGENE1/GFMETHOD/assignedTerm> a cosmos_sdtm:AssignedTerm ;
    cosmos_sdtm:conceptId NCIT:C158253 ;
    cosmos_sdtm:value "TARGETED GENOME SEQUENCING" .

<https://w3id.org/cdisc/cosmos/dss/GF/SEQREARGENE1/GFMETHOD/relationship> a cosmos_sdtm:RelationShip ;
    cosmos_sdtm:linkingPhrase <https://www.cdisc.org/cosmos/sdtm_v1.0/LinkingPhraseEnum#is%20the%20method%20for%20the%20test%20in> ;
    cosmos_sdtm:object "GFTESTCD" ;
    cosmos_sdtm:predicateTerm <https://www.cdisc.org/cosmos/sdtm_v1.0/PredicateTermEnum#SPECIFIES> ;
    cosmos_sdtm:subject "GFMETHOD" .

<https://w3id.org/cdisc/cosmos/dss/GF/SEQREARGENE1/GFORRES/relationship> a cosmos_sdtm:RelationShip ;
    cosmos_sdtm:linkingPhrase <https://www.cdisc.org/cosmos/sdtm_v1.0/LinkingPhraseEnum#is%20the%20result%20of%20the%20test%20in> ;
    cosmos_sdtm:object "GFTESTCD" ;
    cosmos_sdtm:predicateTerm <https://www.cdisc.org/cosmos/sdtm_v1.0/PredicateTermEnum#IS_RESULT_OF> ;
    cosmos_sdtm:subject "GFORRES" .

<https://w3id.org/cdisc/cosmos/dss/GF/SEQREARGENE1/GFPRVID/relationship> a cosmos_sdtm:RelationShip ;
    cosmos_sdtm:linkingPhrase <https://www.cdisc.org/cosmos/sdtm_v1.0/LinkingPhraseEnum#is%20an%20identifier%20for%20a%20published%20reference%20for%20the%20genetic%20variant%20in> ;
    cosmos_sdtm:object "GFORRES" ;
    cosmos_sdtm:predicateTerm <https://www.cdisc.org/cosmos/sdtm_v1.0/PredicateTermEnum#IS_ATTRIBUTE_FOR> ;
    cosmos_sdtm:subject "GFPRVID" .

<https://w3id.org/cdisc/cosmos/dss/GF/SEQREARGENE1/GFSEQID/relationship> a cosmos_sdtm:RelationShip ;
    cosmos_sdtm:linkingPhrase <https://www.cdisc.org/cosmos/sdtm_v1.0/LinkingPhraseEnum#is%20an%20identifier%20for%20the%20genetic%20sequence%20of%20the%20genetic%20entity%20represented%20by> ;
    cosmos_sdtm:object "GFSYM" ;
    cosmos_sdtm:predicateTerm <https://www.cdisc.org/cosmos/sdtm_v1.0/PredicateTermEnum#IDENTIFIES> ;
    cosmos_sdtm:subject "GFSEQID" .

<https://w3id.org/cdisc/cosmos/dss/GF/SEQREARGENE1/GFSPEC/assignedTerm> a cosmos_sdtm:AssignedTerm ;
    cosmos_sdtm:conceptId NCIT:C449 ;
    cosmos_sdtm:value "DNA" .

<https://w3id.org/cdisc/cosmos/dss/GF/SEQREARGENE1/GFSPEC/relationship> a cosmos_sdtm:RelationShip ;
    cosmos_sdtm:linkingPhrase <https://www.cdisc.org/cosmos/sdtm_v1.0/LinkingPhraseEnum#is%20the%20specimen%20tested%20in> ;
    cosmos_sdtm:object "GFTESTCD" ;
    cosmos_sdtm:predicateTerm <https://www.cdisc.org/cosmos/sdtm_v1.0/PredicateTermEnum#IS_SPECIMEN_TESTED_IN> ;
    cosmos_sdtm:subject "GFSPEC" .

<https://w3id.org/cdisc/cosmos/dss/GF/SEQREARGENE1/GFSTRESC/relationship> a cosmos_sdtm:RelationShip ;
    cosmos_sdtm:linkingPhrase <https://www.cdisc.org/cosmos/sdtm_v1.0/LinkingPhraseEnum#is%20the%20result%20of%20the%20test%20in> ;
    cosmos_sdtm:object "GFTESTCD" ;
    cosmos_sdtm:predicateTerm <https://www.cdisc.org/cosmos/sdtm_v1.0/PredicateTermEnum#IS_RESULT_OF> ;
    cosmos_sdtm:subject "GFSTRESC" .

<https://w3id.org/cdisc/cosmos/dss/GF/SEQREARGENE1/GFSYM/relationship> a cosmos_sdtm:RelationShip ;
    cosmos_sdtm:linkingPhrase <https://www.cdisc.org/cosmos/sdtm_v1.0/LinkingPhraseEnum#is%20the%20symbol%20for%20the%20genomic%20entity%20that%20is%20the%20position%20of%20the%20result%20in> ;
    cosmos_sdtm:object "GFORRES" ;
    cosmos_sdtm:predicateTerm <https://www.cdisc.org/cosmos/sdtm_v1.0/PredicateTermEnum#IS_POSITION_FOR> ;
    cosmos_sdtm:subject "GFSYM" .

<https://w3id.org/cdisc/cosmos/dss/GF/SEQREARGENE1/GFSYMTYP/assignedTerm> a cosmos_sdtm:AssignedTerm ;
    cosmos_sdtm:conceptId NCIT:C181531 ;
    cosmos_sdtm:value "GENE WITH PROTEIN PRODUCT" .

<https://w3id.org/cdisc/cosmos/dss/GF/SEQREARGENE1/GFSYMTYP/relationship> a cosmos_sdtm:RelationShip ;
    cosmos_sdtm:linkingPhrase <https://www.cdisc.org/cosmos/sdtm_v1.0/LinkingPhraseEnum#is%20the%20type%20of%20genomic%20entity%20that%20is%20the%20position%20of%20the%20result%20in> ;
    cosmos_sdtm:object "GFORRES" ;
    cosmos_sdtm:predicateTerm <https://www.cdisc.org/cosmos/sdtm_v1.0/PredicateTermEnum#IS_POSITION_FOR> ;
    cosmos_sdtm:subject "GFSYMTYP" .

