@prefix NCIT: <http://purl.obolibrary.org/obo/NCIT_> .
@prefix cosmos_sdtm: <https://www.cdisc.org/cosmos/sdtm_v1.0/> .
@prefix dcterms: <http://purl.org/dc/terms/> .
@prefix owl: <http://www.w3.org/2002/07/owl#> .
@prefix rdf: <http://www.w3.org/1999/02/22-rdf-syntax-ns#> .
@prefix rdfs: <http://www.w3.org/2000/01/rdf-schema#> .
@prefix skos: <http://www.w3.org/2004/02/skos/core#> .
@prefix xsd: <http://www.w3.org/2001/XMLSchema#> .

<https://w3id.org/cdisc/cosmos/dss/RP> a owl:Ontology ;
    rdfs:label "CDISC COSMoS Dataset Specializations, RP (instances)" ;
    dcterms:identifier "2026-07-14" ;
    dcterms:source <https://raw.githubusercontent.com/cdisc-org/COSMoS/031429b1d14823721991cd23ee88a11616686ce3/export/cdisc_sdtm_dataset_specializations_latest.csv> ;
    rdfs:comment "Dataset Specialization instances for domain RP, rendered from the pinned COSMoS export. Variable order is the export's row order, carried as rdf:_n membership beside the variables edges. length and significantDigits are cast from the export's decimal form to integer; packageType is not in the export and is set to the enum's single value. A biomedicalConceptId or dataElementConceptId that resolves to no node is carried as the published string. The concept nodes those edges reach are declared in the Biomedical Concept instance graph, which is not imported. Draft - not a normative CDISC artifact." ;
    owl:imports <https://w3id.org/cdisc/cosmos/sdtm/> ;
    owl:versionIRI <https://w3id.org/cdisc/cosmos/dss/RP/0.4.0> ;
    owl:versionInfo "v0.4.0" .

<https://w3id.org/cdisc/cosmos/dss/RP/ABORTN> a cosmos_sdtm:SDTMGroup ;
    dcterms:identifier "ABORTN" ;
    rdf:_1 <https://w3id.org/cdisc/cosmos/dss/RP/ABORTN/RPTESTCD> ;
    rdf:_2 <https://w3id.org/cdisc/cosmos/dss/RP/ABORTN/RPTEST> ;
    rdf:_3 <https://w3id.org/cdisc/cosmos/dss/RP/ABORTN/RPCAT> ;
    rdf:_4 <https://w3id.org/cdisc/cosmos/dss/RP/ABORTN/RPORRES> ;
    rdf:_5 <https://w3id.org/cdisc/cosmos/dss/RP/ABORTN/RPSTRESC> ;
    rdf:_6 <https://w3id.org/cdisc/cosmos/dss/RP/ABORTN/RPSTRESN> ;
    rdf:_7 <https://w3id.org/cdisc/cosmos/dss/RP/ABORTN/RPDTC> ;
    cosmos_sdtm:biomedicalConceptId NCIT:C106550 ;
    cosmos_sdtm:domain "RP" ;
    cosmos_sdtm:packageDate "2026-05-26"^^xsd:date ;
    cosmos_sdtm:packageType <https://www.cdisc.org/cosmos/sdtm_v1.0/PackageTypeEnum#sdtm> ;
    cosmos_sdtm:sdtmigStartVersion "3-2" ;
    cosmos_sdtm:shortName "Number of Abortions" ;
    cosmos_sdtm:source "RP.RPTESTCD" ;
    cosmos_sdtm:variables <https://w3id.org/cdisc/cosmos/dss/RP/ABORTN/RPCAT>,
        <https://w3id.org/cdisc/cosmos/dss/RP/ABORTN/RPDTC>,
        <https://w3id.org/cdisc/cosmos/dss/RP/ABORTN/RPORRES>,
        <https://w3id.org/cdisc/cosmos/dss/RP/ABORTN/RPSTRESC>,
        <https://w3id.org/cdisc/cosmos/dss/RP/ABORTN/RPSTRESN>,
        <https://w3id.org/cdisc/cosmos/dss/RP/ABORTN/RPTEST>,
        <https://w3id.org/cdisc/cosmos/dss/RP/ABORTN/RPTESTCD> .

<https://w3id.org/cdisc/cosmos/dss/RP/ADLVRDTC> a cosmos_sdtm:SDTMGroup ;
    dcterms:identifier "ADLVRDTC" ;
    rdf:_1 <https://w3id.org/cdisc/cosmos/dss/RP/ADLVRDTC/RPTESTCD> ;
    rdf:_2 <https://w3id.org/cdisc/cosmos/dss/RP/ADLVRDTC/RPTEST> ;
    rdf:_3 <https://w3id.org/cdisc/cosmos/dss/RP/ADLVRDTC/RPCAT> ;
    rdf:_4 <https://w3id.org/cdisc/cosmos/dss/RP/ADLVRDTC/RPORRES> ;
    rdf:_5 <https://w3id.org/cdisc/cosmos/dss/RP/ADLVRDTC/RPSTRESC> ;
    rdf:_6 <https://w3id.org/cdisc/cosmos/dss/RP/ADLVRDTC/RPDTC> ;
    cosmos_sdtm:biomedicalConceptId NCIT:C178050 ;
    cosmos_sdtm:domain "RP" ;
    cosmos_sdtm:packageDate "2026-05-26"^^xsd:date ;
    cosmos_sdtm:packageType <https://www.cdisc.org/cosmos/sdtm_v1.0/PackageTypeEnum#sdtm> ;
    cosmos_sdtm:sdtmigStartVersion "3-2" ;
    cosmos_sdtm:shortName "Actual Date of Delivery" ;
    cosmos_sdtm:source "RP.RPTESTCD" ;
    cosmos_sdtm:variables <https://w3id.org/cdisc/cosmos/dss/RP/ADLVRDTC/RPCAT>,
        <https://w3id.org/cdisc/cosmos/dss/RP/ADLVRDTC/RPDTC>,
        <https://w3id.org/cdisc/cosmos/dss/RP/ADLVRDTC/RPORRES>,
        <https://w3id.org/cdisc/cosmos/dss/RP/ADLVRDTC/RPSTRESC>,
        <https://w3id.org/cdisc/cosmos/dss/RP/ADLVRDTC/RPTEST>,
        <https://w3id.org/cdisc/cosmos/dss/RP/ADLVRDTC/RPTESTCD> .

<https://w3id.org/cdisc/cosmos/dss/RP/ADRNRAGE> a cosmos_sdtm:SDTMGroup ;
    dcterms:identifier "ADRNRAGE" ;
    rdf:_1 <https://w3id.org/cdisc/cosmos/dss/RP/ADRNRAGE/RPTESTCD> ;
    rdf:_2 <https://w3id.org/cdisc/cosmos/dss/RP/ADRNRAGE/RPTEST> ;
    rdf:_3 <https://w3id.org/cdisc/cosmos/dss/RP/ADRNRAGE/RPCAT> ;
    rdf:_4 <https://w3id.org/cdisc/cosmos/dss/RP/ADRNRAGE/RPORRES> ;
    rdf:_5 <https://w3id.org/cdisc/cosmos/dss/RP/ADRNRAGE/RPORRESU> ;
    rdf:_6 <https://w3id.org/cdisc/cosmos/dss/RP/ADRNRAGE/RPSTRESC> ;
    rdf:_7 <https://w3id.org/cdisc/cosmos/dss/RP/ADRNRAGE/RPSTRESN> ;
    rdf:_8 <https://w3id.org/cdisc/cosmos/dss/RP/ADRNRAGE/RPSTRESU> ;
    rdf:_9 <https://w3id.org/cdisc/cosmos/dss/RP/ADRNRAGE/RPDTC> ;
    cosmos_sdtm:biomedicalConceptId NCIT:C189362 ;
    cosmos_sdtm:domain "RP" ;
    cosmos_sdtm:packageDate "2026-05-26"^^xsd:date ;
    cosmos_sdtm:packageType <https://www.cdisc.org/cosmos/sdtm_v1.0/PackageTypeEnum#sdtm> ;
    cosmos_sdtm:sdtmigStartVersion "3-2" ;
    cosmos_sdtm:shortName "Adrenarche Age" ;
    cosmos_sdtm:source "RP.RPTESTCD" ;
    cosmos_sdtm:variables <https://w3id.org/cdisc/cosmos/dss/RP/ADRNRAGE/RPCAT>,
        <https://w3id.org/cdisc/cosmos/dss/RP/ADRNRAGE/RPDTC>,
        <https://w3id.org/cdisc/cosmos/dss/RP/ADRNRAGE/RPORRES>,
        <https://w3id.org/cdisc/cosmos/dss/RP/ADRNRAGE/RPORRESU>,
        <https://w3id.org/cdisc/cosmos/dss/RP/ADRNRAGE/RPSTRESC>,
        <https://w3id.org/cdisc/cosmos/dss/RP/ADRNRAGE/RPSTRESN>,
        <https://w3id.org/cdisc/cosmos/dss/RP/ADRNRAGE/RPSTRESU>,
        <https://w3id.org/cdisc/cosmos/dss/RP/ADRNRAGE/RPTEST>,
        <https://w3id.org/cdisc/cosmos/dss/RP/ADRNRAGE/RPTESTCD> .

<https://w3id.org/cdisc/cosmos/dss/RP/AMENSIND> a cosmos_sdtm:SDTMGroup ;
    dcterms:identifier "AMENSIND" ;
    rdf:_1 <https://w3id.org/cdisc/cosmos/dss/RP/AMENSIND/RPTESTCD> ;
    rdf:_2 <https://w3id.org/cdisc/cosmos/dss/RP/AMENSIND/RPTEST> ;
    rdf:_3 <https://w3id.org/cdisc/cosmos/dss/RP/AMENSIND/RPCAT> ;
    rdf:_4 <https://w3id.org/cdisc/cosmos/dss/RP/AMENSIND/RPORRES> ;
    rdf:_5 <https://w3id.org/cdisc/cosmos/dss/RP/AMENSIND/RPSTRESC> ;
    rdf:_6 <https://w3id.org/cdisc/cosmos/dss/RP/AMENSIND/RPDTC> ;
    cosmos_sdtm:biomedicalConceptId NCIT:C204695 ;
    cosmos_sdtm:domain "RP" ;
    cosmos_sdtm:packageDate "2026-05-26"^^xsd:date ;
    cosmos_sdtm:packageType <https://www.cdisc.org/cosmos/sdtm_v1.0/PackageTypeEnum#sdtm> ;
    cosmos_sdtm:sdtmigStartVersion "3-2" ;
    cosmos_sdtm:shortName "Actively Menstruating Indicator" ;
    cosmos_sdtm:source "RP.RPTESTCD" ;
    cosmos_sdtm:variables <https://w3id.org/cdisc/cosmos/dss/RP/AMENSIND/RPCAT>,
        <https://w3id.org/cdisc/cosmos/dss/RP/AMENSIND/RPDTC>,
        <https://w3id.org/cdisc/cosmos/dss/RP/AMENSIND/RPORRES>,
        <https://w3id.org/cdisc/cosmos/dss/RP/AMENSIND/RPSTRESC>,
        <https://w3id.org/cdisc/cosmos/dss/RP/AMENSIND/RPTEST>,
        <https://w3id.org/cdisc/cosmos/dss/RP/AMENSIND/RPTESTCD> .

<https://w3id.org/cdisc/cosmos/dss/RP/BCMETHOD> a cosmos_sdtm:SDTMGroup ;
    dcterms:identifier "BCMETHOD" ;
    rdf:_1 <https://w3id.org/cdisc/cosmos/dss/RP/BCMETHOD/RPTESTCD> ;
    rdf:_2 <https://w3id.org/cdisc/cosmos/dss/RP/BCMETHOD/RPTEST> ;
    rdf:_3 <https://w3id.org/cdisc/cosmos/dss/RP/BCMETHOD/RPCAT> ;
    rdf:_4 <https://w3id.org/cdisc/cosmos/dss/RP/BCMETHOD/RPORRES> ;
    rdf:_5 <https://w3id.org/cdisc/cosmos/dss/RP/BCMETHOD/RPSTRESC> ;
    rdf:_6 <https://w3id.org/cdisc/cosmos/dss/RP/BCMETHOD/RPDTC> ;
    cosmos_sdtm:biomedicalConceptId NCIT:C106501 ;
    cosmos_sdtm:domain "RP" ;
    cosmos_sdtm:packageDate "2026-05-26"^^xsd:date ;
    cosmos_sdtm:packageType <https://www.cdisc.org/cosmos/sdtm_v1.0/PackageTypeEnum#sdtm> ;
    cosmos_sdtm:sdtmigStartVersion "3-2" ;
    cosmos_sdtm:shortName "Birth Control Method" ;
    cosmos_sdtm:source "RP.RPTESTCD" ;
    cosmos_sdtm:variables <https://w3id.org/cdisc/cosmos/dss/RP/BCMETHOD/RPCAT>,
        <https://w3id.org/cdisc/cosmos/dss/RP/BCMETHOD/RPDTC>,
        <https://w3id.org/cdisc/cosmos/dss/RP/BCMETHOD/RPORRES>,
        <https://w3id.org/cdisc/cosmos/dss/RP/BCMETHOD/RPSTRESC>,
        <https://w3id.org/cdisc/cosmos/dss/RP/BCMETHOD/RPTEST>,
        <https://w3id.org/cdisc/cosmos/dss/RP/BCMETHOD/RPTESTCD> .

<https://w3id.org/cdisc/cosmos/dss/RP/BLDSPNUM> a cosmos_sdtm:SDTMGroup ;
    dcterms:identifier "BLDSPNUM" ;
    rdf:_1 <https://w3id.org/cdisc/cosmos/dss/RP/BLDSPNUM/RPTESTCD> ;
    rdf:_2 <https://w3id.org/cdisc/cosmos/dss/RP/BLDSPNUM/RPTEST> ;
    rdf:_3 <https://w3id.org/cdisc/cosmos/dss/RP/BLDSPNUM/RPCAT> ;
    rdf:_4 <https://w3id.org/cdisc/cosmos/dss/RP/BLDSPNUM/RPORRES> ;
    rdf:_5 <https://w3id.org/cdisc/cosmos/dss/RP/BLDSPNUM/RPSTRESC> ;
    rdf:_6 <https://w3id.org/cdisc/cosmos/dss/RP/BLDSPNUM/RPSTRESN> ;
    rdf:_7 <https://w3id.org/cdisc/cosmos/dss/RP/BLDSPNUM/RPDTC> ;
    cosmos_sdtm:biomedicalConceptId NCIT:C181528 ;
    cosmos_sdtm:domain "RP" ;
    cosmos_sdtm:packageDate "2026-05-26"^^xsd:date ;
    cosmos_sdtm:packageType <https://www.cdisc.org/cosmos/sdtm_v1.0/PackageTypeEnum#sdtm> ;
    cosmos_sdtm:sdtmigStartVersion "3-2" ;
    cosmos_sdtm:shortName "Number of Continuous Days of Bleed/Spot" ;
    cosmos_sdtm:source "RP.RPTESTCD" ;
    cosmos_sdtm:variables <https://w3id.org/cdisc/cosmos/dss/RP/BLDSPNUM/RPCAT>,
        <https://w3id.org/cdisc/cosmos/dss/RP/BLDSPNUM/RPDTC>,
        <https://w3id.org/cdisc/cosmos/dss/RP/BLDSPNUM/RPORRES>,
        <https://w3id.org/cdisc/cosmos/dss/RP/BLDSPNUM/RPSTRESC>,
        <https://w3id.org/cdisc/cosmos/dss/RP/BLDSPNUM/RPSTRESN>,
        <https://w3id.org/cdisc/cosmos/dss/RP/BLDSPNUM/RPTEST>,
        <https://w3id.org/cdisc/cosmos/dss/RP/BLDSPNUM/RPTESTCD> .

<https://w3id.org/cdisc/cosmos/dss/RP/BLEEDIND> a cosmos_sdtm:SDTMGroup ;
    dcterms:identifier "BLEEDIND" ;
    rdf:_1 <https://w3id.org/cdisc/cosmos/dss/RP/BLEEDIND/RPTESTCD> ;
    rdf:_2 <https://w3id.org/cdisc/cosmos/dss/RP/BLEEDIND/RPTEST> ;
    rdf:_3 <https://w3id.org/cdisc/cosmos/dss/RP/BLEEDIND/RPCAT> ;
    rdf:_4 <https://w3id.org/cdisc/cosmos/dss/RP/BLEEDIND/RPORRES> ;
    rdf:_5 <https://w3id.org/cdisc/cosmos/dss/RP/BLEEDIND/RPSTRESC> ;
    rdf:_6 <https://w3id.org/cdisc/cosmos/dss/RP/BLEEDIND/RPLOC> ;
    rdf:_7 <https://w3id.org/cdisc/cosmos/dss/RP/BLEEDIND/RPLAT> ;
    rdf:_8 <https://w3id.org/cdisc/cosmos/dss/RP/BLEEDIND/RPDTC> ;
    cosmos_sdtm:biomedicalConceptId NCIT:C154889 ;
    cosmos_sdtm:domain "RP" ;
    cosmos_sdtm:packageDate "2026-05-26"^^xsd:date ;
    cosmos_sdtm:packageType <https://www.cdisc.org/cosmos/sdtm_v1.0/PackageTypeEnum#sdtm> ;
    cosmos_sdtm:sdtmigStartVersion "3-2" ;
    cosmos_sdtm:shortName "Abnormal Bleeding Indicator" ;
    cosmos_sdtm:source "RP.RPTESTCD" ;
    cosmos_sdtm:variables <https://w3id.org/cdisc/cosmos/dss/RP/BLEEDIND/RPCAT>,
        <https://w3id.org/cdisc/cosmos/dss/RP/BLEEDIND/RPDTC>,
        <https://w3id.org/cdisc/cosmos/dss/RP/BLEEDIND/RPLAT>,
        <https://w3id.org/cdisc/cosmos/dss/RP/BLEEDIND/RPLOC>,
        <https://w3id.org/cdisc/cosmos/dss/RP/BLEEDIND/RPORRES>,
        <https://w3id.org/cdisc/cosmos/dss/RP/BLEEDIND/RPSTRESC>,
        <https://w3id.org/cdisc/cosmos/dss/RP/BLEEDIND/RPTEST>,
        <https://w3id.org/cdisc/cosmos/dss/RP/BLEEDIND/RPTESTCD> .

<https://w3id.org/cdisc/cosmos/dss/RP/BLISTIND> a cosmos_sdtm:SDTMGroup ;
    dcterms:identifier "BLISTIND" ;
    rdf:_1 <https://w3id.org/cdisc/cosmos/dss/RP/BLISTIND/RPTESTCD> ;
    rdf:_2 <https://w3id.org/cdisc/cosmos/dss/RP/BLISTIND/RPTEST> ;
    rdf:_3 <https://w3id.org/cdisc/cosmos/dss/RP/BLISTIND/RPCAT> ;
    rdf:_4 <https://w3id.org/cdisc/cosmos/dss/RP/BLISTIND/RPORRES> ;
    rdf:_5 <https://w3id.org/cdisc/cosmos/dss/RP/BLISTIND/RPSTRESC> ;
    rdf:_6 <https://w3id.org/cdisc/cosmos/dss/RP/BLISTIND/RPLOC> ;
    rdf:_7 <https://w3id.org/cdisc/cosmos/dss/RP/BLISTIND/RPLAT> ;
    rdf:_8 <https://w3id.org/cdisc/cosmos/dss/RP/BLISTIND/RPDTC> ;
    cosmos_sdtm:biomedicalConceptId NCIT:C122195 ;
    cosmos_sdtm:domain "RP" ;
    cosmos_sdtm:packageDate "2026-05-26"^^xsd:date ;
    cosmos_sdtm:packageType <https://www.cdisc.org/cosmos/sdtm_v1.0/PackageTypeEnum#sdtm> ;
    cosmos_sdtm:sdtmigStartVersion "3-2" ;
    cosmos_sdtm:shortName "Blistering Indicator" ;
    cosmos_sdtm:source "RP.RPTESTCD" ;
    cosmos_sdtm:variables <https://w3id.org/cdisc/cosmos/dss/RP/BLISTIND/RPCAT>,
        <https://w3id.org/cdisc/cosmos/dss/RP/BLISTIND/RPDTC>,
        <https://w3id.org/cdisc/cosmos/dss/RP/BLISTIND/RPLAT>,
        <https://w3id.org/cdisc/cosmos/dss/RP/BLISTIND/RPLOC>,
        <https://w3id.org/cdisc/cosmos/dss/RP/BLISTIND/RPORRES>,
        <https://w3id.org/cdisc/cosmos/dss/RP/BLISTIND/RPSTRESC>,
        <https://w3id.org/cdisc/cosmos/dss/RP/BLISTIND/RPTEST>,
        <https://w3id.org/cdisc/cosmos/dss/RP/BLISTIND/RPTESTCD> .

<https://w3id.org/cdisc/cosmos/dss/RP/BRFENDTC> a cosmos_sdtm:SDTMGroup ;
    dcterms:identifier "BRFENDTC" ;
    rdf:_1 <https://w3id.org/cdisc/cosmos/dss/RP/BRFENDTC/RPTESTCD> ;
    rdf:_2 <https://w3id.org/cdisc/cosmos/dss/RP/BRFENDTC/RPTEST> ;
    rdf:_3 <https://w3id.org/cdisc/cosmos/dss/RP/BRFENDTC/RPCAT> ;
    rdf:_4 <https://w3id.org/cdisc/cosmos/dss/RP/BRFENDTC/RPORRES> ;
    rdf:_5 <https://w3id.org/cdisc/cosmos/dss/RP/BRFENDTC/RPSTRESC> ;
    rdf:_6 <https://w3id.org/cdisc/cosmos/dss/RP/BRFENDTC/RPDTC> ;
    cosmos_sdtm:biomedicalConceptId NCIT:C189364 ;
    cosmos_sdtm:domain "RP" ;
    cosmos_sdtm:packageDate "2026-05-26"^^xsd:date ;
    cosmos_sdtm:packageType <https://www.cdisc.org/cosmos/sdtm_v1.0/PackageTypeEnum#sdtm> ;
    cosmos_sdtm:sdtmigStartVersion "3-2" ;
    cosmos_sdtm:shortName "Breastfeeding End Date" ;
    cosmos_sdtm:source "RP.RPTESTCD" ;
    cosmos_sdtm:variables <https://w3id.org/cdisc/cosmos/dss/RP/BRFENDTC/RPCAT>,
        <https://w3id.org/cdisc/cosmos/dss/RP/BRFENDTC/RPDTC>,
        <https://w3id.org/cdisc/cosmos/dss/RP/BRFENDTC/RPORRES>,
        <https://w3id.org/cdisc/cosmos/dss/RP/BRFENDTC/RPSTRESC>,
        <https://w3id.org/cdisc/cosmos/dss/RP/BRFENDTC/RPTEST>,
        <https://w3id.org/cdisc/cosmos/dss/RP/BRFENDTC/RPTESTCD> .

<https://w3id.org/cdisc/cosmos/dss/RP/BRFSTDTC> a cosmos_sdtm:SDTMGroup ;
    dcterms:identifier "BRFSTDTC" ;
    rdf:_1 <https://w3id.org/cdisc/cosmos/dss/RP/BRFSTDTC/RPTESTCD> ;
    rdf:_2 <https://w3id.org/cdisc/cosmos/dss/RP/BRFSTDTC/RPTEST> ;
    rdf:_3 <https://w3id.org/cdisc/cosmos/dss/RP/BRFSTDTC/RPCAT> ;
    rdf:_4 <https://w3id.org/cdisc/cosmos/dss/RP/BRFSTDTC/RPORRES> ;
    rdf:_5 <https://w3id.org/cdisc/cosmos/dss/RP/BRFSTDTC/RPSTRESC> ;
    rdf:_6 <https://w3id.org/cdisc/cosmos/dss/RP/BRFSTDTC/RPDTC> ;
    cosmos_sdtm:biomedicalConceptId NCIT:C189363 ;
    cosmos_sdtm:domain "RP" ;
    cosmos_sdtm:packageDate "2026-05-26"^^xsd:date ;
    cosmos_sdtm:packageType <https://www.cdisc.org/cosmos/sdtm_v1.0/PackageTypeEnum#sdtm> ;
    cosmos_sdtm:sdtmigStartVersion "3-2" ;
    cosmos_sdtm:shortName "Breastfeeding Start Date" ;
    cosmos_sdtm:source "RP.RPTESTCD" ;
    cosmos_sdtm:variables <https://w3id.org/cdisc/cosmos/dss/RP/BRFSTDTC/RPCAT>,
        <https://w3id.org/cdisc/cosmos/dss/RP/BRFSTDTC/RPDTC>,
        <https://w3id.org/cdisc/cosmos/dss/RP/BRFSTDTC/RPORRES>,
        <https://w3id.org/cdisc/cosmos/dss/RP/BRFSTDTC/RPSTRESC>,
        <https://w3id.org/cdisc/cosmos/dss/RP/BRFSTDTC/RPTEST>,
        <https://w3id.org/cdisc/cosmos/dss/RP/BRFSTDTC/RPTESTCD> .

<https://w3id.org/cdisc/cosmos/dss/RP/BRTHFTN> a cosmos_sdtm:SDTMGroup ;
    dcterms:identifier "BRTHFTN" ;
    rdf:_1 <https://w3id.org/cdisc/cosmos/dss/RP/BRTHFTN/RPTESTCD> ;
    rdf:_2 <https://w3id.org/cdisc/cosmos/dss/RP/BRTHFTN/RPTEST> ;
    rdf:_3 <https://w3id.org/cdisc/cosmos/dss/RP/BRTHFTN/RPCAT> ;
    rdf:_4 <https://w3id.org/cdisc/cosmos/dss/RP/BRTHFTN/RPORRES> ;
    rdf:_5 <https://w3id.org/cdisc/cosmos/dss/RP/BRTHFTN/RPSTRESC> ;
    rdf:_6 <https://w3id.org/cdisc/cosmos/dss/RP/BRTHFTN/RPSTRESN> ;
    rdf:_7 <https://w3id.org/cdisc/cosmos/dss/RP/BRTHFTN/RPDTC> ;
    cosmos_sdtm:biomedicalConceptId NCIT:C139265 ;
    cosmos_sdtm:domain "RP" ;
    cosmos_sdtm:packageDate "2026-05-26"^^xsd:date ;
    cosmos_sdtm:packageType <https://www.cdisc.org/cosmos/sdtm_v1.0/PackageTypeEnum#sdtm> ;
    cosmos_sdtm:sdtmigStartVersion "3-2" ;
    cosmos_sdtm:shortName "Number of Full Term Live Births" ;
    cosmos_sdtm:source "RP.RPTESTCD" ;
    cosmos_sdtm:variables <https://w3id.org/cdisc/cosmos/dss/RP/BRTHFTN/RPCAT>,
        <https://w3id.org/cdisc/cosmos/dss/RP/BRTHFTN/RPDTC>,
        <https://w3id.org/cdisc/cosmos/dss/RP/BRTHFTN/RPORRES>,
        <https://w3id.org/cdisc/cosmos/dss/RP/BRTHFTN/RPSTRESC>,
        <https://w3id.org/cdisc/cosmos/dss/RP/BRTHFTN/RPSTRESN>,
        <https://w3id.org/cdisc/cosmos/dss/RP/BRTHFTN/RPTEST>,
        <https://w3id.org/cdisc/cosmos/dss/RP/BRTHFTN/RPTESTCD> .

<https://w3id.org/cdisc/cosmos/dss/RP/BRTHLVN> a cosmos_sdtm:SDTMGroup ;
    dcterms:identifier "BRTHLVN" ;
    rdf:_1 <https://w3id.org/cdisc/cosmos/dss/RP/BRTHLVN/RPTESTCD> ;
    rdf:_2 <https://w3id.org/cdisc/cosmos/dss/RP/BRTHLVN/RPTEST> ;
    rdf:_3 <https://w3id.org/cdisc/cosmos/dss/RP/BRTHLVN/RPCAT> ;
    rdf:_4 <https://w3id.org/cdisc/cosmos/dss/RP/BRTHLVN/RPORRES> ;
    rdf:_5 <https://w3id.org/cdisc/cosmos/dss/RP/BRTHLVN/RPSTRESC> ;
    rdf:_6 <https://w3id.org/cdisc/cosmos/dss/RP/BRTHLVN/RPSTRESN> ;
    rdf:_7 <https://w3id.org/cdisc/cosmos/dss/RP/BRTHLVN/RPDTC> ;
    cosmos_sdtm:biomedicalConceptId NCIT:C178141 ;
    cosmos_sdtm:domain "RP" ;
    cosmos_sdtm:packageDate "2026-05-26"^^xsd:date ;
    cosmos_sdtm:packageType <https://www.cdisc.org/cosmos/sdtm_v1.0/PackageTypeEnum#sdtm> ;
    cosmos_sdtm:sdtmigStartVersion "3-2" ;
    cosmos_sdtm:shortName "Number of Live Births" ;
    cosmos_sdtm:source "RP.RPTESTCD" ;
    cosmos_sdtm:variables <https://w3id.org/cdisc/cosmos/dss/RP/BRTHLVN/RPCAT>,
        <https://w3id.org/cdisc/cosmos/dss/RP/BRTHLVN/RPDTC>,
        <https://w3id.org/cdisc/cosmos/dss/RP/BRTHLVN/RPORRES>,
        <https://w3id.org/cdisc/cosmos/dss/RP/BRTHLVN/RPSTRESC>,
        <https://w3id.org/cdisc/cosmos/dss/RP/BRTHLVN/RPSTRESN>,
        <https://w3id.org/cdisc/cosmos/dss/RP/BRTHLVN/RPTEST>,
        <https://w3id.org/cdisc/cosmos/dss/RP/BRTHLVN/RPTESTCD> .

<https://w3id.org/cdisc/cosmos/dss/RP/BRTHN> a cosmos_sdtm:SDTMGroup ;
    dcterms:identifier "BRTHN" ;
    rdf:_1 <https://w3id.org/cdisc/cosmos/dss/RP/BRTHN/RPTESTCD> ;
    rdf:_2 <https://w3id.org/cdisc/cosmos/dss/RP/BRTHN/RPTEST> ;
    rdf:_3 <https://w3id.org/cdisc/cosmos/dss/RP/BRTHN/RPCAT> ;
    rdf:_4 <https://w3id.org/cdisc/cosmos/dss/RP/BRTHN/RPORRES> ;
    rdf:_5 <https://w3id.org/cdisc/cosmos/dss/RP/BRTHN/RPSTRESC> ;
    rdf:_6 <https://w3id.org/cdisc/cosmos/dss/RP/BRTHN/RPSTRESN> ;
    rdf:_7 <https://w3id.org/cdisc/cosmos/dss/RP/BRTHN/RPDTC> ;
    cosmos_sdtm:biomedicalConceptId NCIT:C158275 ;
    cosmos_sdtm:domain "RP" ;
    cosmos_sdtm:packageDate "2026-05-26"^^xsd:date ;
    cosmos_sdtm:packageType <https://www.cdisc.org/cosmos/sdtm_v1.0/PackageTypeEnum#sdtm> ;
    cosmos_sdtm:sdtmigStartVersion "3-2" ;
    cosmos_sdtm:shortName "Number of Births" ;
    cosmos_sdtm:source "RP.RPTESTCD" ;
    cosmos_sdtm:variables <https://w3id.org/cdisc/cosmos/dss/RP/BRTHN/RPCAT>,
        <https://w3id.org/cdisc/cosmos/dss/RP/BRTHN/RPDTC>,
        <https://w3id.org/cdisc/cosmos/dss/RP/BRTHN/RPORRES>,
        <https://w3id.org/cdisc/cosmos/dss/RP/BRTHN/RPSTRESC>,
        <https://w3id.org/cdisc/cosmos/dss/RP/BRTHN/RPSTRESN>,
        <https://w3id.org/cdisc/cosmos/dss/RP/BRTHN/RPTEST>,
        <https://w3id.org/cdisc/cosmos/dss/RP/BRTHN/RPTESTCD> .

<https://w3id.org/cdisc/cosmos/dss/RP/BRTHPRN> a cosmos_sdtm:SDTMGroup ;
    dcterms:identifier "BRTHPRN" ;
    rdf:_1 <https://w3id.org/cdisc/cosmos/dss/RP/BRTHPRN/RPTESTCD> ;
    rdf:_2 <https://w3id.org/cdisc/cosmos/dss/RP/BRTHPRN/RPTEST> ;
    rdf:_3 <https://w3id.org/cdisc/cosmos/dss/RP/BRTHPRN/RPCAT> ;
    rdf:_4 <https://w3id.org/cdisc/cosmos/dss/RP/BRTHPRN/RPORRES> ;
    rdf:_5 <https://w3id.org/cdisc/cosmos/dss/RP/BRTHPRN/RPSTRESC> ;
    rdf:_6 <https://w3id.org/cdisc/cosmos/dss/RP/BRTHPRN/RPSTRESN> ;
    rdf:_7 <https://w3id.org/cdisc/cosmos/dss/RP/BRTHPRN/RPDTC> ;
    cosmos_sdtm:biomedicalConceptId NCIT:C139266 ;
    cosmos_sdtm:domain "RP" ;
    cosmos_sdtm:packageDate "2026-05-26"^^xsd:date ;
    cosmos_sdtm:packageType <https://www.cdisc.org/cosmos/sdtm_v1.0/PackageTypeEnum#sdtm> ;
    cosmos_sdtm:sdtmigStartVersion "3-2" ;
    cosmos_sdtm:shortName "Number of Premature Live Births" ;
    cosmos_sdtm:source "RP.RPTESTCD" ;
    cosmos_sdtm:variables <https://w3id.org/cdisc/cosmos/dss/RP/BRTHPRN/RPCAT>,
        <https://w3id.org/cdisc/cosmos/dss/RP/BRTHPRN/RPDTC>,
        <https://w3id.org/cdisc/cosmos/dss/RP/BRTHPRN/RPORRES>,
        <https://w3id.org/cdisc/cosmos/dss/RP/BRTHPRN/RPSTRESC>,
        <https://w3id.org/cdisc/cosmos/dss/RP/BRTHPRN/RPSTRESN>,
        <https://w3id.org/cdisc/cosmos/dss/RP/BRTHPRN/RPTEST>,
        <https://w3id.org/cdisc/cosmos/dss/RP/BRTHPRN/RPTESTCD> .

<https://w3id.org/cdisc/cosmos/dss/RP/BRTHSTN> a cosmos_sdtm:SDTMGroup ;
    dcterms:identifier "BRTHSTN" ;
    rdf:_1 <https://w3id.org/cdisc/cosmos/dss/RP/BRTHSTN/RPTESTCD> ;
    rdf:_2 <https://w3id.org/cdisc/cosmos/dss/RP/BRTHSTN/RPTEST> ;
    rdf:_3 <https://w3id.org/cdisc/cosmos/dss/RP/BRTHSTN/RPCAT> ;
    rdf:_4 <https://w3id.org/cdisc/cosmos/dss/RP/BRTHSTN/RPORRES> ;
    rdf:_5 <https://w3id.org/cdisc/cosmos/dss/RP/BRTHSTN/RPSTRESC> ;
    rdf:_6 <https://w3id.org/cdisc/cosmos/dss/RP/BRTHSTN/RPSTRESN> ;
    rdf:_7 <https://w3id.org/cdisc/cosmos/dss/RP/BRTHSTN/RPDTC> ;
    cosmos_sdtm:biomedicalConceptId NCIT:C139267 ;
    cosmos_sdtm:domain "RP" ;
    cosmos_sdtm:packageDate "2026-05-26"^^xsd:date ;
    cosmos_sdtm:packageType <https://www.cdisc.org/cosmos/sdtm_v1.0/PackageTypeEnum#sdtm> ;
    cosmos_sdtm:sdtmigStartVersion "3-2" ;
    cosmos_sdtm:shortName "Number of Stillbirths" ;
    cosmos_sdtm:source "RP.RPTESTCD" ;
    cosmos_sdtm:variables <https://w3id.org/cdisc/cosmos/dss/RP/BRTHSTN/RPCAT>,
        <https://w3id.org/cdisc/cosmos/dss/RP/BRTHSTN/RPDTC>,
        <https://w3id.org/cdisc/cosmos/dss/RP/BRTHSTN/RPORRES>,
        <https://w3id.org/cdisc/cosmos/dss/RP/BRTHSTN/RPSTRESC>,
        <https://w3id.org/cdisc/cosmos/dss/RP/BRTHSTN/RPSTRESN>,
        <https://w3id.org/cdisc/cosmos/dss/RP/BRTHSTN/RPTEST>,
        <https://w3id.org/cdisc/cosmos/dss/RP/BRTHSTN/RPTESTCD> .

<https://w3id.org/cdisc/cosmos/dss/RP/BRTLVIND> a cosmos_sdtm:SDTMGroup ;
    dcterms:identifier "BRTLVIND" ;
    rdf:_1 <https://w3id.org/cdisc/cosmos/dss/RP/BRTLVIND/RPTESTCD> ;
    rdf:_2 <https://w3id.org/cdisc/cosmos/dss/RP/BRTLVIND/RPTEST> ;
    rdf:_3 <https://w3id.org/cdisc/cosmos/dss/RP/BRTLVIND/RPCAT> ;
    rdf:_4 <https://w3id.org/cdisc/cosmos/dss/RP/BRTLVIND/RPORRES> ;
    rdf:_5 <https://w3id.org/cdisc/cosmos/dss/RP/BRTLVIND/RPSTRESC> ;
    rdf:_6 <https://w3id.org/cdisc/cosmos/dss/RP/BRTLVIND/RPDTC> ;
    cosmos_sdtm:biomedicalConceptId NCIT:C156589 ;
    cosmos_sdtm:domain "RP" ;
    cosmos_sdtm:packageDate "2026-05-26"^^xsd:date ;
    cosmos_sdtm:packageType <https://www.cdisc.org/cosmos/sdtm_v1.0/PackageTypeEnum#sdtm> ;
    cosmos_sdtm:sdtmigStartVersion "3-2" ;
    cosmos_sdtm:shortName "Live Birth Indicator" ;
    cosmos_sdtm:source "RP.RPTESTCD" ;
    cosmos_sdtm:variables <https://w3id.org/cdisc/cosmos/dss/RP/BRTLVIND/RPCAT>,
        <https://w3id.org/cdisc/cosmos/dss/RP/BRTLVIND/RPDTC>,
        <https://w3id.org/cdisc/cosmos/dss/RP/BRTLVIND/RPORRES>,
        <https://w3id.org/cdisc/cosmos/dss/RP/BRTLVIND/RPSTRESC>,
        <https://w3id.org/cdisc/cosmos/dss/RP/BRTLVIND/RPTEST>,
        <https://w3id.org/cdisc/cosmos/dss/RP/BRTLVIND/RPTESTCD> .

<https://w3id.org/cdisc/cosmos/dss/RP/BSBMPIND> a cosmos_sdtm:SDTMGroup ;
    dcterms:identifier "BSBMPIND" ;
    rdf:_1 <https://w3id.org/cdisc/cosmos/dss/RP/BSBMPIND/RPTESTCD> ;
    rdf:_2 <https://w3id.org/cdisc/cosmos/dss/RP/BSBMPIND/RPTEST> ;
    rdf:_3 <https://w3id.org/cdisc/cosmos/dss/RP/BSBMPIND/RPCAT> ;
    rdf:_4 <https://w3id.org/cdisc/cosmos/dss/RP/BSBMPIND/RPORRES> ;
    rdf:_5 <https://w3id.org/cdisc/cosmos/dss/RP/BSBMPIND/RPSTRESC> ;
    rdf:_6 <https://w3id.org/cdisc/cosmos/dss/RP/BSBMPIND/RPDTC> ;
    cosmos_sdtm:biomedicalConceptId NCIT:C189352 ;
    cosmos_sdtm:domain "RP" ;
    cosmos_sdtm:packageDate "2026-05-26"^^xsd:date ;
    cosmos_sdtm:packageType <https://www.cdisc.org/cosmos/sdtm_v1.0/PackageTypeEnum#sdtm> ;
    cosmos_sdtm:sdtmigStartVersion "3-2" ;
    cosmos_sdtm:shortName "Bleeding or Spotting Between Menstrual Periods Indicator" ;
    cosmos_sdtm:source "RP.RPTESTCD" ;
    cosmos_sdtm:variables <https://w3id.org/cdisc/cosmos/dss/RP/BSBMPIND/RPCAT>,
        <https://w3id.org/cdisc/cosmos/dss/RP/BSBMPIND/RPDTC>,
        <https://w3id.org/cdisc/cosmos/dss/RP/BSBMPIND/RPORRES>,
        <https://w3id.org/cdisc/cosmos/dss/RP/BSBMPIND/RPSTRESC>,
        <https://w3id.org/cdisc/cosmos/dss/RP/BSBMPIND/RPTEST>,
        <https://w3id.org/cdisc/cosmos/dss/RP/BSBMPIND/RPTESTCD> .

<https://w3id.org/cdisc/cosmos/dss/RP/BTHGLIND> a cosmos_sdtm:SDTMGroup ;
    dcterms:identifier "BTHGLIND" ;
    rdf:_1 <https://w3id.org/cdisc/cosmos/dss/RP/BTHGLIND/RPTESTCD> ;
    rdf:_2 <https://w3id.org/cdisc/cosmos/dss/RP/BTHGLIND/RPTEST> ;
    rdf:_3 <https://w3id.org/cdisc/cosmos/dss/RP/BTHGLIND/RPCAT> ;
    rdf:_4 <https://w3id.org/cdisc/cosmos/dss/RP/BTHGLIND/RPORRES> ;
    rdf:_5 <https://w3id.org/cdisc/cosmos/dss/RP/BTHGLIND/RPSTRESC> ;
    rdf:_6 <https://w3id.org/cdisc/cosmos/dss/RP/BTHGLIND/RPDTC> ;
    cosmos_sdtm:biomedicalConceptId NCIT:C154880 ;
    cosmos_sdtm:domain "RP" ;
    cosmos_sdtm:packageDate "2026-05-26"^^xsd:date ;
    cosmos_sdtm:packageType <https://www.cdisc.org/cosmos/sdtm_v1.0/PackageTypeEnum#sdtm> ;
    cosmos_sdtm:sdtmigStartVersion "3-2" ;
    cosmos_sdtm:shortName "Bartholin's Gland Abnormality Indicator" ;
    cosmos_sdtm:source "RP.RPTESTCD" ;
    cosmos_sdtm:variables <https://w3id.org/cdisc/cosmos/dss/RP/BTHGLIND/RPCAT>,
        <https://w3id.org/cdisc/cosmos/dss/RP/BTHGLIND/RPDTC>,
        <https://w3id.org/cdisc/cosmos/dss/RP/BTHGLIND/RPORRES>,
        <https://w3id.org/cdisc/cosmos/dss/RP/BTHGLIND/RPSTRESC>,
        <https://w3id.org/cdisc/cosmos/dss/RP/BTHGLIND/RPTEST>,
        <https://w3id.org/cdisc/cosmos/dss/RP/BTHGLIND/RPTESTCD> .

<https://w3id.org/cdisc/cosmos/dss/RP/CABNIND> a cosmos_sdtm:SDTMGroup ;
    dcterms:identifier "CABNIND" ;
    rdf:_1 <https://w3id.org/cdisc/cosmos/dss/RP/CABNIND/RPTESTCD> ;
    rdf:_2 <https://w3id.org/cdisc/cosmos/dss/RP/CABNIND/RPTEST> ;
    rdf:_3 <https://w3id.org/cdisc/cosmos/dss/RP/CABNIND/RPCAT> ;
    rdf:_4 <https://w3id.org/cdisc/cosmos/dss/RP/CABNIND/RPORRES> ;
    rdf:_5 <https://w3id.org/cdisc/cosmos/dss/RP/CABNIND/RPSTRESC> ;
    rdf:_6 <https://w3id.org/cdisc/cosmos/dss/RP/CABNIND/RPDTC> ;
    cosmos_sdtm:biomedicalConceptId NCIT:C122187 ;
    cosmos_sdtm:domain "RP" ;
    cosmos_sdtm:packageDate "2026-05-26"^^xsd:date ;
    cosmos_sdtm:packageType <https://www.cdisc.org/cosmos/sdtm_v1.0/PackageTypeEnum#sdtm> ;
    cosmos_sdtm:sdtmigStartVersion "3-2" ;
    cosmos_sdtm:shortName "Congenital Abnormality Indicator" ;
    cosmos_sdtm:source "RP.RPTESTCD" ;
    cosmos_sdtm:variables <https://w3id.org/cdisc/cosmos/dss/RP/CABNIND/RPCAT>,
        <https://w3id.org/cdisc/cosmos/dss/RP/CABNIND/RPDTC>,
        <https://w3id.org/cdisc/cosmos/dss/RP/CABNIND/RPORRES>,
        <https://w3id.org/cdisc/cosmos/dss/RP/CABNIND/RPSTRESC>,
        <https://w3id.org/cdisc/cosmos/dss/RP/CABNIND/RPTEST>,
        <https://w3id.org/cdisc/cosmos/dss/RP/CABNIND/RPTESTCD> .

<https://w3id.org/cdisc/cosmos/dss/RP/CHILDPOT> a cosmos_sdtm:SDTMGroup ;
    dcterms:identifier "CHILDPOT" ;
    rdf:_1 <https://w3id.org/cdisc/cosmos/dss/RP/CHILDPOT/RPTESTCD> ;
    rdf:_2 <https://w3id.org/cdisc/cosmos/dss/RP/CHILDPOT/RPTEST> ;
    rdf:_3 <https://w3id.org/cdisc/cosmos/dss/RP/CHILDPOT/RPCAT> ;
    rdf:_4 <https://w3id.org/cdisc/cosmos/dss/RP/CHILDPOT/RPORRES> ;
    rdf:_5 <https://w3id.org/cdisc/cosmos/dss/RP/CHILDPOT/RPSTRESC> ;
    rdf:_6 <https://w3id.org/cdisc/cosmos/dss/RP/CHILDPOT/RPDTC> ;
    cosmos_sdtm:biomedicalConceptId NCIT:C106508 ;
    cosmos_sdtm:domain "RP" ;
    cosmos_sdtm:packageDate "2026-05-26"^^xsd:date ;
    cosmos_sdtm:packageType <https://www.cdisc.org/cosmos/sdtm_v1.0/PackageTypeEnum#sdtm> ;
    cosmos_sdtm:sdtmigStartVersion "3-2" ;
    cosmos_sdtm:shortName "Childbearing Potential" ;
    cosmos_sdtm:source "RP.RPTESTCD" ;
    cosmos_sdtm:variables <https://w3id.org/cdisc/cosmos/dss/RP/CHILDPOT/RPCAT>,
        <https://w3id.org/cdisc/cosmos/dss/RP/CHILDPOT/RPDTC>,
        <https://w3id.org/cdisc/cosmos/dss/RP/CHILDPOT/RPORRES>,
        <https://w3id.org/cdisc/cosmos/dss/RP/CHILDPOT/RPSTRESC>,
        <https://w3id.org/cdisc/cosmos/dss/RP/CHILDPOT/RPTEST>,
        <https://w3id.org/cdisc/cosmos/dss/RP/CHILDPOT/RPTESTCD> .

<https://w3id.org/cdisc/cosmos/dss/RP/CNDMIND> a cosmos_sdtm:SDTMGroup ;
    dcterms:identifier "CNDMIND" ;
    rdf:_1 <https://w3id.org/cdisc/cosmos/dss/RP/CNDMIND/RPTESTCD> ;
    rdf:_2 <https://w3id.org/cdisc/cosmos/dss/RP/CNDMIND/RPTEST> ;
    rdf:_3 <https://w3id.org/cdisc/cosmos/dss/RP/CNDMIND/RPCAT> ;
    rdf:_4 <https://w3id.org/cdisc/cosmos/dss/RP/CNDMIND/RPORRES> ;
    rdf:_5 <https://w3id.org/cdisc/cosmos/dss/RP/CNDMIND/RPSTRESC> ;
    rdf:_6 <https://w3id.org/cdisc/cosmos/dss/RP/CNDMIND/RPDTC> ;
    cosmos_sdtm:biomedicalConceptId NCIT:C181526 ;
    cosmos_sdtm:domain "RP" ;
    cosmos_sdtm:packageDate "2026-05-26"^^xsd:date ;
    cosmos_sdtm:packageType <https://www.cdisc.org/cosmos/sdtm_v1.0/PackageTypeEnum#sdtm> ;
    cosmos_sdtm:sdtmigStartVersion "3-2" ;
    cosmos_sdtm:shortName "Condom Use for Most Recent Sexual Intercourse Indicator" ;
    cosmos_sdtm:source "RP.RPTESTCD" ;
    cosmos_sdtm:variables <https://w3id.org/cdisc/cosmos/dss/RP/CNDMIND/RPCAT>,
        <https://w3id.org/cdisc/cosmos/dss/RP/CNDMIND/RPDTC>,
        <https://w3id.org/cdisc/cosmos/dss/RP/CNDMIND/RPORRES>,
        <https://w3id.org/cdisc/cosmos/dss/RP/CNDMIND/RPSTRESC>,
        <https://w3id.org/cdisc/cosmos/dss/RP/CNDMIND/RPTEST>,
        <https://w3id.org/cdisc/cosmos/dss/RP/CNDMIND/RPTESTCD> .

<https://w3id.org/cdisc/cosmos/dss/RP/CNDUFRQD> a cosmos_sdtm:SDTMGroup ;
    dcterms:identifier "CNDUFRQD" ;
    rdf:_1 <https://w3id.org/cdisc/cosmos/dss/RP/CNDUFRQD/RPTESTCD> ;
    rdf:_2 <https://w3id.org/cdisc/cosmos/dss/RP/CNDUFRQD/RPTEST> ;
    rdf:_3 <https://w3id.org/cdisc/cosmos/dss/RP/CNDUFRQD/RPCAT> ;
    rdf:_4 <https://w3id.org/cdisc/cosmos/dss/RP/CNDUFRQD/RPORRES> ;
    rdf:_5 <https://w3id.org/cdisc/cosmos/dss/RP/CNDUFRQD/RPSTRESC> ;
    rdf:_6 <https://w3id.org/cdisc/cosmos/dss/RP/CNDUFRQD/RPDTC> ;
    cosmos_sdtm:biomedicalConceptId NCIT:C181527 ;
    cosmos_sdtm:domain "RP" ;
    cosmos_sdtm:packageDate "2026-05-26"^^xsd:date ;
    cosmos_sdtm:packageType <https://www.cdisc.org/cosmos/sdtm_v1.0/PackageTypeEnum#sdtm> ;
    cosmos_sdtm:sdtmigStartVersion "3-2" ;
    cosmos_sdtm:shortName "Condom Use Frequency" ;
    cosmos_sdtm:source "RP.RPTESTCD" ;
    cosmos_sdtm:variables <https://w3id.org/cdisc/cosmos/dss/RP/CNDUFRQD/RPCAT>,
        <https://w3id.org/cdisc/cosmos/dss/RP/CNDUFRQD/RPDTC>,
        <https://w3id.org/cdisc/cosmos/dss/RP/CNDUFRQD/RPORRES>,
        <https://w3id.org/cdisc/cosmos/dss/RP/CNDUFRQD/RPSTRESC>,
        <https://w3id.org/cdisc/cosmos/dss/RP/CNDUFRQD/RPTEST>,
        <https://w3id.org/cdisc/cosmos/dss/RP/CNDUFRQD/RPTESTCD> .

<https://w3id.org/cdisc/cosmos/dss/RP/CSRSCTN> a cosmos_sdtm:SDTMGroup ;
    dcterms:identifier "CSRSCTN" ;
    rdf:_1 <https://w3id.org/cdisc/cosmos/dss/RP/CSRSCTN/RPTESTCD> ;
    rdf:_2 <https://w3id.org/cdisc/cosmos/dss/RP/CSRSCTN/RPTEST> ;
    rdf:_3 <https://w3id.org/cdisc/cosmos/dss/RP/CSRSCTN/RPCAT> ;
    rdf:_4 <https://w3id.org/cdisc/cosmos/dss/RP/CSRSCTN/RPORRES> ;
    rdf:_5 <https://w3id.org/cdisc/cosmos/dss/RP/CSRSCTN/RPSTRESC> ;
    rdf:_6 <https://w3id.org/cdisc/cosmos/dss/RP/CSRSCTN/RPSTRESN> ;
    rdf:_7 <https://w3id.org/cdisc/cosmos/dss/RP/CSRSCTN/RPDTC> ;
    cosmos_sdtm:biomedicalConceptId NCIT:C189358 ;
    cosmos_sdtm:domain "RP" ;
    cosmos_sdtm:packageDate "2026-05-26"^^xsd:date ;
    cosmos_sdtm:packageType <https://www.cdisc.org/cosmos/sdtm_v1.0/PackageTypeEnum#sdtm> ;
    cosmos_sdtm:sdtmigStartVersion "3-2" ;
    cosmos_sdtm:shortName "Number of Cesarean Sections" ;
    cosmos_sdtm:source "RP.RPTESTCD" ;
    cosmos_sdtm:variables <https://w3id.org/cdisc/cosmos/dss/RP/CSRSCTN/RPCAT>,
        <https://w3id.org/cdisc/cosmos/dss/RP/CSRSCTN/RPDTC>,
        <https://w3id.org/cdisc/cosmos/dss/RP/CSRSCTN/RPORRES>,
        <https://w3id.org/cdisc/cosmos/dss/RP/CSRSCTN/RPSTRESC>,
        <https://w3id.org/cdisc/cosmos/dss/RP/CSRSCTN/RPSTRESN>,
        <https://w3id.org/cdisc/cosmos/dss/RP/CSRSCTN/RPTEST>,
        <https://w3id.org/cdisc/cosmos/dss/RP/CSRSCTN/RPTESTCD> .

<https://w3id.org/cdisc/cosmos/dss/RP/DLVRMODE> a cosmos_sdtm:SDTMGroup ;
    dcterms:identifier "DLVRMODE" ;
    rdf:_1 <https://w3id.org/cdisc/cosmos/dss/RP/DLVRMODE/RPTESTCD> ;
    rdf:_2 <https://w3id.org/cdisc/cosmos/dss/RP/DLVRMODE/RPTEST> ;
    rdf:_3 <https://w3id.org/cdisc/cosmos/dss/RP/DLVRMODE/RPCAT> ;
    rdf:_4 <https://w3id.org/cdisc/cosmos/dss/RP/DLVRMODE/RPORRES> ;
    rdf:_5 <https://w3id.org/cdisc/cosmos/dss/RP/DLVRMODE/RPSTRESC> ;
    rdf:_6 <https://w3id.org/cdisc/cosmos/dss/RP/DLVRMODE/RPDTC> ;
    cosmos_sdtm:biomedicalConceptId NCIT:C81179 ;
    cosmos_sdtm:domain "RP" ;
    cosmos_sdtm:packageDate "2026-05-26"^^xsd:date ;
    cosmos_sdtm:packageType <https://www.cdisc.org/cosmos/sdtm_v1.0/PackageTypeEnum#sdtm> ;
    cosmos_sdtm:sdtmigStartVersion "3-2" ;
    cosmos_sdtm:shortName "Delivery Procedure" ;
    cosmos_sdtm:source "RP.RPTESTCD" ;
    cosmos_sdtm:variables <https://w3id.org/cdisc/cosmos/dss/RP/DLVRMODE/RPCAT>,
        <https://w3id.org/cdisc/cosmos/dss/RP/DLVRMODE/RPDTC>,
        <https://w3id.org/cdisc/cosmos/dss/RP/DLVRMODE/RPORRES>,
        <https://w3id.org/cdisc/cosmos/dss/RP/DLVRMODE/RPSTRESC>,
        <https://w3id.org/cdisc/cosmos/dss/RP/DLVRMODE/RPTEST>,
        <https://w3id.org/cdisc/cosmos/dss/RP/DLVRMODE/RPTESTCD> .

<https://w3id.org/cdisc/cosmos/dss/RP/DSCHGIND> a cosmos_sdtm:SDTMGroup ;
    dcterms:identifier "DSCHGIND" ;
    rdf:_1 <https://w3id.org/cdisc/cosmos/dss/RP/DSCHGIND/RPTESTCD> ;
    rdf:_2 <https://w3id.org/cdisc/cosmos/dss/RP/DSCHGIND/RPTEST> ;
    rdf:_3 <https://w3id.org/cdisc/cosmos/dss/RP/DSCHGIND/RPCAT> ;
    rdf:_4 <https://w3id.org/cdisc/cosmos/dss/RP/DSCHGIND/RPORRES> ;
    rdf:_5 <https://w3id.org/cdisc/cosmos/dss/RP/DSCHGIND/RPSTRESC> ;
    rdf:_6 <https://w3id.org/cdisc/cosmos/dss/RP/DSCHGIND/RPLOC> ;
    rdf:_7 <https://w3id.org/cdisc/cosmos/dss/RP/DSCHGIND/RPLAT> ;
    rdf:_8 <https://w3id.org/cdisc/cosmos/dss/RP/DSCHGIND/RPDTC> ;
    cosmos_sdtm:biomedicalConceptId NCIT:C154888 ;
    cosmos_sdtm:domain "RP" ;
    cosmos_sdtm:packageDate "2026-05-26"^^xsd:date ;
    cosmos_sdtm:packageType <https://www.cdisc.org/cosmos/sdtm_v1.0/PackageTypeEnum#sdtm> ;
    cosmos_sdtm:sdtmigStartVersion "3-2" ;
    cosmos_sdtm:shortName "Discharge Indicator" ;
    cosmos_sdtm:source "RP.RPTESTCD" ;
    cosmos_sdtm:variables <https://w3id.org/cdisc/cosmos/dss/RP/DSCHGIND/RPCAT>,
        <https://w3id.org/cdisc/cosmos/dss/RP/DSCHGIND/RPDTC>,
        <https://w3id.org/cdisc/cosmos/dss/RP/DSCHGIND/RPLAT>,
        <https://w3id.org/cdisc/cosmos/dss/RP/DSCHGIND/RPLOC>,
        <https://w3id.org/cdisc/cosmos/dss/RP/DSCHGIND/RPORRES>,
        <https://w3id.org/cdisc/cosmos/dss/RP/DSCHGIND/RPSTRESC>,
        <https://w3id.org/cdisc/cosmos/dss/RP/DSCHGIND/RPTEST>,
        <https://w3id.org/cdisc/cosmos/dss/RP/DSCHGIND/RPTESTCD> .

<https://w3id.org/cdisc/cosmos/dss/RP/ECCHYIND> a cosmos_sdtm:SDTMGroup ;
    dcterms:identifier "ECCHYIND" ;
    rdf:_1 <https://w3id.org/cdisc/cosmos/dss/RP/ECCHYIND/RPTESTCD> ;
    rdf:_2 <https://w3id.org/cdisc/cosmos/dss/RP/ECCHYIND/RPTEST> ;
    rdf:_3 <https://w3id.org/cdisc/cosmos/dss/RP/ECCHYIND/RPCAT> ;
    rdf:_4 <https://w3id.org/cdisc/cosmos/dss/RP/ECCHYIND/RPORRES> ;
    rdf:_5 <https://w3id.org/cdisc/cosmos/dss/RP/ECCHYIND/RPSTRESC> ;
    rdf:_6 <https://w3id.org/cdisc/cosmos/dss/RP/ECCHYIND/RPLOC> ;
    rdf:_7 <https://w3id.org/cdisc/cosmos/dss/RP/ECCHYIND/RPLAT> ;
    rdf:_8 <https://w3id.org/cdisc/cosmos/dss/RP/ECCHYIND/RPDTC> ;
    cosmos_sdtm:biomedicalConceptId NCIT:C154884 ;
    cosmos_sdtm:domain "RP" ;
    cosmos_sdtm:packageDate "2026-05-26"^^xsd:date ;
    cosmos_sdtm:packageType <https://www.cdisc.org/cosmos/sdtm_v1.0/PackageTypeEnum#sdtm> ;
    cosmos_sdtm:sdtmigStartVersion "3-2" ;
    cosmos_sdtm:shortName "Ecchymosis Indicator" ;
    cosmos_sdtm:source "RP.RPTESTCD" ;
    cosmos_sdtm:variables <https://w3id.org/cdisc/cosmos/dss/RP/ECCHYIND/RPCAT>,
        <https://w3id.org/cdisc/cosmos/dss/RP/ECCHYIND/RPDTC>,
        <https://w3id.org/cdisc/cosmos/dss/RP/ECCHYIND/RPLAT>,
        <https://w3id.org/cdisc/cosmos/dss/RP/ECCHYIND/RPLOC>,
        <https://w3id.org/cdisc/cosmos/dss/RP/ECCHYIND/RPORRES>,
        <https://w3id.org/cdisc/cosmos/dss/RP/ECCHYIND/RPSTRESC>,
        <https://w3id.org/cdisc/cosmos/dss/RP/ECCHYIND/RPTEST>,
        <https://w3id.org/cdisc/cosmos/dss/RP/ECCHYIND/RPTESTCD> .

<https://w3id.org/cdisc/cosmos/dss/RP/ECTPREGN> a cosmos_sdtm:SDTMGroup ;
    dcterms:identifier "ECTPREGN" ;
    rdf:_1 <https://w3id.org/cdisc/cosmos/dss/RP/ECTPREGN/RPTESTCD> ;
    rdf:_2 <https://w3id.org/cdisc/cosmos/dss/RP/ECTPREGN/RPTEST> ;
    rdf:_3 <https://w3id.org/cdisc/cosmos/dss/RP/ECTPREGN/RPCAT> ;
    rdf:_4 <https://w3id.org/cdisc/cosmos/dss/RP/ECTPREGN/RPORRES> ;
    rdf:_5 <https://w3id.org/cdisc/cosmos/dss/RP/ECTPREGN/RPSTRESC> ;
    rdf:_6 <https://w3id.org/cdisc/cosmos/dss/RP/ECTPREGN/RPSTRESN> ;
    rdf:_7 <https://w3id.org/cdisc/cosmos/dss/RP/ECTPREGN/RPDTC> ;
    cosmos_sdtm:biomedicalConceptId NCIT:C120832 ;
    cosmos_sdtm:domain "RP" ;
    cosmos_sdtm:packageDate "2026-05-26"^^xsd:date ;
    cosmos_sdtm:packageType <https://www.cdisc.org/cosmos/sdtm_v1.0/PackageTypeEnum#sdtm> ;
    cosmos_sdtm:sdtmigStartVersion "3-2" ;
    cosmos_sdtm:shortName "Number of Ectopic Pregnancies" ;
    cosmos_sdtm:source "RP.RPTESTCD" ;
    cosmos_sdtm:variables <https://w3id.org/cdisc/cosmos/dss/RP/ECTPREGN/RPCAT>,
        <https://w3id.org/cdisc/cosmos/dss/RP/ECTPREGN/RPDTC>,
        <https://w3id.org/cdisc/cosmos/dss/RP/ECTPREGN/RPORRES>,
        <https://w3id.org/cdisc/cosmos/dss/RP/ECTPREGN/RPSTRESC>,
        <https://w3id.org/cdisc/cosmos/dss/RP/ECTPREGN/RPSTRESN>,
        <https://w3id.org/cdisc/cosmos/dss/RP/ECTPREGN/RPTEST>,
        <https://w3id.org/cdisc/cosmos/dss/RP/ECTPREGN/RPTESTCD> .

<https://w3id.org/cdisc/cosmos/dss/RP/EDCDTC> a cosmos_sdtm:SDTMGroup ;
    dcterms:identifier "EDCDTC" ;
    rdf:_1 <https://w3id.org/cdisc/cosmos/dss/RP/EDCDTC/RPTESTCD> ;
    rdf:_2 <https://w3id.org/cdisc/cosmos/dss/RP/EDCDTC/RPTEST> ;
    rdf:_3 <https://w3id.org/cdisc/cosmos/dss/RP/EDCDTC/RPCAT> ;
    rdf:_4 <https://w3id.org/cdisc/cosmos/dss/RP/EDCDTC/RPORRES> ;
    rdf:_5 <https://w3id.org/cdisc/cosmos/dss/RP/EDCDTC/RPSTRESC> ;
    rdf:_6 <https://w3id.org/cdisc/cosmos/dss/RP/EDCDTC/RPDTC> ;
    cosmos_sdtm:biomedicalConceptId NCIT:C120833 ;
    cosmos_sdtm:domain "RP" ;
    cosmos_sdtm:packageDate "2026-05-26"^^xsd:date ;
    cosmos_sdtm:packageType <https://www.cdisc.org/cosmos/sdtm_v1.0/PackageTypeEnum#sdtm> ;
    cosmos_sdtm:sdtmigStartVersion "3-2" ;
    cosmos_sdtm:shortName "Estimated Date of Conception" ;
    cosmos_sdtm:source "RP.RPTESTCD" ;
    cosmos_sdtm:variables <https://w3id.org/cdisc/cosmos/dss/RP/EDCDTC/RPCAT>,
        <https://w3id.org/cdisc/cosmos/dss/RP/EDCDTC/RPDTC>,
        <https://w3id.org/cdisc/cosmos/dss/RP/EDCDTC/RPORRES>,
        <https://w3id.org/cdisc/cosmos/dss/RP/EDCDTC/RPSTRESC>,
        <https://w3id.org/cdisc/cosmos/dss/RP/EDCDTC/RPTEST>,
        <https://w3id.org/cdisc/cosmos/dss/RP/EDCDTC/RPTESTCD> .

<https://w3id.org/cdisc/cosmos/dss/RP/EDEMAIND> a cosmos_sdtm:SDTMGroup ;
    dcterms:identifier "EDEMAIND" ;
    rdf:_1 <https://w3id.org/cdisc/cosmos/dss/RP/EDEMAIND/RPTESTCD> ;
    rdf:_2 <https://w3id.org/cdisc/cosmos/dss/RP/EDEMAIND/RPTEST> ;
    rdf:_3 <https://w3id.org/cdisc/cosmos/dss/RP/EDEMAIND/RPCAT> ;
    rdf:_4 <https://w3id.org/cdisc/cosmos/dss/RP/EDEMAIND/RPORRES> ;
    rdf:_5 <https://w3id.org/cdisc/cosmos/dss/RP/EDEMAIND/RPSTRESC> ;
    rdf:_6 <https://w3id.org/cdisc/cosmos/dss/RP/EDEMAIND/RPLOC> ;
    rdf:_7 <https://w3id.org/cdisc/cosmos/dss/RP/EDEMAIND/RPLAT> ;
    rdf:_8 <https://w3id.org/cdisc/cosmos/dss/RP/EDEMAIND/RPDTC> ;
    cosmos_sdtm:biomedicalConceptId NCIT:C154885 ;
    cosmos_sdtm:domain "RP" ;
    cosmos_sdtm:packageDate "2026-05-26"^^xsd:date ;
    cosmos_sdtm:packageType <https://www.cdisc.org/cosmos/sdtm_v1.0/PackageTypeEnum#sdtm> ;
    cosmos_sdtm:sdtmigStartVersion "3-2" ;
    cosmos_sdtm:shortName "Edema Indicator" ;
    cosmos_sdtm:source "RP.RPTESTCD" ;
    cosmos_sdtm:variables <https://w3id.org/cdisc/cosmos/dss/RP/EDEMAIND/RPCAT>,
        <https://w3id.org/cdisc/cosmos/dss/RP/EDEMAIND/RPDTC>,
        <https://w3id.org/cdisc/cosmos/dss/RP/EDEMAIND/RPLAT>,
        <https://w3id.org/cdisc/cosmos/dss/RP/EDEMAIND/RPLOC>,
        <https://w3id.org/cdisc/cosmos/dss/RP/EDEMAIND/RPORRES>,
        <https://w3id.org/cdisc/cosmos/dss/RP/EDEMAIND/RPSTRESC>,
        <https://w3id.org/cdisc/cosmos/dss/RP/EDEMAIND/RPTEST>,
        <https://w3id.org/cdisc/cosmos/dss/RP/EDEMAIND/RPTESTCD> .

<https://w3id.org/cdisc/cosmos/dss/RP/ENMPSDTC> a cosmos_sdtm:SDTMGroup ;
    dcterms:identifier "ENMPSDTC" ;
    rdf:_1 <https://w3id.org/cdisc/cosmos/dss/RP/ENMPSDTC/RPTESTCD> ;
    rdf:_2 <https://w3id.org/cdisc/cosmos/dss/RP/ENMPSDTC/RPTEST> ;
    rdf:_3 <https://w3id.org/cdisc/cosmos/dss/RP/ENMPSDTC/RPCAT> ;
    rdf:_4 <https://w3id.org/cdisc/cosmos/dss/RP/ENMPSDTC/RPORRES> ;
    rdf:_5 <https://w3id.org/cdisc/cosmos/dss/RP/ENMPSDTC/RPSTRESC> ;
    rdf:_6 <https://w3id.org/cdisc/cosmos/dss/RP/ENMPSDTC/RPDTC> ;
    cosmos_sdtm:biomedicalConceptId NCIT:C158276 ;
    cosmos_sdtm:domain "RP" ;
    cosmos_sdtm:packageDate "2026-05-26"^^xsd:date ;
    cosmos_sdtm:packageType <https://www.cdisc.org/cosmos/sdtm_v1.0/PackageTypeEnum#sdtm> ;
    cosmos_sdtm:sdtmigStartVersion "3-2" ;
    cosmos_sdtm:shortName "Estimated Next Menstrual Period Start Date" ;
    cosmos_sdtm:source "RP.RPTESTCD" ;
    cosmos_sdtm:variables <https://w3id.org/cdisc/cosmos/dss/RP/ENMPSDTC/RPCAT>,
        <https://w3id.org/cdisc/cosmos/dss/RP/ENMPSDTC/RPDTC>,
        <https://w3id.org/cdisc/cosmos/dss/RP/ENMPSDTC/RPORRES>,
        <https://w3id.org/cdisc/cosmos/dss/RP/ENMPSDTC/RPSTRESC>,
        <https://w3id.org/cdisc/cosmos/dss/RP/ENMPSDTC/RPTEST>,
        <https://w3id.org/cdisc/cosmos/dss/RP/ENMPSDTC/RPTESTCD> .

<https://w3id.org/cdisc/cosmos/dss/RP/ERLYTRMN> a cosmos_sdtm:SDTMGroup ;
    dcterms:identifier "ERLYTRMN" ;
    rdf:_1 <https://w3id.org/cdisc/cosmos/dss/RP/ERLYTRMN/RPTESTCD> ;
    rdf:_2 <https://w3id.org/cdisc/cosmos/dss/RP/ERLYTRMN/RPTEST> ;
    rdf:_3 <https://w3id.org/cdisc/cosmos/dss/RP/ERLYTRMN/RPCAT> ;
    rdf:_4 <https://w3id.org/cdisc/cosmos/dss/RP/ERLYTRMN/RPORRES> ;
    rdf:_5 <https://w3id.org/cdisc/cosmos/dss/RP/ERLYTRMN/RPSTRESC> ;
    rdf:_6 <https://w3id.org/cdisc/cosmos/dss/RP/ERLYTRMN/RPSTRESN> ;
    rdf:_7 <https://w3id.org/cdisc/cosmos/dss/RP/ERLYTRMN/RPDTC> ;
    cosmos_sdtm:biomedicalConceptId NCIT:C122189 ;
    cosmos_sdtm:domain "RP" ;
    cosmos_sdtm:packageDate "2026-05-26"^^xsd:date ;
    cosmos_sdtm:packageType <https://www.cdisc.org/cosmos/sdtm_v1.0/PackageTypeEnum#sdtm> ;
    cosmos_sdtm:sdtmigStartVersion "3-2" ;
    cosmos_sdtm:shortName "Number of Early Term Births" ;
    cosmos_sdtm:source "RP.RPTESTCD" ;
    cosmos_sdtm:variables <https://w3id.org/cdisc/cosmos/dss/RP/ERLYTRMN/RPCAT>,
        <https://w3id.org/cdisc/cosmos/dss/RP/ERLYTRMN/RPDTC>,
        <https://w3id.org/cdisc/cosmos/dss/RP/ERLYTRMN/RPORRES>,
        <https://w3id.org/cdisc/cosmos/dss/RP/ERLYTRMN/RPSTRESC>,
        <https://w3id.org/cdisc/cosmos/dss/RP/ERLYTRMN/RPSTRESN>,
        <https://w3id.org/cdisc/cosmos/dss/RP/ERLYTRMN/RPTEST>,
        <https://w3id.org/cdisc/cosmos/dss/RP/ERLYTRMN/RPTESTCD> .

<https://w3id.org/cdisc/cosmos/dss/RP/ERYTHIND> a cosmos_sdtm:SDTMGroup ;
    dcterms:identifier "ERYTHIND" ;
    rdf:_1 <https://w3id.org/cdisc/cosmos/dss/RP/ERYTHIND/RPTESTCD> ;
    rdf:_2 <https://w3id.org/cdisc/cosmos/dss/RP/ERYTHIND/RPTEST> ;
    rdf:_3 <https://w3id.org/cdisc/cosmos/dss/RP/ERYTHIND/RPCAT> ;
    rdf:_4 <https://w3id.org/cdisc/cosmos/dss/RP/ERYTHIND/RPORRES> ;
    rdf:_5 <https://w3id.org/cdisc/cosmos/dss/RP/ERYTHIND/RPSTRESC> ;
    rdf:_6 <https://w3id.org/cdisc/cosmos/dss/RP/ERYTHIND/RPLOC> ;
    rdf:_7 <https://w3id.org/cdisc/cosmos/dss/RP/ERYTHIND/RPLAT> ;
    rdf:_8 <https://w3id.org/cdisc/cosmos/dss/RP/ERYTHIND/RPDTC> ;
    cosmos_sdtm:biomedicalConceptId NCIT:C154877 ;
    cosmos_sdtm:domain "RP" ;
    cosmos_sdtm:packageDate "2026-05-26"^^xsd:date ;
    cosmos_sdtm:packageType <https://www.cdisc.org/cosmos/sdtm_v1.0/PackageTypeEnum#sdtm> ;
    cosmos_sdtm:sdtmigStartVersion "3-2" ;
    cosmos_sdtm:shortName "Erythema Indicator" ;
    cosmos_sdtm:source "RP.RPTESTCD" ;
    cosmos_sdtm:variables <https://w3id.org/cdisc/cosmos/dss/RP/ERYTHIND/RPCAT>,
        <https://w3id.org/cdisc/cosmos/dss/RP/ERYTHIND/RPDTC>,
        <https://w3id.org/cdisc/cosmos/dss/RP/ERYTHIND/RPLAT>,
        <https://w3id.org/cdisc/cosmos/dss/RP/ERYTHIND/RPLOC>,
        <https://w3id.org/cdisc/cosmos/dss/RP/ERYTHIND/RPORRES>,
        <https://w3id.org/cdisc/cosmos/dss/RP/ERYTHIND/RPSTRESC>,
        <https://w3id.org/cdisc/cosmos/dss/RP/ERYTHIND/RPTEST>,
        <https://w3id.org/cdisc/cosmos/dss/RP/ERYTHIND/RPTESTCD> .

<https://w3id.org/cdisc/cosmos/dss/RP/FETLDTHN> a cosmos_sdtm:SDTMGroup ;
    dcterms:identifier "FETLDTHN" ;
    rdf:_1 <https://w3id.org/cdisc/cosmos/dss/RP/FETLDTHN/RPTESTCD> ;
    rdf:_2 <https://w3id.org/cdisc/cosmos/dss/RP/FETLDTHN/RPTEST> ;
    rdf:_3 <https://w3id.org/cdisc/cosmos/dss/RP/FETLDTHN/RPCAT> ;
    rdf:_4 <https://w3id.org/cdisc/cosmos/dss/RP/FETLDTHN/RPORRES> ;
    rdf:_5 <https://w3id.org/cdisc/cosmos/dss/RP/FETLDTHN/RPSTRESC> ;
    rdf:_6 <https://w3id.org/cdisc/cosmos/dss/RP/FETLDTHN/RPSTRESN> ;
    rdf:_7 <https://w3id.org/cdisc/cosmos/dss/RP/FETLDTHN/RPDTC> ;
    cosmos_sdtm:biomedicalConceptId NCIT:C120834 ;
    cosmos_sdtm:domain "RP" ;
    cosmos_sdtm:packageDate "2026-05-26"^^xsd:date ;
    cosmos_sdtm:packageType <https://www.cdisc.org/cosmos/sdtm_v1.0/PackageTypeEnum#sdtm> ;
    cosmos_sdtm:sdtmigStartVersion "3-2" ;
    cosmos_sdtm:shortName "Number of Late Fetal Deaths" ;
    cosmos_sdtm:source "RP.RPTESTCD" ;
    cosmos_sdtm:variables <https://w3id.org/cdisc/cosmos/dss/RP/FETLDTHN/RPCAT>,
        <https://w3id.org/cdisc/cosmos/dss/RP/FETLDTHN/RPDTC>,
        <https://w3id.org/cdisc/cosmos/dss/RP/FETLDTHN/RPORRES>,
        <https://w3id.org/cdisc/cosmos/dss/RP/FETLDTHN/RPSTRESC>,
        <https://w3id.org/cdisc/cosmos/dss/RP/FETLDTHN/RPSTRESN>,
        <https://w3id.org/cdisc/cosmos/dss/RP/FETLDTHN/RPTEST>,
        <https://w3id.org/cdisc/cosmos/dss/RP/FETLDTHN/RPTESTCD> .

<https://w3id.org/cdisc/cosmos/dss/RP/FMPSTDTC> a cosmos_sdtm:SDTMGroup ;
    dcterms:identifier "FMPSTDTC" ;
    rdf:_1 <https://w3id.org/cdisc/cosmos/dss/RP/FMPSTDTC/RPTESTCD> ;
    rdf:_2 <https://w3id.org/cdisc/cosmos/dss/RP/FMPSTDTC/RPTEST> ;
    rdf:_3 <https://w3id.org/cdisc/cosmos/dss/RP/FMPSTDTC/RPCAT> ;
    rdf:_4 <https://w3id.org/cdisc/cosmos/dss/RP/FMPSTDTC/RPORRES> ;
    rdf:_5 <https://w3id.org/cdisc/cosmos/dss/RP/FMPSTDTC/RPSTRESC> ;
    rdf:_6 <https://w3id.org/cdisc/cosmos/dss/RP/FMPSTDTC/RPDTC> ;
    cosmos_sdtm:biomedicalConceptId NCIT:C198357 ;
    cosmos_sdtm:domain "RP" ;
    cosmos_sdtm:packageDate "2026-05-26"^^xsd:date ;
    cosmos_sdtm:packageType <https://www.cdisc.org/cosmos/sdtm_v1.0/PackageTypeEnum#sdtm> ;
    cosmos_sdtm:sdtmigStartVersion "3-2" ;
    cosmos_sdtm:shortName "First Menstrual Period Start Date" ;
    cosmos_sdtm:source "RP.RPTESTCD" ;
    cosmos_sdtm:variables <https://w3id.org/cdisc/cosmos/dss/RP/FMPSTDTC/RPCAT>,
        <https://w3id.org/cdisc/cosmos/dss/RP/FMPSTDTC/RPDTC>,
        <https://w3id.org/cdisc/cosmos/dss/RP/FMPSTDTC/RPORRES>,
        <https://w3id.org/cdisc/cosmos/dss/RP/FMPSTDTC/RPSTRESC>,
        <https://w3id.org/cdisc/cosmos/dss/RP/FMPSTDTC/RPTEST>,
        <https://w3id.org/cdisc/cosmos/dss/RP/FMPSTDTC/RPTESTCD> .

<https://w3id.org/cdisc/cosmos/dss/RP/FSXIAGE> a cosmos_sdtm:SDTMGroup ;
    dcterms:identifier "FSXIAGE" ;
    rdf:_1 <https://w3id.org/cdisc/cosmos/dss/RP/FSXIAGE/RPTESTCD> ;
    rdf:_2 <https://w3id.org/cdisc/cosmos/dss/RP/FSXIAGE/RPTEST> ;
    rdf:_3 <https://w3id.org/cdisc/cosmos/dss/RP/FSXIAGE/RPCAT> ;
    rdf:_4 <https://w3id.org/cdisc/cosmos/dss/RP/FSXIAGE/RPORRES> ;
    rdf:_5 <https://w3id.org/cdisc/cosmos/dss/RP/FSXIAGE/RPORRESU> ;
    rdf:_6 <https://w3id.org/cdisc/cosmos/dss/RP/FSXIAGE/RPSTRESC> ;
    rdf:_7 <https://w3id.org/cdisc/cosmos/dss/RP/FSXIAGE/RPSTRESN> ;
    rdf:_8 <https://w3id.org/cdisc/cosmos/dss/RP/FSXIAGE/RPSTRESU> ;
    rdf:_9 <https://w3id.org/cdisc/cosmos/dss/RP/FSXIAGE/RPDTC> ;
    cosmos_sdtm:biomedicalConceptId NCIT:C201480 ;
    cosmos_sdtm:domain "RP" ;
    cosmos_sdtm:packageDate "2026-05-26"^^xsd:date ;
    cosmos_sdtm:packageType <https://www.cdisc.org/cosmos/sdtm_v1.0/PackageTypeEnum#sdtm> ;
    cosmos_sdtm:sdtmigStartVersion "3-2" ;
    cosmos_sdtm:shortName "Age at First Sexual Intercourse" ;
    cosmos_sdtm:source "RP.RPTESTCD" ;
    cosmos_sdtm:variables <https://w3id.org/cdisc/cosmos/dss/RP/FSXIAGE/RPCAT>,
        <https://w3id.org/cdisc/cosmos/dss/RP/FSXIAGE/RPDTC>,
        <https://w3id.org/cdisc/cosmos/dss/RP/FSXIAGE/RPORRES>,
        <https://w3id.org/cdisc/cosmos/dss/RP/FSXIAGE/RPORRESU>,
        <https://w3id.org/cdisc/cosmos/dss/RP/FSXIAGE/RPSTRESC>,
        <https://w3id.org/cdisc/cosmos/dss/RP/FSXIAGE/RPSTRESN>,
        <https://w3id.org/cdisc/cosmos/dss/RP/FSXIAGE/RPSTRESU>,
        <https://w3id.org/cdisc/cosmos/dss/RP/FSXIAGE/RPTEST>,
        <https://w3id.org/cdisc/cosmos/dss/RP/FSXIAGE/RPTESTCD> .

<https://w3id.org/cdisc/cosmos/dss/RP/FSXOAGE> a cosmos_sdtm:SDTMGroup ;
    dcterms:identifier "FSXOAGE" ;
    rdf:_1 <https://w3id.org/cdisc/cosmos/dss/RP/FSXOAGE/RPTESTCD> ;
    rdf:_2 <https://w3id.org/cdisc/cosmos/dss/RP/FSXOAGE/RPTEST> ;
    rdf:_3 <https://w3id.org/cdisc/cosmos/dss/RP/FSXOAGE/RPCAT> ;
    rdf:_4 <https://w3id.org/cdisc/cosmos/dss/RP/FSXOAGE/RPORRES> ;
    rdf:_5 <https://w3id.org/cdisc/cosmos/dss/RP/FSXOAGE/RPORRESU> ;
    rdf:_6 <https://w3id.org/cdisc/cosmos/dss/RP/FSXOAGE/RPSTRESC> ;
    rdf:_7 <https://w3id.org/cdisc/cosmos/dss/RP/FSXOAGE/RPSTRESN> ;
    rdf:_8 <https://w3id.org/cdisc/cosmos/dss/RP/FSXOAGE/RPSTRESU> ;
    rdf:_9 <https://w3id.org/cdisc/cosmos/dss/RP/FSXOAGE/RPDTC> ;
    cosmos_sdtm:biomedicalConceptId NCIT:C201481 ;
    cosmos_sdtm:domain "RP" ;
    cosmos_sdtm:packageDate "2026-05-26"^^xsd:date ;
    cosmos_sdtm:packageType <https://www.cdisc.org/cosmos/sdtm_v1.0/PackageTypeEnum#sdtm> ;
    cosmos_sdtm:sdtmigStartVersion "3-2" ;
    cosmos_sdtm:shortName "Age at First Oral Sex" ;
    cosmos_sdtm:source "RP.RPTESTCD" ;
    cosmos_sdtm:variables <https://w3id.org/cdisc/cosmos/dss/RP/FSXOAGE/RPCAT>,
        <https://w3id.org/cdisc/cosmos/dss/RP/FSXOAGE/RPDTC>,
        <https://w3id.org/cdisc/cosmos/dss/RP/FSXOAGE/RPORRES>,
        <https://w3id.org/cdisc/cosmos/dss/RP/FSXOAGE/RPORRESU>,
        <https://w3id.org/cdisc/cosmos/dss/RP/FSXOAGE/RPSTRESC>,
        <https://w3id.org/cdisc/cosmos/dss/RP/FSXOAGE/RPSTRESN>,
        <https://w3id.org/cdisc/cosmos/dss/RP/FSXOAGE/RPSTRESU>,
        <https://w3id.org/cdisc/cosmos/dss/RP/FSXOAGE/RPTEST>,
        <https://w3id.org/cdisc/cosmos/dss/RP/FSXOAGE/RPTESTCD> .

<https://w3id.org/cdisc/cosmos/dss/RP/FULLTRMN> a cosmos_sdtm:SDTMGroup ;
    dcterms:identifier "FULLTRMN" ;
    rdf:_1 <https://w3id.org/cdisc/cosmos/dss/RP/FULLTRMN/RPTESTCD> ;
    rdf:_2 <https://w3id.org/cdisc/cosmos/dss/RP/FULLTRMN/RPTEST> ;
    rdf:_3 <https://w3id.org/cdisc/cosmos/dss/RP/FULLTRMN/RPCAT> ;
    rdf:_4 <https://w3id.org/cdisc/cosmos/dss/RP/FULLTRMN/RPORRES> ;
    rdf:_5 <https://w3id.org/cdisc/cosmos/dss/RP/FULLTRMN/RPSTRESC> ;
    rdf:_6 <https://w3id.org/cdisc/cosmos/dss/RP/FULLTRMN/RPSTRESN> ;
    rdf:_7 <https://w3id.org/cdisc/cosmos/dss/RP/FULLTRMN/RPDTC> ;
    cosmos_sdtm:biomedicalConceptId NCIT:C122190 ;
    cosmos_sdtm:domain "RP" ;
    cosmos_sdtm:packageDate "2026-05-26"^^xsd:date ;
    cosmos_sdtm:packageType <https://www.cdisc.org/cosmos/sdtm_v1.0/PackageTypeEnum#sdtm> ;
    cosmos_sdtm:sdtmigStartVersion "3-2" ;
    cosmos_sdtm:shortName "Number of Full Term Births" ;
    cosmos_sdtm:source "RP.RPTESTCD" ;
    cosmos_sdtm:variables <https://w3id.org/cdisc/cosmos/dss/RP/FULLTRMN/RPCAT>,
        <https://w3id.org/cdisc/cosmos/dss/RP/FULLTRMN/RPDTC>,
        <https://w3id.org/cdisc/cosmos/dss/RP/FULLTRMN/RPORRES>,
        <https://w3id.org/cdisc/cosmos/dss/RP/FULLTRMN/RPSTRESC>,
        <https://w3id.org/cdisc/cosmos/dss/RP/FULLTRMN/RPSTRESN>,
        <https://w3id.org/cdisc/cosmos/dss/RP/FULLTRMN/RPTEST>,
        <https://w3id.org/cdisc/cosmos/dss/RP/FULLTRMN/RPTESTCD> .

<https://w3id.org/cdisc/cosmos/dss/RP/FUNDHT> a cosmos_sdtm:SDTMGroup ;
    dcterms:identifier "FUNDHT" ;
    rdf:_1 <https://w3id.org/cdisc/cosmos/dss/RP/FUNDHT/RPTESTCD> ;
    rdf:_2 <https://w3id.org/cdisc/cosmos/dss/RP/FUNDHT/RPTEST> ;
    rdf:_3 <https://w3id.org/cdisc/cosmos/dss/RP/FUNDHT/RPCAT> ;
    rdf:_4 <https://w3id.org/cdisc/cosmos/dss/RP/FUNDHT/RPORRES> ;
    rdf:_5 <https://w3id.org/cdisc/cosmos/dss/RP/FUNDHT/RPORRESU> ;
    rdf:_6 <https://w3id.org/cdisc/cosmos/dss/RP/FUNDHT/RPSTRESC> ;
    rdf:_7 <https://w3id.org/cdisc/cosmos/dss/RP/FUNDHT/RPSTRESN> ;
    rdf:_8 <https://w3id.org/cdisc/cosmos/dss/RP/FUNDHT/RPSTRESU> ;
    rdf:_9 <https://w3id.org/cdisc/cosmos/dss/RP/FUNDHT/RPDTC> ;
    cosmos_sdtm:biomedicalConceptId NCIT:C154876 ;
    cosmos_sdtm:domain "RP" ;
    cosmos_sdtm:packageDate "2026-05-26"^^xsd:date ;
    cosmos_sdtm:packageType <https://www.cdisc.org/cosmos/sdtm_v1.0/PackageTypeEnum#sdtm> ;
    cosmos_sdtm:sdtmigStartVersion "3-2" ;
    cosmos_sdtm:shortName "Fundal Height" ;
    cosmos_sdtm:source "RP.RPTESTCD" ;
    cosmos_sdtm:variables <https://w3id.org/cdisc/cosmos/dss/RP/FUNDHT/RPCAT>,
        <https://w3id.org/cdisc/cosmos/dss/RP/FUNDHT/RPDTC>,
        <https://w3id.org/cdisc/cosmos/dss/RP/FUNDHT/RPORRES>,
        <https://w3id.org/cdisc/cosmos/dss/RP/FUNDHT/RPORRESU>,
        <https://w3id.org/cdisc/cosmos/dss/RP/FUNDHT/RPSTRESC>,
        <https://w3id.org/cdisc/cosmos/dss/RP/FUNDHT/RPSTRESN>,
        <https://w3id.org/cdisc/cosmos/dss/RP/FUNDHT/RPSTRESU>,
        <https://w3id.org/cdisc/cosmos/dss/RP/FUNDHT/RPTEST>,
        <https://w3id.org/cdisc/cosmos/dss/RP/FUNDHT/RPTESTCD> .

<https://w3id.org/cdisc/cosmos/dss/RP/GRAVIND> a cosmos_sdtm:SDTMGroup ;
    dcterms:identifier "GRAVIND" ;
    rdf:_1 <https://w3id.org/cdisc/cosmos/dss/RP/GRAVIND/RPTESTCD> ;
    rdf:_2 <https://w3id.org/cdisc/cosmos/dss/RP/GRAVIND/RPTEST> ;
    rdf:_3 <https://w3id.org/cdisc/cosmos/dss/RP/GRAVIND/RPCAT> ;
    rdf:_4 <https://w3id.org/cdisc/cosmos/dss/RP/GRAVIND/RPORRES> ;
    rdf:_5 <https://w3id.org/cdisc/cosmos/dss/RP/GRAVIND/RPSTRESC> ;
    rdf:_6 <https://w3id.org/cdisc/cosmos/dss/RP/GRAVIND/RPDTC> ;
    cosmos_sdtm:biomedicalConceptId NCIT:C73435 ;
    cosmos_sdtm:domain "RP" ;
    cosmos_sdtm:packageDate "2026-05-26"^^xsd:date ;
    cosmos_sdtm:packageType <https://www.cdisc.org/cosmos/sdtm_v1.0/PackageTypeEnum#sdtm> ;
    cosmos_sdtm:sdtmigStartVersion "3-2" ;
    cosmos_sdtm:shortName "Gravida Indicator" ;
    cosmos_sdtm:source "RP.RPTESTCD" ;
    cosmos_sdtm:variables <https://w3id.org/cdisc/cosmos/dss/RP/GRAVIND/RPCAT>,
        <https://w3id.org/cdisc/cosmos/dss/RP/GRAVIND/RPDTC>,
        <https://w3id.org/cdisc/cosmos/dss/RP/GRAVIND/RPORRES>,
        <https://w3id.org/cdisc/cosmos/dss/RP/GRAVIND/RPSTRESC>,
        <https://w3id.org/cdisc/cosmos/dss/RP/GRAVIND/RPTEST>,
        <https://w3id.org/cdisc/cosmos/dss/RP/GRAVIND/RPTESTCD> .

<https://w3id.org/cdisc/cosmos/dss/RP/HMPIND> a cosmos_sdtm:SDTMGroup ;
    dcterms:identifier "HMPIND" ;
    rdf:_1 <https://w3id.org/cdisc/cosmos/dss/RP/HMPIND/RPTESTCD> ;
    rdf:_2 <https://w3id.org/cdisc/cosmos/dss/RP/HMPIND/RPTEST> ;
    rdf:_3 <https://w3id.org/cdisc/cosmos/dss/RP/HMPIND/RPCAT> ;
    rdf:_4 <https://w3id.org/cdisc/cosmos/dss/RP/HMPIND/RPORRES> ;
    rdf:_5 <https://w3id.org/cdisc/cosmos/dss/RP/HMPIND/RPSTRESC> ;
    rdf:_6 <https://w3id.org/cdisc/cosmos/dss/RP/HMPIND/RPDTC> ;
    cosmos_sdtm:biomedicalConceptId NCIT:C184708 ;
    cosmos_sdtm:domain "RP" ;
    cosmos_sdtm:packageDate "2026-05-26"^^xsd:date ;
    cosmos_sdtm:packageType <https://www.cdisc.org/cosmos/sdtm_v1.0/PackageTypeEnum#sdtm> ;
    cosmos_sdtm:sdtmigStartVersion "3-2" ;
    cosmos_sdtm:shortName "Has Menstrual Periods Indicator" ;
    cosmos_sdtm:source "RP.RPTESTCD" ;
    cosmos_sdtm:variables <https://w3id.org/cdisc/cosmos/dss/RP/HMPIND/RPCAT>,
        <https://w3id.org/cdisc/cosmos/dss/RP/HMPIND/RPDTC>,
        <https://w3id.org/cdisc/cosmos/dss/RP/HMPIND/RPORRES>,
        <https://w3id.org/cdisc/cosmos/dss/RP/HMPIND/RPSTRESC>,
        <https://w3id.org/cdisc/cosmos/dss/RP/HMPIND/RPTEST>,
        <https://w3id.org/cdisc/cosmos/dss/RP/HMPIND/RPTESTCD> .

<https://w3id.org/cdisc/cosmos/dss/RP/HSPGCIND> a cosmos_sdtm:SDTMGroup ;
    dcterms:identifier "HSPGCIND" ;
    rdf:_1 <https://w3id.org/cdisc/cosmos/dss/RP/HSPGCIND/RPTESTCD> ;
    rdf:_2 <https://w3id.org/cdisc/cosmos/dss/RP/HSPGCIND/RPTEST> ;
    rdf:_3 <https://w3id.org/cdisc/cosmos/dss/RP/HSPGCIND/RPCAT> ;
    rdf:_4 <https://w3id.org/cdisc/cosmos/dss/RP/HSPGCIND/RPORRES> ;
    rdf:_5 <https://w3id.org/cdisc/cosmos/dss/RP/HSPGCIND/RPSTRESC> ;
    rdf:_6 <https://w3id.org/cdisc/cosmos/dss/RP/HSPGCIND/RPDTC> ;
    cosmos_sdtm:biomedicalConceptId NCIT:C176360 ;
    cosmos_sdtm:domain "RP" ;
    cosmos_sdtm:packageDate "2026-05-26"^^xsd:date ;
    cosmos_sdtm:packageType <https://www.cdisc.org/cosmos/sdtm_v1.0/PackageTypeEnum#sdtm> ;
    cosmos_sdtm:sdtmigStartVersion "3-2" ;
    cosmos_sdtm:shortName "Hospitalized Due to Pregnancy Complication Indicator" ;
    cosmos_sdtm:source "RP.RPTESTCD" ;
    cosmos_sdtm:variables <https://w3id.org/cdisc/cosmos/dss/RP/HSPGCIND/RPCAT>,
        <https://w3id.org/cdisc/cosmos/dss/RP/HSPGCIND/RPDTC>,
        <https://w3id.org/cdisc/cosmos/dss/RP/HSPGCIND/RPORRES>,
        <https://w3id.org/cdisc/cosmos/dss/RP/HSPGCIND/RPSTRESC>,
        <https://w3id.org/cdisc/cosmos/dss/RP/HSPGCIND/RPTEST>,
        <https://w3id.org/cdisc/cosmos/dss/RP/HSPGCIND/RPTESTCD> .

<https://w3id.org/cdisc/cosmos/dss/RP/INABOIND> a cosmos_sdtm:SDTMGroup ;
    dcterms:identifier "INABOIND" ;
    rdf:_1 <https://w3id.org/cdisc/cosmos/dss/RP/INABOIND/RPTESTCD> ;
    rdf:_2 <https://w3id.org/cdisc/cosmos/dss/RP/INABOIND/RPTEST> ;
    rdf:_3 <https://w3id.org/cdisc/cosmos/dss/RP/INABOIND/RPCAT> ;
    rdf:_4 <https://w3id.org/cdisc/cosmos/dss/RP/INABOIND/RPORRES> ;
    rdf:_5 <https://w3id.org/cdisc/cosmos/dss/RP/INABOIND/RPSTRESC> ;
    rdf:_6 <https://w3id.org/cdisc/cosmos/dss/RP/INABOIND/RPDTC> ;
    cosmos_sdtm:biomedicalConceptId NCIT:C156588 ;
    cosmos_sdtm:domain "RP" ;
    cosmos_sdtm:packageDate "2026-05-26"^^xsd:date ;
    cosmos_sdtm:packageType <https://www.cdisc.org/cosmos/sdtm_v1.0/PackageTypeEnum#sdtm> ;
    cosmos_sdtm:sdtmigStartVersion "3-2" ;
    cosmos_sdtm:shortName "Induced Abortion Indicator" ;
    cosmos_sdtm:source "RP.RPTESTCD" ;
    cosmos_sdtm:variables <https://w3id.org/cdisc/cosmos/dss/RP/INABOIND/RPCAT>,
        <https://w3id.org/cdisc/cosmos/dss/RP/INABOIND/RPDTC>,
        <https://w3id.org/cdisc/cosmos/dss/RP/INABOIND/RPORRES>,
        <https://w3id.org/cdisc/cosmos/dss/RP/INABOIND/RPSTRESC>,
        <https://w3id.org/cdisc/cosmos/dss/RP/INABOIND/RPTEST>,
        <https://w3id.org/cdisc/cosmos/dss/RP/INABOIND/RPTESTCD> .

<https://w3id.org/cdisc/cosmos/dss/RP/INABORTN> a cosmos_sdtm:SDTMGroup ;
    dcterms:identifier "INABORTN" ;
    rdf:_1 <https://w3id.org/cdisc/cosmos/dss/RP/INABORTN/RPTESTCD> ;
    rdf:_2 <https://w3id.org/cdisc/cosmos/dss/RP/INABORTN/RPTEST> ;
    rdf:_3 <https://w3id.org/cdisc/cosmos/dss/RP/INABORTN/RPCAT> ;
    rdf:_4 <https://w3id.org/cdisc/cosmos/dss/RP/INABORTN/RPORRES> ;
    rdf:_5 <https://w3id.org/cdisc/cosmos/dss/RP/INABORTN/RPSTRESC> ;
    rdf:_6 <https://w3id.org/cdisc/cosmos/dss/RP/INABORTN/RPSTRESN> ;
    rdf:_7 <https://w3id.org/cdisc/cosmos/dss/RP/INABORTN/RPDTC> ;
    cosmos_sdtm:biomedicalConceptId NCIT:C120835 ;
    cosmos_sdtm:domain "RP" ;
    cosmos_sdtm:packageDate "2026-05-26"^^xsd:date ;
    cosmos_sdtm:packageType <https://www.cdisc.org/cosmos/sdtm_v1.0/PackageTypeEnum#sdtm> ;
    cosmos_sdtm:sdtmigStartVersion "3-2" ;
    cosmos_sdtm:shortName "Number of Induced Abortions" ;
    cosmos_sdtm:source "RP.RPTESTCD" ;
    cosmos_sdtm:variables <https://w3id.org/cdisc/cosmos/dss/RP/INABORTN/RPCAT>,
        <https://w3id.org/cdisc/cosmos/dss/RP/INABORTN/RPDTC>,
        <https://w3id.org/cdisc/cosmos/dss/RP/INABORTN/RPORRES>,
        <https://w3id.org/cdisc/cosmos/dss/RP/INABORTN/RPSTRESC>,
        <https://w3id.org/cdisc/cosmos/dss/RP/INABORTN/RPSTRESN>,
        <https://w3id.org/cdisc/cosmos/dss/RP/INABORTN/RPTEST>,
        <https://w3id.org/cdisc/cosmos/dss/RP/INABORTN/RPTESTCD> .

<https://w3id.org/cdisc/cosmos/dss/RP/INFRTIND> a cosmos_sdtm:SDTMGroup ;
    dcterms:identifier "INFRTIND" ;
    rdf:_1 <https://w3id.org/cdisc/cosmos/dss/RP/INFRTIND/RPTESTCD> ;
    rdf:_2 <https://w3id.org/cdisc/cosmos/dss/RP/INFRTIND/RPTEST> ;
    rdf:_3 <https://w3id.org/cdisc/cosmos/dss/RP/INFRTIND/RPCAT> ;
    rdf:_4 <https://w3id.org/cdisc/cosmos/dss/RP/INFRTIND/RPORRES> ;
    rdf:_5 <https://w3id.org/cdisc/cosmos/dss/RP/INFRTIND/RPSTRESC> ;
    rdf:_6 <https://w3id.org/cdisc/cosmos/dss/RP/INFRTIND/RPDTC> ;
    cosmos_sdtm:biomedicalConceptId NCIT:C189356 ;
    cosmos_sdtm:domain "RP" ;
    cosmos_sdtm:packageDate "2026-05-26"^^xsd:date ;
    cosmos_sdtm:packageType <https://www.cdisc.org/cosmos/sdtm_v1.0/PackageTypeEnum#sdtm> ;
    cosmos_sdtm:sdtmigStartVersion "3-2" ;
    cosmos_sdtm:shortName "Infertility Indicator" ;
    cosmos_sdtm:source "RP.RPTESTCD" ;
    cosmos_sdtm:variables <https://w3id.org/cdisc/cosmos/dss/RP/INFRTIND/RPCAT>,
        <https://w3id.org/cdisc/cosmos/dss/RP/INFRTIND/RPDTC>,
        <https://w3id.org/cdisc/cosmos/dss/RP/INFRTIND/RPORRES>,
        <https://w3id.org/cdisc/cosmos/dss/RP/INFRTIND/RPSTRESC>,
        <https://w3id.org/cdisc/cosmos/dss/RP/INFRTIND/RPTEST>,
        <https://w3id.org/cdisc/cosmos/dss/RP/INFRTIND/RPTESTCD> .

<https://w3id.org/cdisc/cosmos/dss/RP/IRRMPIND> a cosmos_sdtm:SDTMGroup ;
    dcterms:identifier "IRRMPIND" ;
    rdf:_1 <https://w3id.org/cdisc/cosmos/dss/RP/IRRMPIND/RPTESTCD> ;
    rdf:_2 <https://w3id.org/cdisc/cosmos/dss/RP/IRRMPIND/RPTEST> ;
    rdf:_3 <https://w3id.org/cdisc/cosmos/dss/RP/IRRMPIND/RPCAT> ;
    rdf:_4 <https://w3id.org/cdisc/cosmos/dss/RP/IRRMPIND/RPORRES> ;
    rdf:_5 <https://w3id.org/cdisc/cosmos/dss/RP/IRRMPIND/RPSTRESC> ;
    rdf:_6 <https://w3id.org/cdisc/cosmos/dss/RP/IRRMPIND/RPDTC> ;
    cosmos_sdtm:biomedicalConceptId NCIT:C189353 ;
    cosmos_sdtm:domain "RP" ;
    cosmos_sdtm:packageDate "2026-05-26"^^xsd:date ;
    cosmos_sdtm:packageType <https://www.cdisc.org/cosmos/sdtm_v1.0/PackageTypeEnum#sdtm> ;
    cosmos_sdtm:sdtmigStartVersion "3-2" ;
    cosmos_sdtm:shortName "Irregular Menstrual Periods Indicator" ;
    cosmos_sdtm:source "RP.RPTESTCD" ;
    cosmos_sdtm:variables <https://w3id.org/cdisc/cosmos/dss/RP/IRRMPIND/RPCAT>,
        <https://w3id.org/cdisc/cosmos/dss/RP/IRRMPIND/RPDTC>,
        <https://w3id.org/cdisc/cosmos/dss/RP/IRRMPIND/RPORRES>,
        <https://w3id.org/cdisc/cosmos/dss/RP/IRRMPIND/RPSTRESC>,
        <https://w3id.org/cdisc/cosmos/dss/RP/IRRMPIND/RPTEST>,
        <https://w3id.org/cdisc/cosmos/dss/RP/IRRMPIND/RPTESTCD> .

<https://w3id.org/cdisc/cosmos/dss/RP/LMPELTM> a cosmos_sdtm:SDTMGroup ;
    dcterms:identifier "LMPELTM" ;
    rdf:_1 <https://w3id.org/cdisc/cosmos/dss/RP/LMPELTM/RPTESTCD> ;
    rdf:_2 <https://w3id.org/cdisc/cosmos/dss/RP/LMPELTM/RPTEST> ;
    rdf:_3 <https://w3id.org/cdisc/cosmos/dss/RP/LMPELTM/RPCAT> ;
    rdf:_4 <https://w3id.org/cdisc/cosmos/dss/RP/LMPELTM/RPORRES> ;
    rdf:_5 <https://w3id.org/cdisc/cosmos/dss/RP/LMPELTM/RPORRESU> ;
    rdf:_6 <https://w3id.org/cdisc/cosmos/dss/RP/LMPELTM/RPSTRESC> ;
    rdf:_7 <https://w3id.org/cdisc/cosmos/dss/RP/LMPELTM/RPSTRESN> ;
    rdf:_8 <https://w3id.org/cdisc/cosmos/dss/RP/LMPELTM/RPSTRESU> ;
    rdf:_9 <https://w3id.org/cdisc/cosmos/dss/RP/LMPELTM/RPDTC> ;
    cosmos_sdtm:biomedicalConceptId NCIT:C191351 ;
    cosmos_sdtm:domain "RP" ;
    cosmos_sdtm:packageDate "2026-05-26"^^xsd:date ;
    cosmos_sdtm:packageType <https://www.cdisc.org/cosmos/sdtm_v1.0/PackageTypeEnum#sdtm> ;
    cosmos_sdtm:sdtmigStartVersion "3-2" ;
    cosmos_sdtm:shortName "Elapsed Time Since Last Menstrual Period" ;
    cosmos_sdtm:source "RP.RPTESTCD" ;
    cosmos_sdtm:variables <https://w3id.org/cdisc/cosmos/dss/RP/LMPELTM/RPCAT>,
        <https://w3id.org/cdisc/cosmos/dss/RP/LMPELTM/RPDTC>,
        <https://w3id.org/cdisc/cosmos/dss/RP/LMPELTM/RPORRES>,
        <https://w3id.org/cdisc/cosmos/dss/RP/LMPELTM/RPORRESU>,
        <https://w3id.org/cdisc/cosmos/dss/RP/LMPELTM/RPSTRESC>,
        <https://w3id.org/cdisc/cosmos/dss/RP/LMPELTM/RPSTRESN>,
        <https://w3id.org/cdisc/cosmos/dss/RP/LMPELTM/RPSTRESU>,
        <https://w3id.org/cdisc/cosmos/dss/RP/LMPELTM/RPTEST>,
        <https://w3id.org/cdisc/cosmos/dss/RP/LMPELTM/RPTESTCD> .

<https://w3id.org/cdisc/cosmos/dss/RP/LMPSTDTC> a cosmos_sdtm:SDTMGroup ;
    dcterms:identifier "LMPSTDTC" ;
    rdf:_1 <https://w3id.org/cdisc/cosmos/dss/RP/LMPSTDTC/RPTESTCD> ;
    rdf:_2 <https://w3id.org/cdisc/cosmos/dss/RP/LMPSTDTC/RPTEST> ;
    rdf:_3 <https://w3id.org/cdisc/cosmos/dss/RP/LMPSTDTC/RPCAT> ;
    rdf:_4 <https://w3id.org/cdisc/cosmos/dss/RP/LMPSTDTC/RPORRES> ;
    rdf:_5 <https://w3id.org/cdisc/cosmos/dss/RP/LMPSTDTC/RPSTRESC> ;
    rdf:_6 <https://w3id.org/cdisc/cosmos/dss/RP/LMPSTDTC/RPDTC> ;
    cosmos_sdtm:biomedicalConceptId NCIT:C81257 ;
    cosmos_sdtm:domain "RP" ;
    cosmos_sdtm:packageDate "2026-05-26"^^xsd:date ;
    cosmos_sdtm:packageType <https://www.cdisc.org/cosmos/sdtm_v1.0/PackageTypeEnum#sdtm> ;
    cosmos_sdtm:sdtmigStartVersion "3-2" ;
    cosmos_sdtm:shortName "Last Menstrual Period" ;
    cosmos_sdtm:source "RP.RPTESTCD" ;
    cosmos_sdtm:variables <https://w3id.org/cdisc/cosmos/dss/RP/LMPSTDTC/RPCAT>,
        <https://w3id.org/cdisc/cosmos/dss/RP/LMPSTDTC/RPDTC>,
        <https://w3id.org/cdisc/cosmos/dss/RP/LMPSTDTC/RPORRES>,
        <https://w3id.org/cdisc/cosmos/dss/RP/LMPSTDTC/RPSTRESC>,
        <https://w3id.org/cdisc/cosmos/dss/RP/LMPSTDTC/RPTEST>,
        <https://w3id.org/cdisc/cosmos/dss/RP/LMPSTDTC/RPTESTCD> .

<https://w3id.org/cdisc/cosmos/dss/RP/MASSIND> a cosmos_sdtm:SDTMGroup ;
    dcterms:identifier "MASSIND" ;
    rdf:_1 <https://w3id.org/cdisc/cosmos/dss/RP/MASSIND/RPTESTCD> ;
    rdf:_2 <https://w3id.org/cdisc/cosmos/dss/RP/MASSIND/RPTEST> ;
    rdf:_3 <https://w3id.org/cdisc/cosmos/dss/RP/MASSIND/RPCAT> ;
    rdf:_4 <https://w3id.org/cdisc/cosmos/dss/RP/MASSIND/RPORRES> ;
    rdf:_5 <https://w3id.org/cdisc/cosmos/dss/RP/MASSIND/RPSTRESC> ;
    rdf:_6 <https://w3id.org/cdisc/cosmos/dss/RP/MASSIND/RPLOC> ;
    rdf:_7 <https://w3id.org/cdisc/cosmos/dss/RP/MASSIND/RPLAT> ;
    rdf:_8 <https://w3id.org/cdisc/cosmos/dss/RP/MASSIND/RPDTC> ;
    cosmos_sdtm:biomedicalConceptId NCIT:C154886 ;
    cosmos_sdtm:domain "RP" ;
    cosmos_sdtm:packageDate "2026-05-26"^^xsd:date ;
    cosmos_sdtm:packageType <https://www.cdisc.org/cosmos/sdtm_v1.0/PackageTypeEnum#sdtm> ;
    cosmos_sdtm:sdtmigStartVersion "3-2" ;
    cosmos_sdtm:shortName "Mass Indicator" ;
    cosmos_sdtm:source "RP.RPTESTCD" ;
    cosmos_sdtm:variables <https://w3id.org/cdisc/cosmos/dss/RP/MASSIND/RPCAT>,
        <https://w3id.org/cdisc/cosmos/dss/RP/MASSIND/RPDTC>,
        <https://w3id.org/cdisc/cosmos/dss/RP/MASSIND/RPLAT>,
        <https://w3id.org/cdisc/cosmos/dss/RP/MASSIND/RPLOC>,
        <https://w3id.org/cdisc/cosmos/dss/RP/MASSIND/RPORRES>,
        <https://w3id.org/cdisc/cosmos/dss/RP/MASSIND/RPSTRESC>,
        <https://w3id.org/cdisc/cosmos/dss/RP/MASSIND/RPTEST>,
        <https://w3id.org/cdisc/cosmos/dss/RP/MASSIND/RPTESTCD> .

<https://w3id.org/cdisc/cosmos/dss/RP/MENARAGE> a cosmos_sdtm:SDTMGroup ;
    dcterms:identifier "MENARAGE" ;
    rdf:_1 <https://w3id.org/cdisc/cosmos/dss/RP/MENARAGE/RPTESTCD> ;
    rdf:_2 <https://w3id.org/cdisc/cosmos/dss/RP/MENARAGE/RPTEST> ;
    rdf:_3 <https://w3id.org/cdisc/cosmos/dss/RP/MENARAGE/RPCAT> ;
    rdf:_4 <https://w3id.org/cdisc/cosmos/dss/RP/MENARAGE/RPORRES> ;
    rdf:_5 <https://w3id.org/cdisc/cosmos/dss/RP/MENARAGE/RPORRESU> ;
    rdf:_6 <https://w3id.org/cdisc/cosmos/dss/RP/MENARAGE/RPSTRESC> ;
    rdf:_7 <https://w3id.org/cdisc/cosmos/dss/RP/MENARAGE/RPSTRESU> ;
    rdf:_8 <https://w3id.org/cdisc/cosmos/dss/RP/MENARAGE/RPDTC> ;
    cosmos_sdtm:biomedicalConceptId NCIT:C19666 ;
    cosmos_sdtm:domain "RP" ;
    cosmos_sdtm:packageDate "2026-05-26"^^xsd:date ;
    cosmos_sdtm:packageType <https://www.cdisc.org/cosmos/sdtm_v1.0/PackageTypeEnum#sdtm> ;
    cosmos_sdtm:sdtmigStartVersion "3-2" ;
    cosmos_sdtm:shortName "Age at Menarche" ;
    cosmos_sdtm:source "RP.RPTESTCD" ;
    cosmos_sdtm:variables <https://w3id.org/cdisc/cosmos/dss/RP/MENARAGE/RPCAT>,
        <https://w3id.org/cdisc/cosmos/dss/RP/MENARAGE/RPDTC>,
        <https://w3id.org/cdisc/cosmos/dss/RP/MENARAGE/RPORRES>,
        <https://w3id.org/cdisc/cosmos/dss/RP/MENARAGE/RPORRESU>,
        <https://w3id.org/cdisc/cosmos/dss/RP/MENARAGE/RPSTRESC>,
        <https://w3id.org/cdisc/cosmos/dss/RP/MENARAGE/RPSTRESU>,
        <https://w3id.org/cdisc/cosmos/dss/RP/MENARAGE/RPTEST>,
        <https://w3id.org/cdisc/cosmos/dss/RP/MENARAGE/RPTESTCD> .

<https://w3id.org/cdisc/cosmos/dss/RP/MENARIND> a cosmos_sdtm:SDTMGroup ;
    dcterms:identifier "MENARIND" ;
    rdf:_1 <https://w3id.org/cdisc/cosmos/dss/RP/MENARIND/RPTESTCD> ;
    rdf:_2 <https://w3id.org/cdisc/cosmos/dss/RP/MENARIND/RPTEST> ;
    rdf:_3 <https://w3id.org/cdisc/cosmos/dss/RP/MENARIND/RPCAT> ;
    rdf:_4 <https://w3id.org/cdisc/cosmos/dss/RP/MENARIND/RPORRES> ;
    rdf:_5 <https://w3id.org/cdisc/cosmos/dss/RP/MENARIND/RPSTRESC> ;
    rdf:_6 <https://w3id.org/cdisc/cosmos/dss/RP/MENARIND/RPDTC> ;
    cosmos_sdtm:biomedicalConceptId NCIT:C204694 ;
    cosmos_sdtm:domain "RP" ;
    cosmos_sdtm:packageDate "2026-05-26"^^xsd:date ;
    cosmos_sdtm:packageType <https://www.cdisc.org/cosmos/sdtm_v1.0/PackageTypeEnum#sdtm> ;
    cosmos_sdtm:sdtmigStartVersion "3-2" ;
    cosmos_sdtm:shortName "Menarche Indicator" ;
    cosmos_sdtm:source "RP.RPTESTCD" ;
    cosmos_sdtm:variables <https://w3id.org/cdisc/cosmos/dss/RP/MENARIND/RPCAT>,
        <https://w3id.org/cdisc/cosmos/dss/RP/MENARIND/RPDTC>,
        <https://w3id.org/cdisc/cosmos/dss/RP/MENARIND/RPORRES>,
        <https://w3id.org/cdisc/cosmos/dss/RP/MENARIND/RPSTRESC>,
        <https://w3id.org/cdisc/cosmos/dss/RP/MENARIND/RPTEST>,
        <https://w3id.org/cdisc/cosmos/dss/RP/MENARIND/RPTESTCD> .

<https://w3id.org/cdisc/cosmos/dss/RP/MENFDUR> a cosmos_sdtm:SDTMGroup ;
    dcterms:identifier "MENFDUR" ;
    rdf:_1 <https://w3id.org/cdisc/cosmos/dss/RP/MENFDUR/RPTESTCD> ;
    rdf:_2 <https://w3id.org/cdisc/cosmos/dss/RP/MENFDUR/RPTEST> ;
    rdf:_3 <https://w3id.org/cdisc/cosmos/dss/RP/MENFDUR/RPCAT> ;
    rdf:_4 <https://w3id.org/cdisc/cosmos/dss/RP/MENFDUR/RPORRES> ;
    rdf:_5 <https://w3id.org/cdisc/cosmos/dss/RP/MENFDUR/RPORRESU> ;
    rdf:_6 <https://w3id.org/cdisc/cosmos/dss/RP/MENFDUR/RPSTRESC> ;
    rdf:_7 <https://w3id.org/cdisc/cosmos/dss/RP/MENFDUR/RPSTRESU> ;
    rdf:_8 <https://w3id.org/cdisc/cosmos/dss/RP/MENFDUR/RPDTC> ;
    cosmos_sdtm:biomedicalConceptId NCIT:C156586 ;
    cosmos_sdtm:domain "RP" ;
    cosmos_sdtm:packageDate "2026-05-26"^^xsd:date ;
    cosmos_sdtm:packageType <https://www.cdisc.org/cosmos/sdtm_v1.0/PackageTypeEnum#sdtm> ;
    cosmos_sdtm:sdtmigStartVersion "3-2" ;
    cosmos_sdtm:shortName "Menses Duration" ;
    cosmos_sdtm:source "RP.RPTESTCD" ;
    cosmos_sdtm:variables <https://w3id.org/cdisc/cosmos/dss/RP/MENFDUR/RPCAT>,
        <https://w3id.org/cdisc/cosmos/dss/RP/MENFDUR/RPDTC>,
        <https://w3id.org/cdisc/cosmos/dss/RP/MENFDUR/RPORRES>,
        <https://w3id.org/cdisc/cosmos/dss/RP/MENFDUR/RPORRESU>,
        <https://w3id.org/cdisc/cosmos/dss/RP/MENFDUR/RPSTRESC>,
        <https://w3id.org/cdisc/cosmos/dss/RP/MENFDUR/RPSTRESU>,
        <https://w3id.org/cdisc/cosmos/dss/RP/MENFDUR/RPTEST>,
        <https://w3id.org/cdisc/cosmos/dss/RP/MENFDUR/RPTESTCD> .

<https://w3id.org/cdisc/cosmos/dss/RP/MENFRD> a cosmos_sdtm:SDTMGroup ;
    dcterms:identifier "MENFRD" ;
    rdf:_1 <https://w3id.org/cdisc/cosmos/dss/RP/MENFRD/RPTESTCD> ;
    rdf:_2 <https://w3id.org/cdisc/cosmos/dss/RP/MENFRD/RPTEST> ;
    rdf:_3 <https://w3id.org/cdisc/cosmos/dss/RP/MENFRD/RPCAT> ;
    rdf:_4 <https://w3id.org/cdisc/cosmos/dss/RP/MENFRD/RPORRES> ;
    rdf:_5 <https://w3id.org/cdisc/cosmos/dss/RP/MENFRD/RPSTRESC> ;
    rdf:_6 <https://w3id.org/cdisc/cosmos/dss/RP/MENFRD/RPDTC> ;
    cosmos_sdtm:biomedicalConceptId NCIT:C156585 ;
    cosmos_sdtm:domain "RP" ;
    cosmos_sdtm:packageDate "2026-05-26"^^xsd:date ;
    cosmos_sdtm:packageType <https://www.cdisc.org/cosmos/sdtm_v1.0/PackageTypeEnum#sdtm> ;
    cosmos_sdtm:sdtmigStartVersion "3-2" ;
    cosmos_sdtm:shortName "Menses Flow Rate Description" ;
    cosmos_sdtm:source "RP.RPTESTCD" ;
    cosmos_sdtm:variables <https://w3id.org/cdisc/cosmos/dss/RP/MENFRD/RPCAT>,
        <https://w3id.org/cdisc/cosmos/dss/RP/MENFRD/RPDTC>,
        <https://w3id.org/cdisc/cosmos/dss/RP/MENFRD/RPORRES>,
        <https://w3id.org/cdisc/cosmos/dss/RP/MENFRD/RPSTRESC>,
        <https://w3id.org/cdisc/cosmos/dss/RP/MENFRD/RPTEST>,
        <https://w3id.org/cdisc/cosmos/dss/RP/MENFRD/RPTESTCD> .

<https://w3id.org/cdisc/cosmos/dss/RP/MENOAGE> a cosmos_sdtm:SDTMGroup ;
    dcterms:identifier "MENOAGE" ;
    rdf:_1 <https://w3id.org/cdisc/cosmos/dss/RP/MENOAGE/RPTESTCD> ;
    rdf:_2 <https://w3id.org/cdisc/cosmos/dss/RP/MENOAGE/RPTEST> ;
    rdf:_3 <https://w3id.org/cdisc/cosmos/dss/RP/MENOAGE/RPCAT> ;
    rdf:_4 <https://w3id.org/cdisc/cosmos/dss/RP/MENOAGE/RPORRES> ;
    rdf:_5 <https://w3id.org/cdisc/cosmos/dss/RP/MENOAGE/RPORRESU> ;
    rdf:_6 <https://w3id.org/cdisc/cosmos/dss/RP/MENOAGE/RPSTRESC> ;
    rdf:_7 <https://w3id.org/cdisc/cosmos/dss/RP/MENOAGE/RPSTRESU> ;
    rdf:_8 <https://w3id.org/cdisc/cosmos/dss/RP/MENOAGE/RPDTC> ;
    cosmos_sdtm:biomedicalConceptId NCIT:C106497 ;
    cosmos_sdtm:domain "RP" ;
    cosmos_sdtm:packageDate "2026-05-26"^^xsd:date ;
    cosmos_sdtm:packageType <https://www.cdisc.org/cosmos/sdtm_v1.0/PackageTypeEnum#sdtm> ;
    cosmos_sdtm:sdtmigStartVersion "3-2" ;
    cosmos_sdtm:shortName "Age at Menopause" ;
    cosmos_sdtm:source "RP.RPTESTCD" ;
    cosmos_sdtm:variables <https://w3id.org/cdisc/cosmos/dss/RP/MENOAGE/RPCAT>,
        <https://w3id.org/cdisc/cosmos/dss/RP/MENOAGE/RPDTC>,
        <https://w3id.org/cdisc/cosmos/dss/RP/MENOAGE/RPORRES>,
        <https://w3id.org/cdisc/cosmos/dss/RP/MENOAGE/RPORRESU>,
        <https://w3id.org/cdisc/cosmos/dss/RP/MENOAGE/RPSTRESC>,
        <https://w3id.org/cdisc/cosmos/dss/RP/MENOAGE/RPSTRESU>,
        <https://w3id.org/cdisc/cosmos/dss/RP/MENOAGE/RPTEST>,
        <https://w3id.org/cdisc/cosmos/dss/RP/MENOAGE/RPTESTCD> .

<https://w3id.org/cdisc/cosmos/dss/RP/MENOSTAT> a cosmos_sdtm:SDTMGroup ;
    dcterms:identifier "MENOSTAT" ;
    rdf:_1 <https://w3id.org/cdisc/cosmos/dss/RP/MENOSTAT/RPTESTCD> ;
    rdf:_2 <https://w3id.org/cdisc/cosmos/dss/RP/MENOSTAT/RPTEST> ;
    rdf:_3 <https://w3id.org/cdisc/cosmos/dss/RP/MENOSTAT/RPCAT> ;
    rdf:_4 <https://w3id.org/cdisc/cosmos/dss/RP/MENOSTAT/RPORRES> ;
    rdf:_5 <https://w3id.org/cdisc/cosmos/dss/RP/MENOSTAT/RPSTRESC> ;
    rdf:_6 <https://w3id.org/cdisc/cosmos/dss/RP/MENOSTAT/RPDTC> ;
    cosmos_sdtm:biomedicalConceptId NCIT:C106541 ;
    cosmos_sdtm:domain "RP" ;
    cosmos_sdtm:packageDate "2026-05-26"^^xsd:date ;
    cosmos_sdtm:packageType <https://www.cdisc.org/cosmos/sdtm_v1.0/PackageTypeEnum#sdtm> ;
    cosmos_sdtm:sdtmigStartVersion "3-2" ;
    cosmos_sdtm:shortName "Menopause Status" ;
    cosmos_sdtm:source "RP.RPTESTCD" ;
    cosmos_sdtm:variables <https://w3id.org/cdisc/cosmos/dss/RP/MENOSTAT/RPCAT>,
        <https://w3id.org/cdisc/cosmos/dss/RP/MENOSTAT/RPDTC>,
        <https://w3id.org/cdisc/cosmos/dss/RP/MENOSTAT/RPORRES>,
        <https://w3id.org/cdisc/cosmos/dss/RP/MENOSTAT/RPSTRESC>,
        <https://w3id.org/cdisc/cosmos/dss/RP/MENOSTAT/RPTEST>,
        <https://w3id.org/cdisc/cosmos/dss/RP/MENOSTAT/RPTESTCD> .

<https://w3id.org/cdisc/cosmos/dss/RP/MENREG> a cosmos_sdtm:SDTMGroup ;
    dcterms:identifier "MENREG" ;
    rdf:_1 <https://w3id.org/cdisc/cosmos/dss/RP/MENREG/RPTESTCD> ;
    rdf:_2 <https://w3id.org/cdisc/cosmos/dss/RP/MENREG/RPTEST> ;
    rdf:_3 <https://w3id.org/cdisc/cosmos/dss/RP/MENREG/RPCAT> ;
    rdf:_4 <https://w3id.org/cdisc/cosmos/dss/RP/MENREG/RPORRES> ;
    rdf:_5 <https://w3id.org/cdisc/cosmos/dss/RP/MENREG/RPSTRESC> ;
    rdf:_6 <https://w3id.org/cdisc/cosmos/dss/RP/MENREG/RPDTC> ;
    cosmos_sdtm:biomedicalConceptId NCIT:C156587 ;
    cosmos_sdtm:domain "RP" ;
    cosmos_sdtm:packageDate "2026-05-26"^^xsd:date ;
    cosmos_sdtm:packageType <https://www.cdisc.org/cosmos/sdtm_v1.0/PackageTypeEnum#sdtm> ;
    cosmos_sdtm:sdtmigStartVersion "3-2" ;
    cosmos_sdtm:shortName "Menstrual Cycle Regularity" ;
    cosmos_sdtm:source "RP.RPTESTCD" ;
    cosmos_sdtm:variables <https://w3id.org/cdisc/cosmos/dss/RP/MENREG/RPCAT>,
        <https://w3id.org/cdisc/cosmos/dss/RP/MENREG/RPDTC>,
        <https://w3id.org/cdisc/cosmos/dss/RP/MENREG/RPORRES>,
        <https://w3id.org/cdisc/cosmos/dss/RP/MENREG/RPSTRESC>,
        <https://w3id.org/cdisc/cosmos/dss/RP/MENREG/RPTEST>,
        <https://w3id.org/cdisc/cosmos/dss/RP/MENREG/RPTESTCD> .

<https://w3id.org/cdisc/cosmos/dss/RP/MENSDUR> a cosmos_sdtm:SDTMGroup ;
    dcterms:identifier "MENSDUR" ;
    rdf:_1 <https://w3id.org/cdisc/cosmos/dss/RP/MENSDUR/RPTESTCD> ;
    rdf:_2 <https://w3id.org/cdisc/cosmos/dss/RP/MENSDUR/RPTEST> ;
    rdf:_3 <https://w3id.org/cdisc/cosmos/dss/RP/MENSDUR/RPCAT> ;
    rdf:_4 <https://w3id.org/cdisc/cosmos/dss/RP/MENSDUR/RPORRES> ;
    rdf:_5 <https://w3id.org/cdisc/cosmos/dss/RP/MENSDUR/RPORRESU> ;
    rdf:_6 <https://w3id.org/cdisc/cosmos/dss/RP/MENSDUR/RPSTRESC> ;
    rdf:_7 <https://w3id.org/cdisc/cosmos/dss/RP/MENSDUR/RPSTRESU> ;
    rdf:_8 <https://w3id.org/cdisc/cosmos/dss/RP/MENSDUR/RPDTC> ;
    cosmos_sdtm:biomedicalConceptId NCIT:C119549 ;
    cosmos_sdtm:domain "RP" ;
    cosmos_sdtm:packageDate "2026-05-26"^^xsd:date ;
    cosmos_sdtm:packageType <https://www.cdisc.org/cosmos/sdtm_v1.0/PackageTypeEnum#sdtm> ;
    cosmos_sdtm:sdtmigStartVersion "3-2" ;
    cosmos_sdtm:shortName "Mentrual Cycle Duration" ;
    cosmos_sdtm:source "RP.RPTESTCD" ;
    cosmos_sdtm:variables <https://w3id.org/cdisc/cosmos/dss/RP/MENSDUR/RPCAT>,
        <https://w3id.org/cdisc/cosmos/dss/RP/MENSDUR/RPDTC>,
        <https://w3id.org/cdisc/cosmos/dss/RP/MENSDUR/RPORRES>,
        <https://w3id.org/cdisc/cosmos/dss/RP/MENSDUR/RPORRESU>,
        <https://w3id.org/cdisc/cosmos/dss/RP/MENSDUR/RPSTRESC>,
        <https://w3id.org/cdisc/cosmos/dss/RP/MENSDUR/RPSTRESU>,
        <https://w3id.org/cdisc/cosmos/dss/RP/MENSDUR/RPTEST>,
        <https://w3id.org/cdisc/cosmos/dss/RP/MENSDUR/RPTESTCD> .

<https://w3id.org/cdisc/cosmos/dss/RP/MENSDURA> a cosmos_sdtm:SDTMGroup ;
    dcterms:identifier "MENSDURA" ;
    rdf:_1 <https://w3id.org/cdisc/cosmos/dss/RP/MENSDURA/RPTESTCD> ;
    rdf:_2 <https://w3id.org/cdisc/cosmos/dss/RP/MENSDURA/RPTEST> ;
    rdf:_3 <https://w3id.org/cdisc/cosmos/dss/RP/MENSDURA/RPCAT> ;
    rdf:_4 <https://w3id.org/cdisc/cosmos/dss/RP/MENSDURA/RPORRES> ;
    rdf:_5 <https://w3id.org/cdisc/cosmos/dss/RP/MENSDURA/RPORRESU> ;
    rdf:_6 <https://w3id.org/cdisc/cosmos/dss/RP/MENSDURA/RPSTRESC> ;
    rdf:_7 <https://w3id.org/cdisc/cosmos/dss/RP/MENSDURA/RPSTRESU> ;
    rdf:_8 <https://w3id.org/cdisc/cosmos/dss/RP/MENSDURA/RPDTC> ;
    cosmos_sdtm:biomedicalConceptId NCIT:C189354 ;
    cosmos_sdtm:domain "RP" ;
    cosmos_sdtm:packageDate "2026-05-26"^^xsd:date ;
    cosmos_sdtm:packageType <https://www.cdisc.org/cosmos/sdtm_v1.0/PackageTypeEnum#sdtm> ;
    cosmos_sdtm:sdtmigStartVersion "3-2" ;
    cosmos_sdtm:shortName "Average Mentrual Cycle Duration" ;
    cosmos_sdtm:source "RP.RPTESTCD" ;
    cosmos_sdtm:variables <https://w3id.org/cdisc/cosmos/dss/RP/MENSDURA/RPCAT>,
        <https://w3id.org/cdisc/cosmos/dss/RP/MENSDURA/RPDTC>,
        <https://w3id.org/cdisc/cosmos/dss/RP/MENSDURA/RPORRES>,
        <https://w3id.org/cdisc/cosmos/dss/RP/MENSDURA/RPORRESU>,
        <https://w3id.org/cdisc/cosmos/dss/RP/MENSDURA/RPSTRESC>,
        <https://w3id.org/cdisc/cosmos/dss/RP/MENSDURA/RPSTRESU>,
        <https://w3id.org/cdisc/cosmos/dss/RP/MENSDURA/RPTEST>,
        <https://w3id.org/cdisc/cosmos/dss/RP/MENSDURA/RPTESTCD> .

<https://w3id.org/cdisc/cosmos/dss/RP/MRSXIDTC> a cosmos_sdtm:SDTMGroup ;
    dcterms:identifier "MRSXIDTC" ;
    rdf:_1 <https://w3id.org/cdisc/cosmos/dss/RP/MRSXIDTC/RPTESTCD> ;
    rdf:_2 <https://w3id.org/cdisc/cosmos/dss/RP/MRSXIDTC/RPTEST> ;
    rdf:_3 <https://w3id.org/cdisc/cosmos/dss/RP/MRSXIDTC/RPCAT> ;
    rdf:_4 <https://w3id.org/cdisc/cosmos/dss/RP/MRSXIDTC/RPORRES> ;
    rdf:_5 <https://w3id.org/cdisc/cosmos/dss/RP/MRSXIDTC/RPSTRESC> ;
    rdf:_6 <https://w3id.org/cdisc/cosmos/dss/RP/MRSXIDTC/RPDTC> ;
    cosmos_sdtm:biomedicalConceptId NCIT:C181524 ;
    cosmos_sdtm:domain "RP" ;
    cosmos_sdtm:packageDate "2026-05-26"^^xsd:date ;
    cosmos_sdtm:packageType <https://www.cdisc.org/cosmos/sdtm_v1.0/PackageTypeEnum#sdtm> ;
    cosmos_sdtm:sdtmigStartVersion "3-2" ;
    cosmos_sdtm:shortName "Date of Last Sexual Intercourse" ;
    cosmos_sdtm:source "RP.RPTESTCD" ;
    cosmos_sdtm:variables <https://w3id.org/cdisc/cosmos/dss/RP/MRSXIDTC/RPCAT>,
        <https://w3id.org/cdisc/cosmos/dss/RP/MRSXIDTC/RPDTC>,
        <https://w3id.org/cdisc/cosmos/dss/RP/MRSXIDTC/RPORRES>,
        <https://w3id.org/cdisc/cosmos/dss/RP/MRSXIDTC/RPSTRESC>,
        <https://w3id.org/cdisc/cosmos/dss/RP/MRSXIDTC/RPTEST>,
        <https://w3id.org/cdisc/cosmos/dss/RP/MRSXIDTC/RPTESTCD> .

<https://w3id.org/cdisc/cosmos/dss/RP/MSCRGIND> a cosmos_sdtm:SDTMGroup ;
    dcterms:identifier "MSCRGIND" ;
    rdf:_1 <https://w3id.org/cdisc/cosmos/dss/RP/MSCRGIND/RPTESTCD> ;
    rdf:_2 <https://w3id.org/cdisc/cosmos/dss/RP/MSCRGIND/RPTEST> ;
    rdf:_3 <https://w3id.org/cdisc/cosmos/dss/RP/MSCRGIND/RPCAT> ;
    rdf:_4 <https://w3id.org/cdisc/cosmos/dss/RP/MSCRGIND/RPORRES> ;
    rdf:_5 <https://w3id.org/cdisc/cosmos/dss/RP/MSCRGIND/RPSTRESC> ;
    rdf:_6 <https://w3id.org/cdisc/cosmos/dss/RP/MSCRGIND/RPDTC> ;
    cosmos_sdtm:biomedicalConceptId NCIT:C122191 ;
    cosmos_sdtm:domain "RP" ;
    cosmos_sdtm:packageDate "2026-05-26"^^xsd:date ;
    cosmos_sdtm:packageType <https://www.cdisc.org/cosmos/sdtm_v1.0/PackageTypeEnum#sdtm> ;
    cosmos_sdtm:sdtmigStartVersion "3-2" ;
    cosmos_sdtm:shortName "Miscarriage Indicator" ;
    cosmos_sdtm:source "RP.RPTESTCD" ;
    cosmos_sdtm:variables <https://w3id.org/cdisc/cosmos/dss/RP/MSCRGIND/RPCAT>,
        <https://w3id.org/cdisc/cosmos/dss/RP/MSCRGIND/RPDTC>,
        <https://w3id.org/cdisc/cosmos/dss/RP/MSCRGIND/RPORRES>,
        <https://w3id.org/cdisc/cosmos/dss/RP/MSCRGIND/RPSTRESC>,
        <https://w3id.org/cdisc/cosmos/dss/RP/MSCRGIND/RPTEST>,
        <https://w3id.org/cdisc/cosmos/dss/RP/MSCRGIND/RPTESTCD> .

<https://w3id.org/cdisc/cosmos/dss/RP/MTENDIND> a cosmos_sdtm:SDTMGroup ;
    dcterms:identifier "MTENDIND" ;
    rdf:_1 <https://w3id.org/cdisc/cosmos/dss/RP/MTENDIND/RPTESTCD> ;
    rdf:_2 <https://w3id.org/cdisc/cosmos/dss/RP/MTENDIND/RPTEST> ;
    rdf:_3 <https://w3id.org/cdisc/cosmos/dss/RP/MTENDIND/RPCAT> ;
    rdf:_4 <https://w3id.org/cdisc/cosmos/dss/RP/MTENDIND/RPORRES> ;
    rdf:_5 <https://w3id.org/cdisc/cosmos/dss/RP/MTENDIND/RPSTRESC> ;
    rdf:_6 <https://w3id.org/cdisc/cosmos/dss/RP/MTENDIND/RPLOC> ;
    rdf:_7 <https://w3id.org/cdisc/cosmos/dss/RP/MTENDIND/RPLAT> ;
    rdf:_8 <https://w3id.org/cdisc/cosmos/dss/RP/MTENDIND/RPDTC> ;
    cosmos_sdtm:biomedicalConceptId NCIT:C154887 ;
    cosmos_sdtm:domain "RP" ;
    cosmos_sdtm:packageDate "2026-05-26"^^xsd:date ;
    cosmos_sdtm:packageType <https://www.cdisc.org/cosmos/sdtm_v1.0/PackageTypeEnum#sdtm> ;
    cosmos_sdtm:sdtmigStartVersion "3-2" ;
    cosmos_sdtm:shortName "Motion Tenderness Indicator" ;
    cosmos_sdtm:source "RP.RPTESTCD" ;
    cosmos_sdtm:variables <https://w3id.org/cdisc/cosmos/dss/RP/MTENDIND/RPCAT>,
        <https://w3id.org/cdisc/cosmos/dss/RP/MTENDIND/RPDTC>,
        <https://w3id.org/cdisc/cosmos/dss/RP/MTENDIND/RPLAT>,
        <https://w3id.org/cdisc/cosmos/dss/RP/MTENDIND/RPLOC>,
        <https://w3id.org/cdisc/cosmos/dss/RP/MTENDIND/RPORRES>,
        <https://w3id.org/cdisc/cosmos/dss/RP/MTENDIND/RPSTRESC>,
        <https://w3id.org/cdisc/cosmos/dss/RP/MTENDIND/RPTEST>,
        <https://w3id.org/cdisc/cosmos/dss/RP/MTENDIND/RPTESTCD> .

<https://w3id.org/cdisc/cosmos/dss/RP/PCONFIND> a cosmos_sdtm:SDTMGroup ;
    dcterms:identifier "PCONFIND" ;
    rdf:_1 <https://w3id.org/cdisc/cosmos/dss/RP/PCONFIND/RPTESTCD> ;
    rdf:_2 <https://w3id.org/cdisc/cosmos/dss/RP/PCONFIND/RPTEST> ;
    rdf:_3 <https://w3id.org/cdisc/cosmos/dss/RP/PCONFIND/RPCAT> ;
    rdf:_4 <https://w3id.org/cdisc/cosmos/dss/RP/PCONFIND/RPORRES> ;
    rdf:_5 <https://w3id.org/cdisc/cosmos/dss/RP/PCONFIND/RPSTRESC> ;
    rdf:_6 <https://w3id.org/cdisc/cosmos/dss/RP/PCONFIND/RPDTC> ;
    cosmos_sdtm:biomedicalConceptId NCIT:C122192 ;
    cosmos_sdtm:domain "RP" ;
    cosmos_sdtm:packageDate "2026-05-26"^^xsd:date ;
    cosmos_sdtm:packageType <https://www.cdisc.org/cosmos/sdtm_v1.0/PackageTypeEnum#sdtm> ;
    cosmos_sdtm:sdtmigStartVersion "3-2" ;
    cosmos_sdtm:shortName "Pregnancy Confirmed Indicator" ;
    cosmos_sdtm:source "RP.RPTESTCD" ;
    cosmos_sdtm:variables <https://w3id.org/cdisc/cosmos/dss/RP/PCONFIND/RPCAT>,
        <https://w3id.org/cdisc/cosmos/dss/RP/PCONFIND/RPDTC>,
        <https://w3id.org/cdisc/cosmos/dss/RP/PCONFIND/RPORRES>,
        <https://w3id.org/cdisc/cosmos/dss/RP/PCONFIND/RPSTRESC>,
        <https://w3id.org/cdisc/cosmos/dss/RP/PCONFIND/RPTEST>,
        <https://w3id.org/cdisc/cosmos/dss/RP/PCONFIND/RPTESTCD> .

<https://w3id.org/cdisc/cosmos/dss/RP/PEELIND> a cosmos_sdtm:SDTMGroup ;
    dcterms:identifier "PEELIND" ;
    rdf:_1 <https://w3id.org/cdisc/cosmos/dss/RP/PEELIND/RPTESTCD> ;
    rdf:_2 <https://w3id.org/cdisc/cosmos/dss/RP/PEELIND/RPTEST> ;
    rdf:_3 <https://w3id.org/cdisc/cosmos/dss/RP/PEELIND/RPCAT> ;
    rdf:_4 <https://w3id.org/cdisc/cosmos/dss/RP/PEELIND/RPORRES> ;
    rdf:_5 <https://w3id.org/cdisc/cosmos/dss/RP/PEELIND/RPSTRESC> ;
    rdf:_6 <https://w3id.org/cdisc/cosmos/dss/RP/PEELIND/RPLOC> ;
    rdf:_7 <https://w3id.org/cdisc/cosmos/dss/RP/PEELIND/RPLAT> ;
    rdf:_8 <https://w3id.org/cdisc/cosmos/dss/RP/PEELIND/RPDTC> ;
    cosmos_sdtm:biomedicalConceptId NCIT:C154883 ;
    cosmos_sdtm:domain "RP" ;
    cosmos_sdtm:packageDate "2026-05-26"^^xsd:date ;
    cosmos_sdtm:packageType <https://www.cdisc.org/cosmos/sdtm_v1.0/PackageTypeEnum#sdtm> ;
    cosmos_sdtm:sdtmigStartVersion "3-2" ;
    cosmos_sdtm:shortName "Peeling Indicator" ;
    cosmos_sdtm:source "RP.RPTESTCD" ;
    cosmos_sdtm:variables <https://w3id.org/cdisc/cosmos/dss/RP/PEELIND/RPCAT>,
        <https://w3id.org/cdisc/cosmos/dss/RP/PEELIND/RPDTC>,
        <https://w3id.org/cdisc/cosmos/dss/RP/PEELIND/RPLAT>,
        <https://w3id.org/cdisc/cosmos/dss/RP/PEELIND/RPLOC>,
        <https://w3id.org/cdisc/cosmos/dss/RP/PEELIND/RPORRES>,
        <https://w3id.org/cdisc/cosmos/dss/RP/PEELIND/RPSTRESC>,
        <https://w3id.org/cdisc/cosmos/dss/RP/PEELIND/RPTEST>,
        <https://w3id.org/cdisc/cosmos/dss/RP/PEELIND/RPTESTCD> .

<https://w3id.org/cdisc/cosmos/dss/RP/PPRTIND> a cosmos_sdtm:SDTMGroup ;
    dcterms:identifier "PPRTIND" ;
    rdf:_1 <https://w3id.org/cdisc/cosmos/dss/RP/PPRTIND/RPTESTCD> ;
    rdf:_2 <https://w3id.org/cdisc/cosmos/dss/RP/PPRTIND/RPTEST> ;
    rdf:_3 <https://w3id.org/cdisc/cosmos/dss/RP/PPRTIND/RPCAT> ;
    rdf:_4 <https://w3id.org/cdisc/cosmos/dss/RP/PPRTIND/RPORRES> ;
    rdf:_5 <https://w3id.org/cdisc/cosmos/dss/RP/PPRTIND/RPSTRESC> ;
    rdf:_6 <https://w3id.org/cdisc/cosmos/dss/RP/PPRTIND/RPDTC> ;
    cosmos_sdtm:biomedicalConceptId NCIT:C198358 ;
    cosmos_sdtm:domain "RP" ;
    cosmos_sdtm:packageDate "2026-05-26"^^xsd:date ;
    cosmos_sdtm:packageType <https://www.cdisc.org/cosmos/sdtm_v1.0/PackageTypeEnum#sdtm> ;
    cosmos_sdtm:sdtmigStartVersion "3-2" ;
    cosmos_sdtm:shortName "Post-Partum Indicator" ;
    cosmos_sdtm:source "RP.RPTESTCD" ;
    cosmos_sdtm:variables <https://w3id.org/cdisc/cosmos/dss/RP/PPRTIND/RPCAT>,
        <https://w3id.org/cdisc/cosmos/dss/RP/PPRTIND/RPDTC>,
        <https://w3id.org/cdisc/cosmos/dss/RP/PPRTIND/RPORRES>,
        <https://w3id.org/cdisc/cosmos/dss/RP/PPRTIND/RPSTRESC>,
        <https://w3id.org/cdisc/cosmos/dss/RP/PPRTIND/RPTEST>,
        <https://w3id.org/cdisc/cosmos/dss/RP/PPRTIND/RPTESTCD> .

<https://w3id.org/cdisc/cosmos/dss/RP/PRDCEIND> a cosmos_sdtm:SDTMGroup ;
    dcterms:identifier "PRDCEIND" ;
    rdf:_1 <https://w3id.org/cdisc/cosmos/dss/RP/PRDCEIND/RPTESTCD> ;
    rdf:_2 <https://w3id.org/cdisc/cosmos/dss/RP/PRDCEIND/RPTEST> ;
    rdf:_3 <https://w3id.org/cdisc/cosmos/dss/RP/PRDCEIND/RPCAT> ;
    rdf:_4 <https://w3id.org/cdisc/cosmos/dss/RP/PRDCEIND/RPORRES> ;
    rdf:_5 <https://w3id.org/cdisc/cosmos/dss/RP/PRDCEIND/RPSTRESC> ;
    rdf:_6 <https://w3id.org/cdisc/cosmos/dss/RP/PRDCEIND/RPDTC> ;
    cosmos_sdtm:biomedicalConceptId NCIT:C163557 ;
    cosmos_sdtm:domain "RP" ;
    cosmos_sdtm:packageDate "2026-05-26"^^xsd:date ;
    cosmos_sdtm:packageType <https://www.cdisc.org/cosmos/sdtm_v1.0/PackageTypeEnum#sdtm> ;
    cosmos_sdtm:sdtmigStartVersion "3-2" ;
    cosmos_sdtm:shortName "Products of Conception Examined Indicator" ;
    cosmos_sdtm:source "RP.RPTESTCD" ;
    cosmos_sdtm:variables <https://w3id.org/cdisc/cosmos/dss/RP/PRDCEIND/RPCAT>,
        <https://w3id.org/cdisc/cosmos/dss/RP/PRDCEIND/RPDTC>,
        <https://w3id.org/cdisc/cosmos/dss/RP/PRDCEIND/RPORRES>,
        <https://w3id.org/cdisc/cosmos/dss/RP/PRDCEIND/RPSTRESC>,
        <https://w3id.org/cdisc/cosmos/dss/RP/PRDCEIND/RPTEST>,
        <https://w3id.org/cdisc/cosmos/dss/RP/PRDCEIND/RPTESTCD> .

<https://w3id.org/cdisc/cosmos/dss/RP/PREGIND> a cosmos_sdtm:SDTMGroup ;
    dcterms:identifier "PREGIND" ;
    rdf:_1 <https://w3id.org/cdisc/cosmos/dss/RP/PREGIND/RPTESTCD> ;
    rdf:_2 <https://w3id.org/cdisc/cosmos/dss/RP/PREGIND/RPTEST> ;
    rdf:_3 <https://w3id.org/cdisc/cosmos/dss/RP/PREGIND/RPCAT> ;
    rdf:_4 <https://w3id.org/cdisc/cosmos/dss/RP/PREGIND/RPORRES> ;
    rdf:_5 <https://w3id.org/cdisc/cosmos/dss/RP/PREGIND/RPSTRESC> ;
    rdf:_6 <https://w3id.org/cdisc/cosmos/dss/RP/PREGIND/RPDTC> ;
    cosmos_sdtm:biomedicalConceptId NCIT:C139264 ;
    cosmos_sdtm:domain "RP" ;
    cosmos_sdtm:packageDate "2026-05-26"^^xsd:date ;
    cosmos_sdtm:packageType <https://www.cdisc.org/cosmos/sdtm_v1.0/PackageTypeEnum#sdtm> ;
    cosmos_sdtm:sdtmigStartVersion "3-2" ;
    cosmos_sdtm:shortName "Pregnancy Indicator" ;
    cosmos_sdtm:source "RP.RPTESTCD" ;
    cosmos_sdtm:variables <https://w3id.org/cdisc/cosmos/dss/RP/PREGIND/RPCAT>,
        <https://w3id.org/cdisc/cosmos/dss/RP/PREGIND/RPDTC>,
        <https://w3id.org/cdisc/cosmos/dss/RP/PREGIND/RPORRES>,
        <https://w3id.org/cdisc/cosmos/dss/RP/PREGIND/RPSTRESC>,
        <https://w3id.org/cdisc/cosmos/dss/RP/PREGIND/RPTEST>,
        <https://w3id.org/cdisc/cosmos/dss/RP/PREGIND/RPTESTCD> .

<https://w3id.org/cdisc/cosmos/dss/RP/PREGNN> a cosmos_sdtm:SDTMGroup ;
    dcterms:identifier "PREGNN" ;
    rdf:_1 <https://w3id.org/cdisc/cosmos/dss/RP/PREGNN/RPTESTCD> ;
    rdf:_2 <https://w3id.org/cdisc/cosmos/dss/RP/PREGNN/RPTEST> ;
    rdf:_3 <https://w3id.org/cdisc/cosmos/dss/RP/PREGNN/RPCAT> ;
    rdf:_4 <https://w3id.org/cdisc/cosmos/dss/RP/PREGNN/RPORRES> ;
    rdf:_5 <https://w3id.org/cdisc/cosmos/dss/RP/PREGNN/RPSTRESC> ;
    rdf:_6 <https://w3id.org/cdisc/cosmos/dss/RP/PREGNN/RPSTRESN> ;
    rdf:_7 <https://w3id.org/cdisc/cosmos/dss/RP/PREGNN/RPDTC> ;
    cosmos_sdtm:biomedicalConceptId NCIT:C106551 ;
    cosmos_sdtm:domain "RP" ;
    cosmos_sdtm:packageDate "2026-05-26"^^xsd:date ;
    cosmos_sdtm:packageType <https://www.cdisc.org/cosmos/sdtm_v1.0/PackageTypeEnum#sdtm> ;
    cosmos_sdtm:sdtmigStartVersion "3-2" ;
    cosmos_sdtm:shortName "Number of Pregnancies" ;
    cosmos_sdtm:source "RP.RPTESTCD" ;
    cosmos_sdtm:variables <https://w3id.org/cdisc/cosmos/dss/RP/PREGNN/RPCAT>,
        <https://w3id.org/cdisc/cosmos/dss/RP/PREGNN/RPDTC>,
        <https://w3id.org/cdisc/cosmos/dss/RP/PREGNN/RPORRES>,
        <https://w3id.org/cdisc/cosmos/dss/RP/PREGNN/RPSTRESC>,
        <https://w3id.org/cdisc/cosmos/dss/RP/PREGNN/RPSTRESN>,
        <https://w3id.org/cdisc/cosmos/dss/RP/PREGNN/RPTEST>,
        <https://w3id.org/cdisc/cosmos/dss/RP/PREGNN/RPTESTCD> .

<https://w3id.org/cdisc/cosmos/dss/RP/PREGST> a cosmos_sdtm:SDTMGroup ;
    dcterms:identifier "PREGST" ;
    rdf:_1 <https://w3id.org/cdisc/cosmos/dss/RP/PREGST/RPTESTCD> ;
    rdf:_2 <https://w3id.org/cdisc/cosmos/dss/RP/PREGST/RPTEST> ;
    rdf:_3 <https://w3id.org/cdisc/cosmos/dss/RP/PREGST/RPCAT> ;
    rdf:_4 <https://w3id.org/cdisc/cosmos/dss/RP/PREGST/RPORRES> ;
    rdf:_5 <https://w3id.org/cdisc/cosmos/dss/RP/PREGST/RPSTRESC> ;
    rdf:_6 <https://w3id.org/cdisc/cosmos/dss/RP/PREGST/RPDTC> ;
    cosmos_sdtm:biomedicalConceptId NCIT:C106561 ;
    cosmos_sdtm:domain "RP" ;
    cosmos_sdtm:packageDate "2026-05-26"^^xsd:date ;
    cosmos_sdtm:packageType <https://www.cdisc.org/cosmos/sdtm_v1.0/PackageTypeEnum#sdtm> ;
    cosmos_sdtm:sdtmigStartVersion "3-2" ;
    cosmos_sdtm:shortName "Pregnant During the Study" ;
    cosmos_sdtm:source "RP.RPTESTCD" ;
    cosmos_sdtm:variables <https://w3id.org/cdisc/cosmos/dss/RP/PREGST/RPCAT>,
        <https://w3id.org/cdisc/cosmos/dss/RP/PREGST/RPDTC>,
        <https://w3id.org/cdisc/cosmos/dss/RP/PREGST/RPORRES>,
        <https://w3id.org/cdisc/cosmos/dss/RP/PREGST/RPSTRESC>,
        <https://w3id.org/cdisc/cosmos/dss/RP/PREGST/RPTEST>,
        <https://w3id.org/cdisc/cosmos/dss/RP/PREGST/RPTESTCD> .

<https://w3id.org/cdisc/cosmos/dss/RP/PREMBTHN> a cosmos_sdtm:SDTMGroup ;
    dcterms:identifier "PREMBTHN" ;
    rdf:_1 <https://w3id.org/cdisc/cosmos/dss/RP/PREMBTHN/RPTESTCD> ;
    rdf:_2 <https://w3id.org/cdisc/cosmos/dss/RP/PREMBTHN/RPTEST> ;
    rdf:_3 <https://w3id.org/cdisc/cosmos/dss/RP/PREMBTHN/RPCAT> ;
    rdf:_4 <https://w3id.org/cdisc/cosmos/dss/RP/PREMBTHN/RPORRES> ;
    rdf:_5 <https://w3id.org/cdisc/cosmos/dss/RP/PREMBTHN/RPSTRESC> ;
    rdf:_6 <https://w3id.org/cdisc/cosmos/dss/RP/PREMBTHN/RPSTRESN> ;
    rdf:_7 <https://w3id.org/cdisc/cosmos/dss/RP/PREMBTHN/RPDTC> ;
    cosmos_sdtm:biomedicalConceptId NCIT:C122193 ;
    cosmos_sdtm:domain "RP" ;
    cosmos_sdtm:packageDate "2026-05-26"^^xsd:date ;
    cosmos_sdtm:packageType <https://www.cdisc.org/cosmos/sdtm_v1.0/PackageTypeEnum#sdtm> ;
    cosmos_sdtm:sdtmigStartVersion "3-2" ;
    cosmos_sdtm:shortName "Number of Premature Births" ;
    cosmos_sdtm:source "RP.RPTESTCD" ;
    cosmos_sdtm:variables <https://w3id.org/cdisc/cosmos/dss/RP/PREMBTHN/RPCAT>,
        <https://w3id.org/cdisc/cosmos/dss/RP/PREMBTHN/RPDTC>,
        <https://w3id.org/cdisc/cosmos/dss/RP/PREMBTHN/RPORRES>,
        <https://w3id.org/cdisc/cosmos/dss/RP/PREMBTHN/RPSTRESC>,
        <https://w3id.org/cdisc/cosmos/dss/RP/PREMBTHN/RPSTRESN>,
        <https://w3id.org/cdisc/cosmos/dss/RP/PREMBTHN/RPTEST>,
        <https://w3id.org/cdisc/cosmos/dss/RP/PREMBTHN/RPTESTCD> .

<https://w3id.org/cdisc/cosmos/dss/RP/PRGENDTC> a cosmos_sdtm:SDTMGroup ;
    dcterms:identifier "PRGENDTC" ;
    rdf:_1 <https://w3id.org/cdisc/cosmos/dss/RP/PRGENDTC/RPTESTCD> ;
    rdf:_2 <https://w3id.org/cdisc/cosmos/dss/RP/PRGENDTC/RPTEST> ;
    rdf:_3 <https://w3id.org/cdisc/cosmos/dss/RP/PRGENDTC/RPCAT> ;
    rdf:_4 <https://w3id.org/cdisc/cosmos/dss/RP/PRGENDTC/RPORRES> ;
    rdf:_5 <https://w3id.org/cdisc/cosmos/dss/RP/PRGENDTC/RPSTRESC> ;
    rdf:_6 <https://w3id.org/cdisc/cosmos/dss/RP/PRGENDTC/RPDTC> ;
    cosmos_sdtm:biomedicalConceptId NCIT:C163558 ;
    cosmos_sdtm:domain "RP" ;
    cosmos_sdtm:packageDate "2026-05-26"^^xsd:date ;
    cosmos_sdtm:packageType <https://www.cdisc.org/cosmos/sdtm_v1.0/PackageTypeEnum#sdtm> ;
    cosmos_sdtm:sdtmigStartVersion "3-2" ;
    cosmos_sdtm:shortName "Pregnancy End Date" ;
    cosmos_sdtm:source "RP.RPTESTCD" ;
    cosmos_sdtm:variables <https://w3id.org/cdisc/cosmos/dss/RP/PRGENDTC/RPCAT>,
        <https://w3id.org/cdisc/cosmos/dss/RP/PRGENDTC/RPDTC>,
        <https://w3id.org/cdisc/cosmos/dss/RP/PRGENDTC/RPORRES>,
        <https://w3id.org/cdisc/cosmos/dss/RP/PRGENDTC/RPSTRESC>,
        <https://w3id.org/cdisc/cosmos/dss/RP/PRGENDTC/RPTEST>,
        <https://w3id.org/cdisc/cosmos/dss/RP/PRGENDTC/RPTESTCD> .

<https://w3id.org/cdisc/cosmos/dss/RP/PRGOUT> a cosmos_sdtm:SDTMGroup ;
    dcterms:identifier "PRGOUT" ;
    rdf:_1 <https://w3id.org/cdisc/cosmos/dss/RP/PRGOUT/RPTESTCD> ;
    rdf:_2 <https://w3id.org/cdisc/cosmos/dss/RP/PRGOUT/RPTEST> ;
    rdf:_3 <https://w3id.org/cdisc/cosmos/dss/RP/PRGOUT/RPCAT> ;
    rdf:_4 <https://w3id.org/cdisc/cosmos/dss/RP/PRGOUT/RPORRES> ;
    rdf:_5 <https://w3id.org/cdisc/cosmos/dss/RP/PRGOUT/RPSTRESC> ;
    rdf:_6 <https://w3id.org/cdisc/cosmos/dss/RP/PRGOUT/RPDTC> ;
    cosmos_sdtm:biomedicalConceptId NCIT:C90491 ;
    cosmos_sdtm:domain "RP" ;
    cosmos_sdtm:packageDate "2026-05-26"^^xsd:date ;
    cosmos_sdtm:packageType <https://www.cdisc.org/cosmos/sdtm_v1.0/PackageTypeEnum#sdtm> ;
    cosmos_sdtm:sdtmigStartVersion "3-2" ;
    cosmos_sdtm:shortName "Pregnancy Outcome" ;
    cosmos_sdtm:source "RP.RPTESTCD" ;
    cosmos_sdtm:variables <https://w3id.org/cdisc/cosmos/dss/RP/PRGOUT/RPCAT>,
        <https://w3id.org/cdisc/cosmos/dss/RP/PRGOUT/RPDTC>,
        <https://w3id.org/cdisc/cosmos/dss/RP/PRGOUT/RPORRES>,
        <https://w3id.org/cdisc/cosmos/dss/RP/PRGOUT/RPSTRESC>,
        <https://w3id.org/cdisc/cosmos/dss/RP/PRGOUT/RPTEST>,
        <https://w3id.org/cdisc/cosmos/dss/RP/PRGOUT/RPTESTCD> .

<https://w3id.org/cdisc/cosmos/dss/RP/PRVPREGN> a cosmos_sdtm:SDTMGroup ;
    dcterms:identifier "PRVPREGN" ;
    rdf:_1 <https://w3id.org/cdisc/cosmos/dss/RP/PRVPREGN/RPTESTCD> ;
    rdf:_2 <https://w3id.org/cdisc/cosmos/dss/RP/PRVPREGN/RPTEST> ;
    rdf:_3 <https://w3id.org/cdisc/cosmos/dss/RP/PRVPREGN/RPCAT> ;
    rdf:_4 <https://w3id.org/cdisc/cosmos/dss/RP/PRVPREGN/RPORRES> ;
    rdf:_5 <https://w3id.org/cdisc/cosmos/dss/RP/PRVPREGN/RPSTRESC> ;
    rdf:_6 <https://w3id.org/cdisc/cosmos/dss/RP/PRVPREGN/RPSTRESN> ;
    rdf:_7 <https://w3id.org/cdisc/cosmos/dss/RP/PRVPREGN/RPDTC> ;
    cosmos_sdtm:biomedicalConceptId NCIT:C120836 ;
    cosmos_sdtm:domain "RP" ;
    cosmos_sdtm:packageDate "2026-05-26"^^xsd:date ;
    cosmos_sdtm:packageType <https://www.cdisc.org/cosmos/sdtm_v1.0/PackageTypeEnum#sdtm> ;
    cosmos_sdtm:sdtmigStartVersion "3-2" ;
    cosmos_sdtm:shortName "Number of Previous Pregnancies" ;
    cosmos_sdtm:source "RP.RPTESTCD" ;
    cosmos_sdtm:variables <https://w3id.org/cdisc/cosmos/dss/RP/PRVPREGN/RPCAT>,
        <https://w3id.org/cdisc/cosmos/dss/RP/PRVPREGN/RPDTC>,
        <https://w3id.org/cdisc/cosmos/dss/RP/PRVPREGN/RPORRES>,
        <https://w3id.org/cdisc/cosmos/dss/RP/PRVPREGN/RPSTRESC>,
        <https://w3id.org/cdisc/cosmos/dss/RP/PRVPREGN/RPSTRESN>,
        <https://w3id.org/cdisc/cosmos/dss/RP/PRVPREGN/RPTEST>,
        <https://w3id.org/cdisc/cosmos/dss/RP/PRVPREGN/RPTESTCD> .

<https://w3id.org/cdisc/cosmos/dss/RP/PSUSPIND> a cosmos_sdtm:SDTMGroup ;
    dcterms:identifier "PSUSPIND" ;
    rdf:_1 <https://w3id.org/cdisc/cosmos/dss/RP/PSUSPIND/RPTESTCD> ;
    rdf:_2 <https://w3id.org/cdisc/cosmos/dss/RP/PSUSPIND/RPTEST> ;
    rdf:_3 <https://w3id.org/cdisc/cosmos/dss/RP/PSUSPIND/RPCAT> ;
    rdf:_4 <https://w3id.org/cdisc/cosmos/dss/RP/PSUSPIND/RPORRES> ;
    rdf:_5 <https://w3id.org/cdisc/cosmos/dss/RP/PSUSPIND/RPSTRESC> ;
    rdf:_6 <https://w3id.org/cdisc/cosmos/dss/RP/PSUSPIND/RPDTC> ;
    cosmos_sdtm:biomedicalConceptId NCIT:C186213 ;
    cosmos_sdtm:domain "RP" ;
    cosmos_sdtm:packageDate "2026-05-26"^^xsd:date ;
    cosmos_sdtm:packageType <https://www.cdisc.org/cosmos/sdtm_v1.0/PackageTypeEnum#sdtm> ;
    cosmos_sdtm:sdtmigStartVersion "3-2" ;
    cosmos_sdtm:shortName "Pregnancy Suspected Indicator" ;
    cosmos_sdtm:source "RP.RPTESTCD" ;
    cosmos_sdtm:variables <https://w3id.org/cdisc/cosmos/dss/RP/PSUSPIND/RPCAT>,
        <https://w3id.org/cdisc/cosmos/dss/RP/PSUSPIND/RPDTC>,
        <https://w3id.org/cdisc/cosmos/dss/RP/PSUSPIND/RPORRES>,
        <https://w3id.org/cdisc/cosmos/dss/RP/PSUSPIND/RPSTRESC>,
        <https://w3id.org/cdisc/cosmos/dss/RP/PSUSPIND/RPTEST>,
        <https://w3id.org/cdisc/cosmos/dss/RP/PSUSPIND/RPTESTCD> .

<https://w3id.org/cdisc/cosmos/dss/RP/PUSTIND> a cosmos_sdtm:SDTMGroup ;
    dcterms:identifier "PUSTIND" ;
    rdf:_1 <https://w3id.org/cdisc/cosmos/dss/RP/PUSTIND/RPTESTCD> ;
    rdf:_2 <https://w3id.org/cdisc/cosmos/dss/RP/PUSTIND/RPTEST> ;
    rdf:_3 <https://w3id.org/cdisc/cosmos/dss/RP/PUSTIND/RPCAT> ;
    rdf:_4 <https://w3id.org/cdisc/cosmos/dss/RP/PUSTIND/RPORRES> ;
    rdf:_5 <https://w3id.org/cdisc/cosmos/dss/RP/PUSTIND/RPSTRESC> ;
    rdf:_6 <https://w3id.org/cdisc/cosmos/dss/RP/PUSTIND/RPLOC> ;
    rdf:_7 <https://w3id.org/cdisc/cosmos/dss/RP/PUSTIND/RPLAT> ;
    rdf:_8 <https://w3id.org/cdisc/cosmos/dss/RP/PUSTIND/RPDTC> ;
    cosmos_sdtm:biomedicalConceptId NCIT:C154882 ;
    cosmos_sdtm:domain "RP" ;
    cosmos_sdtm:packageDate "2026-05-26"^^xsd:date ;
    cosmos_sdtm:packageType <https://www.cdisc.org/cosmos/sdtm_v1.0/PackageTypeEnum#sdtm> ;
    cosmos_sdtm:sdtmigStartVersion "3-2" ;
    cosmos_sdtm:shortName "Pustule Indicator" ;
    cosmos_sdtm:source "RP.RPTESTCD" ;
    cosmos_sdtm:variables <https://w3id.org/cdisc/cosmos/dss/RP/PUSTIND/RPCAT>,
        <https://w3id.org/cdisc/cosmos/dss/RP/PUSTIND/RPDTC>,
        <https://w3id.org/cdisc/cosmos/dss/RP/PUSTIND/RPLAT>,
        <https://w3id.org/cdisc/cosmos/dss/RP/PUSTIND/RPLOC>,
        <https://w3id.org/cdisc/cosmos/dss/RP/PUSTIND/RPORRES>,
        <https://w3id.org/cdisc/cosmos/dss/RP/PUSTIND/RPSTRESC>,
        <https://w3id.org/cdisc/cosmos/dss/RP/PUSTIND/RPTEST>,
        <https://w3id.org/cdisc/cosmos/dss/RP/PUSTIND/RPTESTCD> .

<https://w3id.org/cdisc/cosmos/dss/RP/RASHIND> a cosmos_sdtm:SDTMGroup ;
    dcterms:identifier "RASHIND" ;
    rdf:_1 <https://w3id.org/cdisc/cosmos/dss/RP/RASHIND/RPTESTCD> ;
    rdf:_2 <https://w3id.org/cdisc/cosmos/dss/RP/RASHIND/RPTEST> ;
    rdf:_3 <https://w3id.org/cdisc/cosmos/dss/RP/RASHIND/RPCAT> ;
    rdf:_4 <https://w3id.org/cdisc/cosmos/dss/RP/RASHIND/RPORRES> ;
    rdf:_5 <https://w3id.org/cdisc/cosmos/dss/RP/RASHIND/RPSTRESC> ;
    rdf:_6 <https://w3id.org/cdisc/cosmos/dss/RP/RASHIND/RPLOC> ;
    rdf:_7 <https://w3id.org/cdisc/cosmos/dss/RP/RASHIND/RPLAT> ;
    rdf:_8 <https://w3id.org/cdisc/cosmos/dss/RP/RASHIND/RPDTC> ;
    cosmos_sdtm:biomedicalConceptId NCIT:C154878 ;
    cosmos_sdtm:domain "RP" ;
    cosmos_sdtm:packageDate "2026-05-26"^^xsd:date ;
    cosmos_sdtm:packageType <https://www.cdisc.org/cosmos/sdtm_v1.0/PackageTypeEnum#sdtm> ;
    cosmos_sdtm:sdtmigStartVersion "3-2" ;
    cosmos_sdtm:shortName "Rash Indicator" ;
    cosmos_sdtm:source "RP.RPTESTCD" ;
    cosmos_sdtm:variables <https://w3id.org/cdisc/cosmos/dss/RP/RASHIND/RPCAT>,
        <https://w3id.org/cdisc/cosmos/dss/RP/RASHIND/RPDTC>,
        <https://w3id.org/cdisc/cosmos/dss/RP/RASHIND/RPLAT>,
        <https://w3id.org/cdisc/cosmos/dss/RP/RASHIND/RPLOC>,
        <https://w3id.org/cdisc/cosmos/dss/RP/RASHIND/RPORRES>,
        <https://w3id.org/cdisc/cosmos/dss/RP/RASHIND/RPSTRESC>,
        <https://w3id.org/cdisc/cosmos/dss/RP/RASHIND/RPTEST>,
        <https://w3id.org/cdisc/cosmos/dss/RP/RASHIND/RPTESTCD> .

<https://w3id.org/cdisc/cosmos/dss/RP/SCBFCIND> a cosmos_sdtm:SDTMGroup ;
    dcterms:identifier "SCBFCIND" ;
    rdf:_1 <https://w3id.org/cdisc/cosmos/dss/RP/SCBFCIND/RPTESTCD> ;
    rdf:_2 <https://w3id.org/cdisc/cosmos/dss/RP/SCBFCIND/RPTEST> ;
    rdf:_3 <https://w3id.org/cdisc/cosmos/dss/RP/SCBFCIND/RPCAT> ;
    rdf:_4 <https://w3id.org/cdisc/cosmos/dss/RP/SCBFCIND/RPORRES> ;
    rdf:_5 <https://w3id.org/cdisc/cosmos/dss/RP/SCBFCIND/RPSTRESC> ;
    rdf:_6 <https://w3id.org/cdisc/cosmos/dss/RP/SCBFCIND/RPDTC> ;
    cosmos_sdtm:biomedicalConceptId NCIT:C189360 ;
    cosmos_sdtm:domain "RP" ;
    cosmos_sdtm:packageDate "2026-05-26"^^xsd:date ;
    cosmos_sdtm:packageType <https://www.cdisc.org/cosmos/sdtm_v1.0/PackageTypeEnum#sdtm> ;
    cosmos_sdtm:sdtmigStartVersion "3-2" ;
    cosmos_sdtm:shortName "Subject Currently Breastfeeding a Child Indicator" ;
    cosmos_sdtm:source "RP.RPTESTCD" ;
    cosmos_sdtm:variables <https://w3id.org/cdisc/cosmos/dss/RP/SCBFCIND/RPCAT>,
        <https://w3id.org/cdisc/cosmos/dss/RP/SCBFCIND/RPDTC>,
        <https://w3id.org/cdisc/cosmos/dss/RP/SCBFCIND/RPORRES>,
        <https://w3id.org/cdisc/cosmos/dss/RP/SCBFCIND/RPSTRESC>,
        <https://w3id.org/cdisc/cosmos/dss/RP/SCBFCIND/RPTEST>,
        <https://w3id.org/cdisc/cosmos/dss/RP/SCBFCIND/RPTESTCD> .

<https://w3id.org/cdisc/cosmos/dss/RP/SEXABDUR> a cosmos_sdtm:SDTMGroup ;
    dcterms:identifier "SEXABDUR" ;
    rdf:_1 <https://w3id.org/cdisc/cosmos/dss/RP/SEXABDUR/RPTESTCD> ;
    rdf:_2 <https://w3id.org/cdisc/cosmos/dss/RP/SEXABDUR/RPTEST> ;
    rdf:_3 <https://w3id.org/cdisc/cosmos/dss/RP/SEXABDUR/RPCAT> ;
    rdf:_4 <https://w3id.org/cdisc/cosmos/dss/RP/SEXABDUR/RPORRES> ;
    rdf:_5 <https://w3id.org/cdisc/cosmos/dss/RP/SEXABDUR/RPORRESU> ;
    rdf:_6 <https://w3id.org/cdisc/cosmos/dss/RP/SEXABDUR/RPSTRESC> ;
    rdf:_7 <https://w3id.org/cdisc/cosmos/dss/RP/SEXABDUR/RPSTRESN> ;
    rdf:_8 <https://w3id.org/cdisc/cosmos/dss/RP/SEXABDUR/RPSTRESU> ;
    rdf:_9 <https://w3id.org/cdisc/cosmos/dss/RP/SEXABDUR/RPDTC> ;
    cosmos_sdtm:biomedicalConceptId NCIT:C189357 ;
    cosmos_sdtm:domain "RP" ;
    cosmos_sdtm:packageDate "2026-05-26"^^xsd:date ;
    cosmos_sdtm:packageType <https://www.cdisc.org/cosmos/sdtm_v1.0/PackageTypeEnum#sdtm> ;
    cosmos_sdtm:sdtmigStartVersion "3-2" ;
    cosmos_sdtm:shortName "Duration of Sexual Abstinence" ;
    cosmos_sdtm:source "RP.RPTESTCD" ;
    cosmos_sdtm:variables <https://w3id.org/cdisc/cosmos/dss/RP/SEXABDUR/RPCAT>,
        <https://w3id.org/cdisc/cosmos/dss/RP/SEXABDUR/RPDTC>,
        <https://w3id.org/cdisc/cosmos/dss/RP/SEXABDUR/RPORRES>,
        <https://w3id.org/cdisc/cosmos/dss/RP/SEXABDUR/RPORRESU>,
        <https://w3id.org/cdisc/cosmos/dss/RP/SEXABDUR/RPSTRESC>,
        <https://w3id.org/cdisc/cosmos/dss/RP/SEXABDUR/RPSTRESN>,
        <https://w3id.org/cdisc/cosmos/dss/RP/SEXABDUR/RPSTRESU>,
        <https://w3id.org/cdisc/cosmos/dss/RP/SEXABDUR/RPTEST>,
        <https://w3id.org/cdisc/cosmos/dss/RP/SEXABDUR/RPTESTCD> .

<https://w3id.org/cdisc/cosmos/dss/RP/SKGLAIND> a cosmos_sdtm:SDTMGroup ;
    dcterms:identifier "SKGLAIND" ;
    rdf:_1 <https://w3id.org/cdisc/cosmos/dss/RP/SKGLAIND/RPTESTCD> ;
    rdf:_2 <https://w3id.org/cdisc/cosmos/dss/RP/SKGLAIND/RPTEST> ;
    rdf:_3 <https://w3id.org/cdisc/cosmos/dss/RP/SKGLAIND/RPCAT> ;
    rdf:_4 <https://w3id.org/cdisc/cosmos/dss/RP/SKGLAIND/RPORRES> ;
    rdf:_5 <https://w3id.org/cdisc/cosmos/dss/RP/SKGLAIND/RPSTRESC> ;
    rdf:_6 <https://w3id.org/cdisc/cosmos/dss/RP/SKGLAIND/RPDTC> ;
    cosmos_sdtm:biomedicalConceptId NCIT:C154879 ;
    cosmos_sdtm:domain "RP" ;
    cosmos_sdtm:packageDate "2026-05-26"^^xsd:date ;
    cosmos_sdtm:packageType <https://www.cdisc.org/cosmos/sdtm_v1.0/PackageTypeEnum#sdtm> ;
    cosmos_sdtm:sdtmigStartVersion "3-2" ;
    cosmos_sdtm:shortName "Skene's Gland Abnormality Indicator" ;
    cosmos_sdtm:source "RP.RPTESTCD" ;
    cosmos_sdtm:variables <https://w3id.org/cdisc/cosmos/dss/RP/SKGLAIND/RPCAT>,
        <https://w3id.org/cdisc/cosmos/dss/RP/SKGLAIND/RPDTC>,
        <https://w3id.org/cdisc/cosmos/dss/RP/SKGLAIND/RPORRES>,
        <https://w3id.org/cdisc/cosmos/dss/RP/SKGLAIND/RPSTRESC>,
        <https://w3id.org/cdisc/cosmos/dss/RP/SKGLAIND/RPTEST>,
        <https://w3id.org/cdisc/cosmos/dss/RP/SKGLAIND/RPTESTCD> .

<https://w3id.org/cdisc/cosmos/dss/RP/SPABORTN> a cosmos_sdtm:SDTMGroup ;
    dcterms:identifier "SPABORTN" ;
    rdf:_1 <https://w3id.org/cdisc/cosmos/dss/RP/SPABORTN/RPTESTCD> ;
    rdf:_2 <https://w3id.org/cdisc/cosmos/dss/RP/SPABORTN/RPTEST> ;
    rdf:_3 <https://w3id.org/cdisc/cosmos/dss/RP/SPABORTN/RPCAT> ;
    rdf:_4 <https://w3id.org/cdisc/cosmos/dss/RP/SPABORTN/RPORRES> ;
    rdf:_5 <https://w3id.org/cdisc/cosmos/dss/RP/SPABORTN/RPSTRESC> ;
    rdf:_6 <https://w3id.org/cdisc/cosmos/dss/RP/SPABORTN/RPSTRESN> ;
    rdf:_7 <https://w3id.org/cdisc/cosmos/dss/RP/SPABORTN/RPDTC> ;
    cosmos_sdtm:biomedicalConceptId NCIT:C120837 ;
    cosmos_sdtm:domain "RP" ;
    cosmos_sdtm:packageDate "2026-05-26"^^xsd:date ;
    cosmos_sdtm:packageType <https://www.cdisc.org/cosmos/sdtm_v1.0/PackageTypeEnum#sdtm> ;
    cosmos_sdtm:sdtmigStartVersion "3-2" ;
    cosmos_sdtm:shortName "Number of Spontaneous Abortions" ;
    cosmos_sdtm:source "RP.RPTESTCD" ;
    cosmos_sdtm:variables <https://w3id.org/cdisc/cosmos/dss/RP/SPABORTN/RPCAT>,
        <https://w3id.org/cdisc/cosmos/dss/RP/SPABORTN/RPDTC>,
        <https://w3id.org/cdisc/cosmos/dss/RP/SPABORTN/RPORRES>,
        <https://w3id.org/cdisc/cosmos/dss/RP/SPABORTN/RPSTRESC>,
        <https://w3id.org/cdisc/cosmos/dss/RP/SPABORTN/RPSTRESN>,
        <https://w3id.org/cdisc/cosmos/dss/RP/SPABORTN/RPTEST>,
        <https://w3id.org/cdisc/cosmos/dss/RP/SPABORTN/RPTESTCD> .

<https://w3id.org/cdisc/cosmos/dss/RP/SRGSTIND> a cosmos_sdtm:SDTMGroup ;
    dcterms:identifier "SRGSTIND" ;
    rdf:_1 <https://w3id.org/cdisc/cosmos/dss/RP/SRGSTIND/RPTESTCD> ;
    rdf:_2 <https://w3id.org/cdisc/cosmos/dss/RP/SRGSTIND/RPTEST> ;
    rdf:_3 <https://w3id.org/cdisc/cosmos/dss/RP/SRGSTIND/RPCAT> ;
    rdf:_4 <https://w3id.org/cdisc/cosmos/dss/RP/SRGSTIND/RPORRES> ;
    rdf:_5 <https://w3id.org/cdisc/cosmos/dss/RP/SRGSTIND/RPSTRESC> ;
    rdf:_6 <https://w3id.org/cdisc/cosmos/dss/RP/SRGSTIND/RPDTC> ;
    cosmos_sdtm:biomedicalConceptId NCIT:C189355 ;
    cosmos_sdtm:domain "RP" ;
    cosmos_sdtm:packageDate "2026-05-26"^^xsd:date ;
    cosmos_sdtm:packageType <https://www.cdisc.org/cosmos/sdtm_v1.0/PackageTypeEnum#sdtm> ;
    cosmos_sdtm:sdtmigStartVersion "3-2" ;
    cosmos_sdtm:shortName "Individual Surgically Sterile Indicator" ;
    cosmos_sdtm:source "RP.RPTESTCD" ;
    cosmos_sdtm:variables <https://w3id.org/cdisc/cosmos/dss/RP/SRGSTIND/RPCAT>,
        <https://w3id.org/cdisc/cosmos/dss/RP/SRGSTIND/RPDTC>,
        <https://w3id.org/cdisc/cosmos/dss/RP/SRGSTIND/RPORRES>,
        <https://w3id.org/cdisc/cosmos/dss/RP/SRGSTIND/RPSTRESC>,
        <https://w3id.org/cdisc/cosmos/dss/RP/SRGSTIND/RPTEST>,
        <https://w3id.org/cdisc/cosmos/dss/RP/SRGSTIND/RPTESTCD> .

<https://w3id.org/cdisc/cosmos/dss/RP/STILBIND> a cosmos_sdtm:SDTMGroup ;
    dcterms:identifier "STILBIND" ;
    rdf:_1 <https://w3id.org/cdisc/cosmos/dss/RP/STILBIND/RPTESTCD> ;
    rdf:_2 <https://w3id.org/cdisc/cosmos/dss/RP/STILBIND/RPTEST> ;
    rdf:_3 <https://w3id.org/cdisc/cosmos/dss/RP/STILBIND/RPCAT> ;
    rdf:_4 <https://w3id.org/cdisc/cosmos/dss/RP/STILBIND/RPORRES> ;
    rdf:_5 <https://w3id.org/cdisc/cosmos/dss/RP/STILBIND/RPSTRESC> ;
    rdf:_6 <https://w3id.org/cdisc/cosmos/dss/RP/STILBIND/RPDTC> ;
    cosmos_sdtm:biomedicalConceptId NCIT:C122194 ;
    cosmos_sdtm:domain "RP" ;
    cosmos_sdtm:packageDate "2026-05-26"^^xsd:date ;
    cosmos_sdtm:packageType <https://www.cdisc.org/cosmos/sdtm_v1.0/PackageTypeEnum#sdtm> ;
    cosmos_sdtm:sdtmigStartVersion "3-2" ;
    cosmos_sdtm:shortName "Stillbirth Indicator" ;
    cosmos_sdtm:source "RP.RPTESTCD" ;
    cosmos_sdtm:variables <https://w3id.org/cdisc/cosmos/dss/RP/STILBIND/RPCAT>,
        <https://w3id.org/cdisc/cosmos/dss/RP/STILBIND/RPDTC>,
        <https://w3id.org/cdisc/cosmos/dss/RP/STILBIND/RPORRES>,
        <https://w3id.org/cdisc/cosmos/dss/RP/STILBIND/RPSTRESC>,
        <https://w3id.org/cdisc/cosmos/dss/RP/STILBIND/RPTEST>,
        <https://w3id.org/cdisc/cosmos/dss/RP/STILBIND/RPTESTCD> .

<https://w3id.org/cdisc/cosmos/dss/RP/SXPRTFN> a cosmos_sdtm:SDTMGroup ;
    dcterms:identifier "SXPRTFN" ;
    rdf:_1 <https://w3id.org/cdisc/cosmos/dss/RP/SXPRTFN/RPTESTCD> ;
    rdf:_2 <https://w3id.org/cdisc/cosmos/dss/RP/SXPRTFN/RPTEST> ;
    rdf:_3 <https://w3id.org/cdisc/cosmos/dss/RP/SXPRTFN/RPCAT> ;
    rdf:_4 <https://w3id.org/cdisc/cosmos/dss/RP/SXPRTFN/RPORRES> ;
    rdf:_5 <https://w3id.org/cdisc/cosmos/dss/RP/SXPRTFN/RPSTRESC> ;
    rdf:_6 <https://w3id.org/cdisc/cosmos/dss/RP/SXPRTFN/RPSTRESN> ;
    rdf:_7 <https://w3id.org/cdisc/cosmos/dss/RP/SXPRTFN/RPDTC> ;
    cosmos_sdtm:biomedicalConceptId NCIT:C201478 ;
    cosmos_sdtm:domain "RP" ;
    cosmos_sdtm:packageDate "2026-05-26"^^xsd:date ;
    cosmos_sdtm:packageType <https://www.cdisc.org/cosmos/sdtm_v1.0/PackageTypeEnum#sdtm> ;
    cosmos_sdtm:sdtmigStartVersion "3-2" ;
    cosmos_sdtm:shortName "Number of Female Sexual Partners" ;
    cosmos_sdtm:source "RP.RPTESTCD" ;
    cosmos_sdtm:variables <https://w3id.org/cdisc/cosmos/dss/RP/SXPRTFN/RPCAT>,
        <https://w3id.org/cdisc/cosmos/dss/RP/SXPRTFN/RPDTC>,
        <https://w3id.org/cdisc/cosmos/dss/RP/SXPRTFN/RPORRES>,
        <https://w3id.org/cdisc/cosmos/dss/RP/SXPRTFN/RPSTRESC>,
        <https://w3id.org/cdisc/cosmos/dss/RP/SXPRTFN/RPSTRESN>,
        <https://w3id.org/cdisc/cosmos/dss/RP/SXPRTFN/RPTEST>,
        <https://w3id.org/cdisc/cosmos/dss/RP/SXPRTFN/RPTESTCD> .

<https://w3id.org/cdisc/cosmos/dss/RP/SXPRTMN> a cosmos_sdtm:SDTMGroup ;
    dcterms:identifier "SXPRTMN" ;
    rdf:_1 <https://w3id.org/cdisc/cosmos/dss/RP/SXPRTMN/RPTESTCD> ;
    rdf:_2 <https://w3id.org/cdisc/cosmos/dss/RP/SXPRTMN/RPTEST> ;
    rdf:_3 <https://w3id.org/cdisc/cosmos/dss/RP/SXPRTMN/RPCAT> ;
    rdf:_4 <https://w3id.org/cdisc/cosmos/dss/RP/SXPRTMN/RPORRES> ;
    rdf:_5 <https://w3id.org/cdisc/cosmos/dss/RP/SXPRTMN/RPSTRESC> ;
    rdf:_6 <https://w3id.org/cdisc/cosmos/dss/RP/SXPRTMN/RPSTRESN> ;
    rdf:_7 <https://w3id.org/cdisc/cosmos/dss/RP/SXPRTMN/RPDTC> ;
    cosmos_sdtm:biomedicalConceptId NCIT:C201477 ;
    cosmos_sdtm:domain "RP" ;
    cosmos_sdtm:packageDate "2026-05-26"^^xsd:date ;
    cosmos_sdtm:packageType <https://www.cdisc.org/cosmos/sdtm_v1.0/PackageTypeEnum#sdtm> ;
    cosmos_sdtm:sdtmigStartVersion "3-2" ;
    cosmos_sdtm:shortName "Number of Male Sexual Partners" ;
    cosmos_sdtm:source "RP.RPTESTCD" ;
    cosmos_sdtm:variables <https://w3id.org/cdisc/cosmos/dss/RP/SXPRTMN/RPCAT>,
        <https://w3id.org/cdisc/cosmos/dss/RP/SXPRTMN/RPDTC>,
        <https://w3id.org/cdisc/cosmos/dss/RP/SXPRTMN/RPORRES>,
        <https://w3id.org/cdisc/cosmos/dss/RP/SXPRTMN/RPSTRESC>,
        <https://w3id.org/cdisc/cosmos/dss/RP/SXPRTMN/RPSTRESN>,
        <https://w3id.org/cdisc/cosmos/dss/RP/SXPRTMN/RPTEST>,
        <https://w3id.org/cdisc/cosmos/dss/RP/SXPRTMN/RPTESTCD> .

<https://w3id.org/cdisc/cosmos/dss/RP/SXPRTNFN> a cosmos_sdtm:SDTMGroup ;
    dcterms:identifier "SXPRTNFN" ;
    rdf:_1 <https://w3id.org/cdisc/cosmos/dss/RP/SXPRTNFN/RPTESTCD> ;
    rdf:_2 <https://w3id.org/cdisc/cosmos/dss/RP/SXPRTNFN/RPTEST> ;
    rdf:_3 <https://w3id.org/cdisc/cosmos/dss/RP/SXPRTNFN/RPCAT> ;
    rdf:_4 <https://w3id.org/cdisc/cosmos/dss/RP/SXPRTNFN/RPORRES> ;
    rdf:_5 <https://w3id.org/cdisc/cosmos/dss/RP/SXPRTNFN/RPSTRESC> ;
    rdf:_6 <https://w3id.org/cdisc/cosmos/dss/RP/SXPRTNFN/RPSTRESN> ;
    rdf:_7 <https://w3id.org/cdisc/cosmos/dss/RP/SXPRTNFN/RPDTC> ;
    cosmos_sdtm:biomedicalConceptId NCIT:C201475 ;
    cosmos_sdtm:domain "RP" ;
    cosmos_sdtm:packageDate "2026-05-26"^^xsd:date ;
    cosmos_sdtm:packageType <https://www.cdisc.org/cosmos/sdtm_v1.0/PackageTypeEnum#sdtm> ;
    cosmos_sdtm:sdtmigStartVersion "3-2" ;
    cosmos_sdtm:shortName "Number of New Female Sexual Partners" ;
    cosmos_sdtm:source "RP.RPTESTCD" ;
    cosmos_sdtm:variables <https://w3id.org/cdisc/cosmos/dss/RP/SXPRTNFN/RPCAT>,
        <https://w3id.org/cdisc/cosmos/dss/RP/SXPRTNFN/RPDTC>,
        <https://w3id.org/cdisc/cosmos/dss/RP/SXPRTNFN/RPORRES>,
        <https://w3id.org/cdisc/cosmos/dss/RP/SXPRTNFN/RPSTRESC>,
        <https://w3id.org/cdisc/cosmos/dss/RP/SXPRTNFN/RPSTRESN>,
        <https://w3id.org/cdisc/cosmos/dss/RP/SXPRTNFN/RPTEST>,
        <https://w3id.org/cdisc/cosmos/dss/RP/SXPRTNFN/RPTESTCD> .

<https://w3id.org/cdisc/cosmos/dss/RP/SXPRTNMN> a cosmos_sdtm:SDTMGroup ;
    dcterms:identifier "SXPRTNMN" ;
    rdf:_1 <https://w3id.org/cdisc/cosmos/dss/RP/SXPRTNMN/RPTESTCD> ;
    rdf:_2 <https://w3id.org/cdisc/cosmos/dss/RP/SXPRTNMN/RPTEST> ;
    rdf:_3 <https://w3id.org/cdisc/cosmos/dss/RP/SXPRTNMN/RPCAT> ;
    rdf:_4 <https://w3id.org/cdisc/cosmos/dss/RP/SXPRTNMN/RPORRES> ;
    rdf:_5 <https://w3id.org/cdisc/cosmos/dss/RP/SXPRTNMN/RPSTRESC> ;
    rdf:_6 <https://w3id.org/cdisc/cosmos/dss/RP/SXPRTNMN/RPSTRESN> ;
    rdf:_7 <https://w3id.org/cdisc/cosmos/dss/RP/SXPRTNMN/RPDTC> ;
    cosmos_sdtm:biomedicalConceptId NCIT:C201474 ;
    cosmos_sdtm:domain "RP" ;
    cosmos_sdtm:packageDate "2026-05-26"^^xsd:date ;
    cosmos_sdtm:packageType <https://www.cdisc.org/cosmos/sdtm_v1.0/PackageTypeEnum#sdtm> ;
    cosmos_sdtm:sdtmigStartVersion "3-2" ;
    cosmos_sdtm:shortName "Number of New Male Sexual Partners" ;
    cosmos_sdtm:source "RP.RPTESTCD" ;
    cosmos_sdtm:variables <https://w3id.org/cdisc/cosmos/dss/RP/SXPRTNMN/RPCAT>,
        <https://w3id.org/cdisc/cosmos/dss/RP/SXPRTNMN/RPDTC>,
        <https://w3id.org/cdisc/cosmos/dss/RP/SXPRTNMN/RPORRES>,
        <https://w3id.org/cdisc/cosmos/dss/RP/SXPRTNMN/RPSTRESC>,
        <https://w3id.org/cdisc/cosmos/dss/RP/SXPRTNMN/RPSTRESN>,
        <https://w3id.org/cdisc/cosmos/dss/RP/SXPRTNMN/RPTEST>,
        <https://w3id.org/cdisc/cosmos/dss/RP/SXPRTNMN/RPTESTCD> .

<https://w3id.org/cdisc/cosmos/dss/RP/SXPRTNON> a cosmos_sdtm:SDTMGroup ;
    dcterms:identifier "SXPRTNON" ;
    rdf:_1 <https://w3id.org/cdisc/cosmos/dss/RP/SXPRTNON/RPTESTCD> ;
    rdf:_2 <https://w3id.org/cdisc/cosmos/dss/RP/SXPRTNON/RPTEST> ;
    rdf:_3 <https://w3id.org/cdisc/cosmos/dss/RP/SXPRTNON/RPCAT> ;
    rdf:_4 <https://w3id.org/cdisc/cosmos/dss/RP/SXPRTNON/RPORRES> ;
    rdf:_5 <https://w3id.org/cdisc/cosmos/dss/RP/SXPRTNON/RPSTRESC> ;
    rdf:_6 <https://w3id.org/cdisc/cosmos/dss/RP/SXPRTNON/RPSTRESN> ;
    rdf:_7 <https://w3id.org/cdisc/cosmos/dss/RP/SXPRTNON/RPDTC> ;
    cosmos_sdtm:biomedicalConceptId NCIT:C201476 ;
    cosmos_sdtm:domain "RP" ;
    cosmos_sdtm:packageDate "2026-05-26"^^xsd:date ;
    cosmos_sdtm:packageType <https://www.cdisc.org/cosmos/sdtm_v1.0/PackageTypeEnum#sdtm> ;
    cosmos_sdtm:sdtmigStartVersion "3-2" ;
    cosmos_sdtm:shortName "Number of New Oral Sexual Partners" ;
    cosmos_sdtm:source "RP.RPTESTCD" ;
    cosmos_sdtm:variables <https://w3id.org/cdisc/cosmos/dss/RP/SXPRTNON/RPCAT>,
        <https://w3id.org/cdisc/cosmos/dss/RP/SXPRTNON/RPDTC>,
        <https://w3id.org/cdisc/cosmos/dss/RP/SXPRTNON/RPORRES>,
        <https://w3id.org/cdisc/cosmos/dss/RP/SXPRTNON/RPSTRESC>,
        <https://w3id.org/cdisc/cosmos/dss/RP/SXPRTNON/RPSTRESN>,
        <https://w3id.org/cdisc/cosmos/dss/RP/SXPRTNON/RPTEST>,
        <https://w3id.org/cdisc/cosmos/dss/RP/SXPRTNON/RPTESTCD> .

<https://w3id.org/cdisc/cosmos/dss/RP/SXPRTON> a cosmos_sdtm:SDTMGroup ;
    dcterms:identifier "SXPRTON" ;
    rdf:_1 <https://w3id.org/cdisc/cosmos/dss/RP/SXPRTON/RPTESTCD> ;
    rdf:_2 <https://w3id.org/cdisc/cosmos/dss/RP/SXPRTON/RPTEST> ;
    rdf:_3 <https://w3id.org/cdisc/cosmos/dss/RP/SXPRTON/RPCAT> ;
    rdf:_4 <https://w3id.org/cdisc/cosmos/dss/RP/SXPRTON/RPORRES> ;
    rdf:_5 <https://w3id.org/cdisc/cosmos/dss/RP/SXPRTON/RPSTRESC> ;
    rdf:_6 <https://w3id.org/cdisc/cosmos/dss/RP/SXPRTON/RPSTRESN> ;
    rdf:_7 <https://w3id.org/cdisc/cosmos/dss/RP/SXPRTON/RPDTC> ;
    cosmos_sdtm:biomedicalConceptId NCIT:C201479 ;
    cosmos_sdtm:domain "RP" ;
    cosmos_sdtm:packageDate "2026-05-26"^^xsd:date ;
    cosmos_sdtm:packageType <https://www.cdisc.org/cosmos/sdtm_v1.0/PackageTypeEnum#sdtm> ;
    cosmos_sdtm:sdtmigStartVersion "3-2" ;
    cosmos_sdtm:shortName "Number of Oral Sexual Partners" ;
    cosmos_sdtm:source "RP.RPTESTCD" ;
    cosmos_sdtm:variables <https://w3id.org/cdisc/cosmos/dss/RP/SXPRTON/RPCAT>,
        <https://w3id.org/cdisc/cosmos/dss/RP/SXPRTON/RPDTC>,
        <https://w3id.org/cdisc/cosmos/dss/RP/SXPRTON/RPORRES>,
        <https://w3id.org/cdisc/cosmos/dss/RP/SXPRTON/RPSTRESC>,
        <https://w3id.org/cdisc/cosmos/dss/RP/SXPRTON/RPSTRESN>,
        <https://w3id.org/cdisc/cosmos/dss/RP/SXPRTON/RPTEST>,
        <https://w3id.org/cdisc/cosmos/dss/RP/SXPRTON/RPTESTCD> .

<https://w3id.org/cdisc/cosmos/dss/RP/THICK> a cosmos_sdtm:SDTMGroup ;
    dcterms:identifier "THICK" ;
    rdf:_1 <https://w3id.org/cdisc/cosmos/dss/RP/THICK/RPTESTCD> ;
    rdf:_2 <https://w3id.org/cdisc/cosmos/dss/RP/THICK/RPTEST> ;
    rdf:_3 <https://w3id.org/cdisc/cosmos/dss/RP/THICK/RPCAT> ;
    rdf:_4 <https://w3id.org/cdisc/cosmos/dss/RP/THICK/RPORRES> ;
    rdf:_5 <https://w3id.org/cdisc/cosmos/dss/RP/THICK/RPSTRESC> ;
    rdf:_6 <https://w3id.org/cdisc/cosmos/dss/RP/THICK/RPSTRESN> ;
    rdf:_7 <https://w3id.org/cdisc/cosmos/dss/RP/THICK/RPDTC> ;
    cosmos_sdtm:biomedicalConceptId NCIT:C41145 ;
    cosmos_sdtm:domain "RP" ;
    cosmos_sdtm:packageDate "2026-05-26"^^xsd:date ;
    cosmos_sdtm:packageType <https://www.cdisc.org/cosmos/sdtm_v1.0/PackageTypeEnum#sdtm> ;
    cosmos_sdtm:sdtmigStartVersion "3-2" ;
    cosmos_sdtm:shortName "Thickness" ;
    cosmos_sdtm:source "RP.RPTESTCD" ;
    cosmos_sdtm:variables <https://w3id.org/cdisc/cosmos/dss/RP/THICK/RPCAT>,
        <https://w3id.org/cdisc/cosmos/dss/RP/THICK/RPDTC>,
        <https://w3id.org/cdisc/cosmos/dss/RP/THICK/RPORRES>,
        <https://w3id.org/cdisc/cosmos/dss/RP/THICK/RPSTRESC>,
        <https://w3id.org/cdisc/cosmos/dss/RP/THICK/RPSTRESN>,
        <https://w3id.org/cdisc/cosmos/dss/RP/THICK/RPTEST>,
        <https://w3id.org/cdisc/cosmos/dss/RP/THICK/RPTESTCD> .

<https://w3id.org/cdisc/cosmos/dss/RP/THLARAGE> a cosmos_sdtm:SDTMGroup ;
    dcterms:identifier "THLARAGE" ;
    rdf:_1 <https://w3id.org/cdisc/cosmos/dss/RP/THLARAGE/RPTESTCD> ;
    rdf:_2 <https://w3id.org/cdisc/cosmos/dss/RP/THLARAGE/RPTEST> ;
    rdf:_3 <https://w3id.org/cdisc/cosmos/dss/RP/THLARAGE/RPCAT> ;
    rdf:_4 <https://w3id.org/cdisc/cosmos/dss/RP/THLARAGE/RPORRES> ;
    rdf:_5 <https://w3id.org/cdisc/cosmos/dss/RP/THLARAGE/RPSTRESC> ;
    rdf:_6 <https://w3id.org/cdisc/cosmos/dss/RP/THLARAGE/RPSTRESN> ;
    rdf:_7 <https://w3id.org/cdisc/cosmos/dss/RP/THLARAGE/RPDTC> ;
    cosmos_sdtm:biomedicalConceptId NCIT:C189361 ;
    cosmos_sdtm:domain "RP" ;
    cosmos_sdtm:packageDate "2026-05-26"^^xsd:date ;
    cosmos_sdtm:packageType <https://www.cdisc.org/cosmos/sdtm_v1.0/PackageTypeEnum#sdtm> ;
    cosmos_sdtm:sdtmigStartVersion "3-2" ;
    cosmos_sdtm:shortName "Thelarche Age" ;
    cosmos_sdtm:source "RP.RPTESTCD" ;
    cosmos_sdtm:variables <https://w3id.org/cdisc/cosmos/dss/RP/THLARAGE/RPCAT>,
        <https://w3id.org/cdisc/cosmos/dss/RP/THLARAGE/RPDTC>,
        <https://w3id.org/cdisc/cosmos/dss/RP/THLARAGE/RPORRES>,
        <https://w3id.org/cdisc/cosmos/dss/RP/THLARAGE/RPSTRESC>,
        <https://w3id.org/cdisc/cosmos/dss/RP/THLARAGE/RPSTRESN>,
        <https://w3id.org/cdisc/cosmos/dss/RP/THLARAGE/RPTEST>,
        <https://w3id.org/cdisc/cosmos/dss/RP/THLARAGE/RPTESTCD> .

<https://w3id.org/cdisc/cosmos/dss/RP/TNDRIND> a cosmos_sdtm:SDTMGroup ;
    dcterms:identifier "TNDRIND" ;
    rdf:_1 <https://w3id.org/cdisc/cosmos/dss/RP/TNDRIND/RPTESTCD> ;
    rdf:_2 <https://w3id.org/cdisc/cosmos/dss/RP/TNDRIND/RPTEST> ;
    rdf:_3 <https://w3id.org/cdisc/cosmos/dss/RP/TNDRIND/RPCAT> ;
    rdf:_4 <https://w3id.org/cdisc/cosmos/dss/RP/TNDRIND/RPORRES> ;
    rdf:_5 <https://w3id.org/cdisc/cosmos/dss/RP/TNDRIND/RPSTRESC> ;
    rdf:_6 <https://w3id.org/cdisc/cosmos/dss/RP/TNDRIND/RPLOC> ;
    rdf:_7 <https://w3id.org/cdisc/cosmos/dss/RP/TNDRIND/RPLAT> ;
    rdf:_8 <https://w3id.org/cdisc/cosmos/dss/RP/TNDRIND/RPDTC> ;
    cosmos_sdtm:biomedicalConceptId NCIT:C127775 ;
    cosmos_sdtm:domain "RP" ;
    cosmos_sdtm:packageDate "2026-05-26"^^xsd:date ;
    cosmos_sdtm:packageType <https://www.cdisc.org/cosmos/sdtm_v1.0/PackageTypeEnum#sdtm> ;
    cosmos_sdtm:sdtmigStartVersion "3-2" ;
    cosmos_sdtm:shortName "Tenderness Indicator" ;
    cosmos_sdtm:source "RP.RPTESTCD" ;
    cosmos_sdtm:variables <https://w3id.org/cdisc/cosmos/dss/RP/TNDRIND/RPCAT>,
        <https://w3id.org/cdisc/cosmos/dss/RP/TNDRIND/RPDTC>,
        <https://w3id.org/cdisc/cosmos/dss/RP/TNDRIND/RPLAT>,
        <https://w3id.org/cdisc/cosmos/dss/RP/TNDRIND/RPLOC>,
        <https://w3id.org/cdisc/cosmos/dss/RP/TNDRIND/RPORRES>,
        <https://w3id.org/cdisc/cosmos/dss/RP/TNDRIND/RPSTRESC>,
        <https://w3id.org/cdisc/cosmos/dss/RP/TNDRIND/RPTEST>,
        <https://w3id.org/cdisc/cosmos/dss/RP/TNDRIND/RPTESTCD> .

<https://w3id.org/cdisc/cosmos/dss/RP/TRMPGCAT> a cosmos_sdtm:SDTMGroup ;
    dcterms:identifier "TRMPGCAT" ;
    rdf:_1 <https://w3id.org/cdisc/cosmos/dss/RP/TRMPGCAT/RPTESTCD> ;
    rdf:_2 <https://w3id.org/cdisc/cosmos/dss/RP/TRMPGCAT/RPTEST> ;
    rdf:_3 <https://w3id.org/cdisc/cosmos/dss/RP/TRMPGCAT/RPCAT> ;
    rdf:_4 <https://w3id.org/cdisc/cosmos/dss/RP/TRMPGCAT/RPORRES> ;
    rdf:_5 <https://w3id.org/cdisc/cosmos/dss/RP/TRMPGCAT/RPSTRESC> ;
    rdf:_6 <https://w3id.org/cdisc/cosmos/dss/RP/TRMPGCAT/RPDTC> ;
    cosmos_sdtm:biomedicalConceptId NCIT:C176361 ;
    cosmos_sdtm:domain "RP" ;
    cosmos_sdtm:packageDate "2026-05-26"^^xsd:date ;
    cosmos_sdtm:packageType <https://www.cdisc.org/cosmos/sdtm_v1.0/PackageTypeEnum#sdtm> ;
    cosmos_sdtm:sdtmigStartVersion "3-2" ;
    cosmos_sdtm:shortName "Term Pregnancy Category" ;
    cosmos_sdtm:source "RP.RPTESTCD" ;
    cosmos_sdtm:variables <https://w3id.org/cdisc/cosmos/dss/RP/TRMPGCAT/RPCAT>,
        <https://w3id.org/cdisc/cosmos/dss/RP/TRMPGCAT/RPDTC>,
        <https://w3id.org/cdisc/cosmos/dss/RP/TRMPGCAT/RPORRES>,
        <https://w3id.org/cdisc/cosmos/dss/RP/TRMPGCAT/RPSTRESC>,
        <https://w3id.org/cdisc/cosmos/dss/RP/TRMPGCAT/RPTEST>,
        <https://w3id.org/cdisc/cosmos/dss/RP/TRMPGCAT/RPTESTCD> .

<https://w3id.org/cdisc/cosmos/dss/RP/TSXPARTN> a cosmos_sdtm:SDTMGroup ;
    dcterms:identifier "TSXPARTN" ;
    rdf:_1 <https://w3id.org/cdisc/cosmos/dss/RP/TSXPARTN/RPTESTCD> ;
    rdf:_2 <https://w3id.org/cdisc/cosmos/dss/RP/TSXPARTN/RPTEST> ;
    rdf:_3 <https://w3id.org/cdisc/cosmos/dss/RP/TSXPARTN/RPCAT> ;
    rdf:_4 <https://w3id.org/cdisc/cosmos/dss/RP/TSXPARTN/RPORRES> ;
    rdf:_5 <https://w3id.org/cdisc/cosmos/dss/RP/TSXPARTN/RPSTRESC> ;
    rdf:_6 <https://w3id.org/cdisc/cosmos/dss/RP/TSXPARTN/RPSTRESN> ;
    rdf:_7 <https://w3id.org/cdisc/cosmos/dss/RP/TSXPARTN/RPDTC> ;
    cosmos_sdtm:biomedicalConceptId NCIT:C181525 ;
    cosmos_sdtm:domain "RP" ;
    cosmos_sdtm:packageDate "2026-05-26"^^xsd:date ;
    cosmos_sdtm:packageType <https://www.cdisc.org/cosmos/sdtm_v1.0/PackageTypeEnum#sdtm> ;
    cosmos_sdtm:sdtmigStartVersion "3-2" ;
    cosmos_sdtm:shortName "Total Number of Sexual Partners" ;
    cosmos_sdtm:source "RP.RPTESTCD" ;
    cosmos_sdtm:variables <https://w3id.org/cdisc/cosmos/dss/RP/TSXPARTN/RPCAT>,
        <https://w3id.org/cdisc/cosmos/dss/RP/TSXPARTN/RPDTC>,
        <https://w3id.org/cdisc/cosmos/dss/RP/TSXPARTN/RPORRES>,
        <https://w3id.org/cdisc/cosmos/dss/RP/TSXPARTN/RPSTRESC>,
        <https://w3id.org/cdisc/cosmos/dss/RP/TSXPARTN/RPSTRESN>,
        <https://w3id.org/cdisc/cosmos/dss/RP/TSXPARTN/RPTEST>,
        <https://w3id.org/cdisc/cosmos/dss/RP/TSXPARTN/RPTESTCD> .

<https://w3id.org/cdisc/cosmos/dss/RP/ULCERIND> a cosmos_sdtm:SDTMGroup ;
    dcterms:identifier "ULCERIND" ;
    rdf:_1 <https://w3id.org/cdisc/cosmos/dss/RP/ULCERIND/RPTESTCD> ;
    rdf:_2 <https://w3id.org/cdisc/cosmos/dss/RP/ULCERIND/RPTEST> ;
    rdf:_3 <https://w3id.org/cdisc/cosmos/dss/RP/ULCERIND/RPCAT> ;
    rdf:_4 <https://w3id.org/cdisc/cosmos/dss/RP/ULCERIND/RPORRES> ;
    rdf:_5 <https://w3id.org/cdisc/cosmos/dss/RP/ULCERIND/RPSTRESC> ;
    rdf:_6 <https://w3id.org/cdisc/cosmos/dss/RP/ULCERIND/RPLOC> ;
    rdf:_7 <https://w3id.org/cdisc/cosmos/dss/RP/ULCERIND/RPLAT> ;
    rdf:_8 <https://w3id.org/cdisc/cosmos/dss/RP/ULCERIND/RPDTC> ;
    cosmos_sdtm:biomedicalConceptId NCIT:C154881 ;
    cosmos_sdtm:domain "RP" ;
    cosmos_sdtm:packageDate "2026-05-26"^^xsd:date ;
    cosmos_sdtm:packageType <https://www.cdisc.org/cosmos/sdtm_v1.0/PackageTypeEnum#sdtm> ;
    cosmos_sdtm:sdtmigStartVersion "3-2" ;
    cosmos_sdtm:shortName "Ulcer Indicator" ;
    cosmos_sdtm:source "RP.RPTESTCD" ;
    cosmos_sdtm:variables <https://w3id.org/cdisc/cosmos/dss/RP/ULCERIND/RPCAT>,
        <https://w3id.org/cdisc/cosmos/dss/RP/ULCERIND/RPDTC>,
        <https://w3id.org/cdisc/cosmos/dss/RP/ULCERIND/RPLAT>,
        <https://w3id.org/cdisc/cosmos/dss/RP/ULCERIND/RPLOC>,
        <https://w3id.org/cdisc/cosmos/dss/RP/ULCERIND/RPORRES>,
        <https://w3id.org/cdisc/cosmos/dss/RP/ULCERIND/RPSTRESC>,
        <https://w3id.org/cdisc/cosmos/dss/RP/ULCERIND/RPTEST>,
        <https://w3id.org/cdisc/cosmos/dss/RP/ULCERIND/RPTESTCD> .

<https://w3id.org/cdisc/cosmos/dss/RP/VAGDLVN> a cosmos_sdtm:SDTMGroup ;
    dcterms:identifier "VAGDLVN" ;
    rdf:_1 <https://w3id.org/cdisc/cosmos/dss/RP/VAGDLVN/RPTESTCD> ;
    rdf:_2 <https://w3id.org/cdisc/cosmos/dss/RP/VAGDLVN/RPTEST> ;
    rdf:_3 <https://w3id.org/cdisc/cosmos/dss/RP/VAGDLVN/RPCAT> ;
    rdf:_4 <https://w3id.org/cdisc/cosmos/dss/RP/VAGDLVN/RPORRES> ;
    rdf:_5 <https://w3id.org/cdisc/cosmos/dss/RP/VAGDLVN/RPSTRESC> ;
    rdf:_6 <https://w3id.org/cdisc/cosmos/dss/RP/VAGDLVN/RPSTRESN> ;
    rdf:_7 <https://w3id.org/cdisc/cosmos/dss/RP/VAGDLVN/RPDTC> ;
    cosmos_sdtm:biomedicalConceptId NCIT:C189359 ;
    cosmos_sdtm:domain "RP" ;
    cosmos_sdtm:packageDate "2026-05-26"^^xsd:date ;
    cosmos_sdtm:packageType <https://www.cdisc.org/cosmos/sdtm_v1.0/PackageTypeEnum#sdtm> ;
    cosmos_sdtm:sdtmigStartVersion "3-2" ;
    cosmos_sdtm:shortName "Number of Vaginal Deliveries" ;
    cosmos_sdtm:source "RP.RPTESTCD" ;
    cosmos_sdtm:variables <https://w3id.org/cdisc/cosmos/dss/RP/VAGDLVN/RPCAT>,
        <https://w3id.org/cdisc/cosmos/dss/RP/VAGDLVN/RPDTC>,
        <https://w3id.org/cdisc/cosmos/dss/RP/VAGDLVN/RPORRES>,
        <https://w3id.org/cdisc/cosmos/dss/RP/VAGDLVN/RPSTRESC>,
        <https://w3id.org/cdisc/cosmos/dss/RP/VAGDLVN/RPSTRESN>,
        <https://w3id.org/cdisc/cosmos/dss/RP/VAGDLVN/RPTEST>,
        <https://w3id.org/cdisc/cosmos/dss/RP/VAGDLVN/RPTESTCD> .

<https://w3id.org/cdisc/cosmos/dss/RP/VBSFRQD> a cosmos_sdtm:SDTMGroup ;
    dcterms:identifier "VBSFRQD" ;
    rdf:_1 <https://w3id.org/cdisc/cosmos/dss/RP/VBSFRQD/RPTESTCD> ;
    rdf:_2 <https://w3id.org/cdisc/cosmos/dss/RP/VBSFRQD/RPTEST> ;
    rdf:_3 <https://w3id.org/cdisc/cosmos/dss/RP/VBSFRQD/RPCAT> ;
    rdf:_4 <https://w3id.org/cdisc/cosmos/dss/RP/VBSFRQD/RPORRES> ;
    rdf:_5 <https://w3id.org/cdisc/cosmos/dss/RP/VBSFRQD/RPSTRESC> ;
    rdf:_6 <https://w3id.org/cdisc/cosmos/dss/RP/VBSFRQD/RPDTC> ;
    cosmos_sdtm:biomedicalConceptId NCIT:C176359 ;
    cosmos_sdtm:domain "RP" ;
    cosmos_sdtm:packageDate "2026-05-26"^^xsd:date ;
    cosmos_sdtm:packageType <https://www.cdisc.org/cosmos/sdtm_v1.0/PackageTypeEnum#sdtm> ;
    cosmos_sdtm:sdtmigStartVersion "3-2" ;
    cosmos_sdtm:shortName "Vaginal Bleeding/Spotting Freq Desc" ;
    cosmos_sdtm:source "RP.RPTESTCD" ;
    cosmos_sdtm:variables <https://w3id.org/cdisc/cosmos/dss/RP/VBSFRQD/RPCAT>,
        <https://w3id.org/cdisc/cosmos/dss/RP/VBSFRQD/RPDTC>,
        <https://w3id.org/cdisc/cosmos/dss/RP/VBSFRQD/RPORRES>,
        <https://w3id.org/cdisc/cosmos/dss/RP/VBSFRQD/RPSTRESC>,
        <https://w3id.org/cdisc/cosmos/dss/RP/VBSFRQD/RPTEST>,
        <https://w3id.org/cdisc/cosmos/dss/RP/VBSFRQD/RPTESTCD> .

<https://w3id.org/cdisc/cosmos/dss/RP/ABORTN/RPCAT/relationship> a cosmos_sdtm:RelationShip ;
    cosmos_sdtm:linkingPhrase <https://www.cdisc.org/cosmos/sdtm_v1.0/LinkingPhraseEnum#groups%20values%20in> ;
    cosmos_sdtm:object "RPTESTCD" ;
    cosmos_sdtm:predicateTerm <https://www.cdisc.org/cosmos/sdtm_v1.0/PredicateTermEnum#GROUPS> ;
    cosmos_sdtm:subject "RPCAT" .

<https://w3id.org/cdisc/cosmos/dss/RP/ABORTN/RPDTC/relationship> a cosmos_sdtm:RelationShip ;
    cosmos_sdtm:linkingPhrase <https://www.cdisc.org/cosmos/sdtm_v1.0/LinkingPhraseEnum#is%20the%20date%20of%20occurrence%20for> ;
    cosmos_sdtm:object "RPTESTCD" ;
    cosmos_sdtm:predicateTerm <https://www.cdisc.org/cosmos/sdtm_v1.0/PredicateTermEnum#IS_TIMING_FOR> ;
    cosmos_sdtm:subject "RPDTC" .

<https://w3id.org/cdisc/cosmos/dss/RP/ABORTN/RPORRES/relationship> a cosmos_sdtm:RelationShip ;
    cosmos_sdtm:linkingPhrase <https://www.cdisc.org/cosmos/sdtm_v1.0/LinkingPhraseEnum#is%20the%20result%20of%20the%20test%20in> ;
    cosmos_sdtm:object "RPTESTCD" ;
    cosmos_sdtm:predicateTerm <https://www.cdisc.org/cosmos/sdtm_v1.0/PredicateTermEnum#IS_RESULT_OF> ;
    cosmos_sdtm:subject "RPORRES" .

<https://w3id.org/cdisc/cosmos/dss/RP/ABORTN/RPSTRESC/relationship> a cosmos_sdtm:RelationShip ;
    cosmos_sdtm:linkingPhrase <https://www.cdisc.org/cosmos/sdtm_v1.0/LinkingPhraseEnum#is%20the%20result%20of%20the%20test%20in> ;
    cosmos_sdtm:object "RPTESTCD" ;
    cosmos_sdtm:predicateTerm <https://www.cdisc.org/cosmos/sdtm_v1.0/PredicateTermEnum#IS_RESULT_OF> ;
    cosmos_sdtm:subject "RPSTRESC" .

<https://w3id.org/cdisc/cosmos/dss/RP/ABORTN/RPSTRESN/relationship> a cosmos_sdtm:RelationShip ;
    cosmos_sdtm:linkingPhrase <https://www.cdisc.org/cosmos/sdtm_v1.0/LinkingPhraseEnum#is%20the%20result%20of%20the%20test%20in> ;
    cosmos_sdtm:object "RPTESTCD" ;
    cosmos_sdtm:predicateTerm <https://www.cdisc.org/cosmos/sdtm_v1.0/PredicateTermEnum#IS_RESULT_OF> ;
    cosmos_sdtm:subject "RPSTRESN" .

<https://w3id.org/cdisc/cosmos/dss/RP/ABORTN/RPTEST/assignedTerm> a cosmos_sdtm:AssignedTerm ;
    cosmos_sdtm:conceptId NCIT:C106550 ;
    cosmos_sdtm:value "Number of Abortions" .

<https://w3id.org/cdisc/cosmos/dss/RP/ABORTN/RPTEST/relationship> a cosmos_sdtm:RelationShip ;
    cosmos_sdtm:linkingPhrase <https://www.cdisc.org/cosmos/sdtm_v1.0/LinkingPhraseEnum#decodes%20the%20value%20in> ;
    cosmos_sdtm:object "RPTESTCD" ;
    cosmos_sdtm:predicateTerm <https://www.cdisc.org/cosmos/sdtm_v1.0/PredicateTermEnum#DECODES> ;
    cosmos_sdtm:subject "RPTEST" .

<https://w3id.org/cdisc/cosmos/dss/RP/ABORTN/RPTESTCD/assignedTerm> a cosmos_sdtm:AssignedTerm ;
    cosmos_sdtm:conceptId NCIT:C106550 ;
    cosmos_sdtm:value "ABORTN" .

<https://w3id.org/cdisc/cosmos/dss/RP/ABORTN/RPTESTCD/relationship> a cosmos_sdtm:RelationShip ;
    cosmos_sdtm:linkingPhrase <https://www.cdisc.org/cosmos/sdtm_v1.0/LinkingPhraseEnum#is%20the%20code%20for%20the%20value%20in> ;
    cosmos_sdtm:object "RPTEST" ;
    cosmos_sdtm:predicateTerm <https://www.cdisc.org/cosmos/sdtm_v1.0/PredicateTermEnum#IS_DECODED_BY> ;
    cosmos_sdtm:subject "RPTESTCD" .

<https://w3id.org/cdisc/cosmos/dss/RP/ADLVRDTC/RPCAT/relationship> a cosmos_sdtm:RelationShip ;
    cosmos_sdtm:linkingPhrase <https://www.cdisc.org/cosmos/sdtm_v1.0/LinkingPhraseEnum#groups%20values%20in> ;
    cosmos_sdtm:object "RPTESTCD" ;
    cosmos_sdtm:predicateTerm <https://www.cdisc.org/cosmos/sdtm_v1.0/PredicateTermEnum#GROUPS> ;
    cosmos_sdtm:subject "RPCAT" .

<https://w3id.org/cdisc/cosmos/dss/RP/ADLVRDTC/RPDTC/relationship> a cosmos_sdtm:RelationShip ;
    cosmos_sdtm:linkingPhrase <https://www.cdisc.org/cosmos/sdtm_v1.0/LinkingPhraseEnum#is%20the%20date%20of%20occurrence%20for> ;
    cosmos_sdtm:object "RPTESTCD" ;
    cosmos_sdtm:predicateTerm <https://www.cdisc.org/cosmos/sdtm_v1.0/PredicateTermEnum#IS_TIMING_FOR> ;
    cosmos_sdtm:subject "RPDTC" .

<https://w3id.org/cdisc/cosmos/dss/RP/ADLVRDTC/RPORRES/relationship> a cosmos_sdtm:RelationShip ;
    cosmos_sdtm:linkingPhrase <https://www.cdisc.org/cosmos/sdtm_v1.0/LinkingPhraseEnum#is%20the%20result%20of%20the%20test%20in> ;
    cosmos_sdtm:object "RPTESTCD" ;
    cosmos_sdtm:predicateTerm <https://www.cdisc.org/cosmos/sdtm_v1.0/PredicateTermEnum#IS_RESULT_OF> ;
    cosmos_sdtm:subject "RPORRES" .

<https://w3id.org/cdisc/cosmos/dss/RP/ADLVRDTC/RPSTRESC/relationship> a cosmos_sdtm:RelationShip ;
    cosmos_sdtm:linkingPhrase <https://www.cdisc.org/cosmos/sdtm_v1.0/LinkingPhraseEnum#is%20the%20result%20of%20the%20test%20in> ;
    cosmos_sdtm:object "RPTESTCD" ;
    cosmos_sdtm:predicateTerm <https://www.cdisc.org/cosmos/sdtm_v1.0/PredicateTermEnum#IS_RESULT_OF> ;
    cosmos_sdtm:subject "RPSTRESC" .

<https://w3id.org/cdisc/cosmos/dss/RP/ADLVRDTC/RPTEST/assignedTerm> a cosmos_sdtm:AssignedTerm ;
    cosmos_sdtm:conceptId NCIT:C178050 ;
    cosmos_sdtm:value "Actual Date of Delivery" .

<https://w3id.org/cdisc/cosmos/dss/RP/ADLVRDTC/RPTEST/relationship> a cosmos_sdtm:RelationShip ;
    cosmos_sdtm:linkingPhrase <https://www.cdisc.org/cosmos/sdtm_v1.0/LinkingPhraseEnum#decodes%20the%20value%20in> ;
    cosmos_sdtm:object "RPTESTCD" ;
    cosmos_sdtm:predicateTerm <https://www.cdisc.org/cosmos/sdtm_v1.0/PredicateTermEnum#DECODES> ;
    cosmos_sdtm:subject "RPTEST" .

<https://w3id.org/cdisc/cosmos/dss/RP/ADLVRDTC/RPTESTCD/assignedTerm> a cosmos_sdtm:AssignedTerm ;
    cosmos_sdtm:conceptId NCIT:C178050 ;
    cosmos_sdtm:value "ADLVRDTC" .

<https://w3id.org/cdisc/cosmos/dss/RP/ADLVRDTC/RPTESTCD/relationship> a cosmos_sdtm:RelationShip ;
    cosmos_sdtm:linkingPhrase <https://www.cdisc.org/cosmos/sdtm_v1.0/LinkingPhraseEnum#is%20the%20code%20for%20the%20value%20in> ;
    cosmos_sdtm:object "RPTEST" ;
    cosmos_sdtm:predicateTerm <https://www.cdisc.org/cosmos/sdtm_v1.0/PredicateTermEnum#IS_DECODED_BY> ;
    cosmos_sdtm:subject "RPTESTCD" .

<https://w3id.org/cdisc/cosmos/dss/RP/ADRNRAGE/RPCAT/relationship> a cosmos_sdtm:RelationShip ;
    cosmos_sdtm:linkingPhrase <https://www.cdisc.org/cosmos/sdtm_v1.0/LinkingPhraseEnum#groups%20values%20in> ;
    cosmos_sdtm:object "RPTESTCD" ;
    cosmos_sdtm:predicateTerm <https://www.cdisc.org/cosmos/sdtm_v1.0/PredicateTermEnum#GROUPS> ;
    cosmos_sdtm:subject "RPCAT" .

<https://w3id.org/cdisc/cosmos/dss/RP/ADRNRAGE/RPDTC/relationship> a cosmos_sdtm:RelationShip ;
    cosmos_sdtm:linkingPhrase <https://www.cdisc.org/cosmos/sdtm_v1.0/LinkingPhraseEnum#is%20the%20date%20of%20occurrence%20for> ;
    cosmos_sdtm:object "RPTESTCD" ;
    cosmos_sdtm:predicateTerm <https://www.cdisc.org/cosmos/sdtm_v1.0/PredicateTermEnum#IS_TIMING_FOR> ;
    cosmos_sdtm:subject "RPDTC" .

<https://w3id.org/cdisc/cosmos/dss/RP/ADRNRAGE/RPORRES/relationship> a cosmos_sdtm:RelationShip ;
    cosmos_sdtm:linkingPhrase <https://www.cdisc.org/cosmos/sdtm_v1.0/LinkingPhraseEnum#is%20the%20result%20of%20the%20test%20in> ;
    cosmos_sdtm:object "RPTESTCD" ;
    cosmos_sdtm:predicateTerm <https://www.cdisc.org/cosmos/sdtm_v1.0/PredicateTermEnum#IS_RESULT_OF> ;
    cosmos_sdtm:subject "RPORRES" .

<https://w3id.org/cdisc/cosmos/dss/RP/ADRNRAGE/RPORRESU/assignedTerm> a cosmos_sdtm:AssignedTerm ;
    cosmos_sdtm:conceptId NCIT:C29848 ;
    cosmos_sdtm:value "YEARS" .

<https://w3id.org/cdisc/cosmos/dss/RP/ADRNRAGE/RPORRESU/relationship> a cosmos_sdtm:RelationShip ;
    cosmos_sdtm:linkingPhrase <https://www.cdisc.org/cosmos/sdtm_v1.0/LinkingPhraseEnum#is%20the%20unit%20for%20the%20value%20in> ;
    cosmos_sdtm:object "RPORRES" ;
    cosmos_sdtm:predicateTerm <https://www.cdisc.org/cosmos/sdtm_v1.0/PredicateTermEnum#IS_UNIT_FOR> ;
    cosmos_sdtm:subject "RPORRESU" .

<https://w3id.org/cdisc/cosmos/dss/RP/ADRNRAGE/RPSTRESC/relationship> a cosmos_sdtm:RelationShip ;
    cosmos_sdtm:linkingPhrase <https://www.cdisc.org/cosmos/sdtm_v1.0/LinkingPhraseEnum#is%20the%20result%20of%20the%20test%20in> ;
    cosmos_sdtm:object "RPTESTCD" ;
    cosmos_sdtm:predicateTerm <https://www.cdisc.org/cosmos/sdtm_v1.0/PredicateTermEnum#IS_RESULT_OF> ;
    cosmos_sdtm:subject "RPSTRESC" .

<https://w3id.org/cdisc/cosmos/dss/RP/ADRNRAGE/RPSTRESN/relationship> a cosmos_sdtm:RelationShip ;
    cosmos_sdtm:linkingPhrase <https://www.cdisc.org/cosmos/sdtm_v1.0/LinkingPhraseEnum#is%20the%20result%20of%20the%20test%20in> ;
    cosmos_sdtm:object "RPTESTCD" ;
    cosmos_sdtm:predicateTerm <https://www.cdisc.org/cosmos/sdtm_v1.0/PredicateTermEnum#IS_RESULT_OF> ;
    cosmos_sdtm:subject "RPSTRESN" .

<https://w3id.org/cdisc/cosmos/dss/RP/ADRNRAGE/RPSTRESU/assignedTerm> a cosmos_sdtm:AssignedTerm ;
    cosmos_sdtm:conceptId NCIT:C29848 ;
    cosmos_sdtm:value "YEARS" .

<https://w3id.org/cdisc/cosmos/dss/RP/ADRNRAGE/RPSTRESU/relationship> a cosmos_sdtm:RelationShip ;
    cosmos_sdtm:linkingPhrase <https://www.cdisc.org/cosmos/sdtm_v1.0/LinkingPhraseEnum#is%20the%20unit%20for%20the%20value%20in> ;
    cosmos_sdtm:object "RPSTRESN" ;
    cosmos_sdtm:predicateTerm <https://www.cdisc.org/cosmos/sdtm_v1.0/PredicateTermEnum#IS_UNIT_FOR> ;
    cosmos_sdtm:subject "RPSTRESU" .

<https://w3id.org/cdisc/cosmos/dss/RP/ADRNRAGE/RPTEST/assignedTerm> a cosmos_sdtm:AssignedTerm ;
    cosmos_sdtm:conceptId NCIT:C189362 ;
    cosmos_sdtm:value "Adrenarche Age" .

<https://w3id.org/cdisc/cosmos/dss/RP/ADRNRAGE/RPTEST/relationship> a cosmos_sdtm:RelationShip ;
    cosmos_sdtm:linkingPhrase <https://www.cdisc.org/cosmos/sdtm_v1.0/LinkingPhraseEnum#decodes%20the%20value%20in> ;
    cosmos_sdtm:object "RPTESTCD" ;
    cosmos_sdtm:predicateTerm <https://www.cdisc.org/cosmos/sdtm_v1.0/PredicateTermEnum#DECODES> ;
    cosmos_sdtm:subject "RPTEST" .

<https://w3id.org/cdisc/cosmos/dss/RP/ADRNRAGE/RPTESTCD/assignedTerm> a cosmos_sdtm:AssignedTerm ;
    cosmos_sdtm:conceptId NCIT:C189362 ;
    cosmos_sdtm:value "ADRNRAGE" .

<https://w3id.org/cdisc/cosmos/dss/RP/ADRNRAGE/RPTESTCD/relationship> a cosmos_sdtm:RelationShip ;
    cosmos_sdtm:linkingPhrase <https://www.cdisc.org/cosmos/sdtm_v1.0/LinkingPhraseEnum#is%20the%20code%20for%20the%20value%20in> ;
    cosmos_sdtm:object "RPTEST" ;
    cosmos_sdtm:predicateTerm <https://www.cdisc.org/cosmos/sdtm_v1.0/PredicateTermEnum#IS_DECODED_BY> ;
    cosmos_sdtm:subject "RPTESTCD" .

<https://w3id.org/cdisc/cosmos/dss/RP/AMENSIND/RPCAT/relationship> a cosmos_sdtm:RelationShip ;
    cosmos_sdtm:linkingPhrase <https://www.cdisc.org/cosmos/sdtm_v1.0/LinkingPhraseEnum#groups%20values%20in> ;
    cosmos_sdtm:object "RPTESTCD" ;
    cosmos_sdtm:predicateTerm <https://www.cdisc.org/cosmos/sdtm_v1.0/PredicateTermEnum#GROUPS> ;
    cosmos_sdtm:subject "RPCAT" .

<https://w3id.org/cdisc/cosmos/dss/RP/AMENSIND/RPDTC/relationship> a cosmos_sdtm:RelationShip ;
    cosmos_sdtm:linkingPhrase <https://www.cdisc.org/cosmos/sdtm_v1.0/LinkingPhraseEnum#is%20the%20date%20of%20occurrence%20for> ;
    cosmos_sdtm:object "RPTESTCD" ;
    cosmos_sdtm:predicateTerm <https://www.cdisc.org/cosmos/sdtm_v1.0/PredicateTermEnum#IS_TIMING_FOR> ;
    cosmos_sdtm:subject "RPDTC" .

<https://w3id.org/cdisc/cosmos/dss/RP/AMENSIND/RPORRES/relationship> a cosmos_sdtm:RelationShip ;
    cosmos_sdtm:linkingPhrase <https://www.cdisc.org/cosmos/sdtm_v1.0/LinkingPhraseEnum#is%20the%20result%20of%20the%20test%20in> ;
    cosmos_sdtm:object "RPTESTCD" ;
    cosmos_sdtm:predicateTerm <https://www.cdisc.org/cosmos/sdtm_v1.0/PredicateTermEnum#IS_RESULT_OF> ;
    cosmos_sdtm:subject "RPORRES" .

<https://w3id.org/cdisc/cosmos/dss/RP/AMENSIND/RPSTRESC/relationship> a cosmos_sdtm:RelationShip ;
    cosmos_sdtm:linkingPhrase <https://www.cdisc.org/cosmos/sdtm_v1.0/LinkingPhraseEnum#is%20the%20result%20of%20the%20test%20in> ;
    cosmos_sdtm:object "RPTESTCD" ;
    cosmos_sdtm:predicateTerm <https://www.cdisc.org/cosmos/sdtm_v1.0/PredicateTermEnum#IS_RESULT_OF> ;
    cosmos_sdtm:subject "RPSTRESC" .

<https://w3id.org/cdisc/cosmos/dss/RP/AMENSIND/RPTEST/assignedTerm> a cosmos_sdtm:AssignedTerm ;
    cosmos_sdtm:conceptId NCIT:C204695 ;
    cosmos_sdtm:value "Actively Menstruating Indicator" .

<https://w3id.org/cdisc/cosmos/dss/RP/AMENSIND/RPTEST/relationship> a cosmos_sdtm:RelationShip ;
    cosmos_sdtm:linkingPhrase <https://www.cdisc.org/cosmos/sdtm_v1.0/LinkingPhraseEnum#decodes%20the%20value%20in> ;
    cosmos_sdtm:object "RPTESTCD" ;
    cosmos_sdtm:predicateTerm <https://www.cdisc.org/cosmos/sdtm_v1.0/PredicateTermEnum#DECODES> ;
    cosmos_sdtm:subject "RPTEST" .

<https://w3id.org/cdisc/cosmos/dss/RP/AMENSIND/RPTESTCD/assignedTerm> a cosmos_sdtm:AssignedTerm ;
    cosmos_sdtm:conceptId NCIT:C204695 ;
    cosmos_sdtm:value "AMENSIND" .

<https://w3id.org/cdisc/cosmos/dss/RP/AMENSIND/RPTESTCD/relationship> a cosmos_sdtm:RelationShip ;
    cosmos_sdtm:linkingPhrase <https://www.cdisc.org/cosmos/sdtm_v1.0/LinkingPhraseEnum#is%20the%20code%20for%20the%20value%20in> ;
    cosmos_sdtm:object "RPTEST" ;
    cosmos_sdtm:predicateTerm <https://www.cdisc.org/cosmos/sdtm_v1.0/PredicateTermEnum#IS_DECODED_BY> ;
    cosmos_sdtm:subject "RPTESTCD" .

<https://w3id.org/cdisc/cosmos/dss/RP/BCMETHOD/RPCAT/relationship> a cosmos_sdtm:RelationShip ;
    cosmos_sdtm:linkingPhrase <https://www.cdisc.org/cosmos/sdtm_v1.0/LinkingPhraseEnum#groups%20values%20in> ;
    cosmos_sdtm:object "RPTESTCD" ;
    cosmos_sdtm:predicateTerm <https://www.cdisc.org/cosmos/sdtm_v1.0/PredicateTermEnum#GROUPS> ;
    cosmos_sdtm:subject "RPCAT" .

<https://w3id.org/cdisc/cosmos/dss/RP/BCMETHOD/RPDTC/relationship> a cosmos_sdtm:RelationShip ;
    cosmos_sdtm:linkingPhrase <https://www.cdisc.org/cosmos/sdtm_v1.0/LinkingPhraseEnum#is%20the%20date%20of%20occurrence%20for> ;
    cosmos_sdtm:object "RPTESTCD" ;
    cosmos_sdtm:predicateTerm <https://www.cdisc.org/cosmos/sdtm_v1.0/PredicateTermEnum#IS_TIMING_FOR> ;
    cosmos_sdtm:subject "RPDTC" .

<https://w3id.org/cdisc/cosmos/dss/RP/BCMETHOD/RPORRES/relationship> a cosmos_sdtm:RelationShip ;
    cosmos_sdtm:linkingPhrase <https://www.cdisc.org/cosmos/sdtm_v1.0/LinkingPhraseEnum#is%20the%20result%20of%20the%20test%20in> ;
    cosmos_sdtm:object "RPTESTCD" ;
    cosmos_sdtm:predicateTerm <https://www.cdisc.org/cosmos/sdtm_v1.0/PredicateTermEnum#IS_RESULT_OF> ;
    cosmos_sdtm:subject "RPORRES" .

<https://w3id.org/cdisc/cosmos/dss/RP/BCMETHOD/RPSTRESC/relationship> a cosmos_sdtm:RelationShip ;
    cosmos_sdtm:linkingPhrase <https://www.cdisc.org/cosmos/sdtm_v1.0/LinkingPhraseEnum#is%20the%20result%20of%20the%20test%20in> ;
    cosmos_sdtm:object "RPTESTCD" ;
    cosmos_sdtm:predicateTerm <https://www.cdisc.org/cosmos/sdtm_v1.0/PredicateTermEnum#IS_RESULT_OF> ;
    cosmos_sdtm:subject "RPSTRESC" .

<https://w3id.org/cdisc/cosmos/dss/RP/BCMETHOD/RPTEST/assignedTerm> a cosmos_sdtm:AssignedTerm ;
    cosmos_sdtm:conceptId NCIT:C106501 ;
    cosmos_sdtm:value "Birth Control Method" .

<https://w3id.org/cdisc/cosmos/dss/RP/BCMETHOD/RPTEST/relationship> a cosmos_sdtm:RelationShip ;
    cosmos_sdtm:linkingPhrase <https://www.cdisc.org/cosmos/sdtm_v1.0/LinkingPhraseEnum#decodes%20the%20value%20in> ;
    cosmos_sdtm:object "RPTESTCD" ;
    cosmos_sdtm:predicateTerm <https://www.cdisc.org/cosmos/sdtm_v1.0/PredicateTermEnum#DECODES> ;
    cosmos_sdtm:subject "RPTEST" .

<https://w3id.org/cdisc/cosmos/dss/RP/BCMETHOD/RPTESTCD/assignedTerm> a cosmos_sdtm:AssignedTerm ;
    cosmos_sdtm:conceptId NCIT:C106501 ;
    cosmos_sdtm:value "BCMETHOD" .

<https://w3id.org/cdisc/cosmos/dss/RP/BCMETHOD/RPTESTCD/relationship> a cosmos_sdtm:RelationShip ;
    cosmos_sdtm:linkingPhrase <https://www.cdisc.org/cosmos/sdtm_v1.0/LinkingPhraseEnum#is%20the%20code%20for%20the%20value%20in> ;
    cosmos_sdtm:object "RPTEST" ;
    cosmos_sdtm:predicateTerm <https://www.cdisc.org/cosmos/sdtm_v1.0/PredicateTermEnum#IS_DECODED_BY> ;
    cosmos_sdtm:subject "RPTESTCD" .

<https://w3id.org/cdisc/cosmos/dss/RP/BLDSPNUM/RPCAT/relationship> a cosmos_sdtm:RelationShip ;
    cosmos_sdtm:linkingPhrase <https://www.cdisc.org/cosmos/sdtm_v1.0/LinkingPhraseEnum#groups%20values%20in> ;
    cosmos_sdtm:object "RPTESTCD" ;
    cosmos_sdtm:predicateTerm <https://www.cdisc.org/cosmos/sdtm_v1.0/PredicateTermEnum#GROUPS> ;
    cosmos_sdtm:subject "RPCAT" .

<https://w3id.org/cdisc/cosmos/dss/RP/BLDSPNUM/RPDTC/relationship> a cosmos_sdtm:RelationShip ;
    cosmos_sdtm:linkingPhrase <https://www.cdisc.org/cosmos/sdtm_v1.0/LinkingPhraseEnum#is%20the%20date%20of%20occurrence%20for> ;
    cosmos_sdtm:object "RPTESTCD" ;
    cosmos_sdtm:predicateTerm <https://www.cdisc.org/cosmos/sdtm_v1.0/PredicateTermEnum#IS_TIMING_FOR> ;
    cosmos_sdtm:subject "RPDTC" .

<https://w3id.org/cdisc/cosmos/dss/RP/BLDSPNUM/RPORRES/relationship> a cosmos_sdtm:RelationShip ;
    cosmos_sdtm:linkingPhrase <https://www.cdisc.org/cosmos/sdtm_v1.0/LinkingPhraseEnum#is%20the%20result%20of%20the%20test%20in> ;
    cosmos_sdtm:object "RPTESTCD" ;
    cosmos_sdtm:predicateTerm <https://www.cdisc.org/cosmos/sdtm_v1.0/PredicateTermEnum#IS_RESULT_OF> ;
    cosmos_sdtm:subject "RPORRES" .

<https://w3id.org/cdisc/cosmos/dss/RP/BLDSPNUM/RPSTRESC/relationship> a cosmos_sdtm:RelationShip ;
    cosmos_sdtm:linkingPhrase <https://www.cdisc.org/cosmos/sdtm_v1.0/LinkingPhraseEnum#is%20the%20result%20of%20the%20test%20in> ;
    cosmos_sdtm:object "RPTESTCD" ;
    cosmos_sdtm:predicateTerm <https://www.cdisc.org/cosmos/sdtm_v1.0/PredicateTermEnum#IS_RESULT_OF> ;
    cosmos_sdtm:subject "RPSTRESC" .

<https://w3id.org/cdisc/cosmos/dss/RP/BLDSPNUM/RPSTRESN/relationship> a cosmos_sdtm:RelationShip ;
    cosmos_sdtm:linkingPhrase <https://www.cdisc.org/cosmos/sdtm_v1.0/LinkingPhraseEnum#is%20the%20result%20of%20the%20test%20in> ;
    cosmos_sdtm:object "RPTESTCD" ;
    cosmos_sdtm:predicateTerm <https://www.cdisc.org/cosmos/sdtm_v1.0/PredicateTermEnum#IS_RESULT_OF> ;
    cosmos_sdtm:subject "RPSTRESN" .

<https://w3id.org/cdisc/cosmos/dss/RP/BLDSPNUM/RPTEST/assignedTerm> a cosmos_sdtm:AssignedTerm ;
    cosmos_sdtm:conceptId NCIT:C181528 ;
    cosmos_sdtm:value "Number of Continuous Days of Bleed/Spot" .

<https://w3id.org/cdisc/cosmos/dss/RP/BLDSPNUM/RPTEST/relationship> a cosmos_sdtm:RelationShip ;
    cosmos_sdtm:linkingPhrase <https://www.cdisc.org/cosmos/sdtm_v1.0/LinkingPhraseEnum#decodes%20the%20value%20in> ;
    cosmos_sdtm:object "RPTESTCD" ;
    cosmos_sdtm:predicateTerm <https://www.cdisc.org/cosmos/sdtm_v1.0/PredicateTermEnum#DECODES> ;
    cosmos_sdtm:subject "RPTEST" .

<https://w3id.org/cdisc/cosmos/dss/RP/BLDSPNUM/RPTESTCD/assignedTerm> a cosmos_sdtm:AssignedTerm ;
    cosmos_sdtm:conceptId NCIT:C181528 ;
    cosmos_sdtm:value "BLDSPNUM" .

<https://w3id.org/cdisc/cosmos/dss/RP/BLDSPNUM/RPTESTCD/relationship> a cosmos_sdtm:RelationShip ;
    cosmos_sdtm:linkingPhrase <https://www.cdisc.org/cosmos/sdtm_v1.0/LinkingPhraseEnum#is%20the%20code%20for%20the%20value%20in> ;
    cosmos_sdtm:object "RPTEST" ;
    cosmos_sdtm:predicateTerm <https://www.cdisc.org/cosmos/sdtm_v1.0/PredicateTermEnum#IS_DECODED_BY> ;
    cosmos_sdtm:subject "RPTESTCD" .

<https://w3id.org/cdisc/cosmos/dss/RP/BLEEDIND/RPCAT/relationship> a cosmos_sdtm:RelationShip ;
    cosmos_sdtm:linkingPhrase <https://www.cdisc.org/cosmos/sdtm_v1.0/LinkingPhraseEnum#groups%20values%20in> ;
    cosmos_sdtm:object "RPTESTCD" ;
    cosmos_sdtm:predicateTerm <https://www.cdisc.org/cosmos/sdtm_v1.0/PredicateTermEnum#GROUPS> ;
    cosmos_sdtm:subject "RPCAT" .

<https://w3id.org/cdisc/cosmos/dss/RP/BLEEDIND/RPDTC/relationship> a cosmos_sdtm:RelationShip ;
    cosmos_sdtm:linkingPhrase <https://www.cdisc.org/cosmos/sdtm_v1.0/LinkingPhraseEnum#is%20the%20date%20of%20occurrence%20for> ;
    cosmos_sdtm:object "RPTESTCD" ;
    cosmos_sdtm:predicateTerm <https://www.cdisc.org/cosmos/sdtm_v1.0/PredicateTermEnum#IS_TIMING_FOR> ;
    cosmos_sdtm:subject "RPDTC" .

<https://w3id.org/cdisc/cosmos/dss/RP/BLEEDIND/RPLAT/relationship> a cosmos_sdtm:RelationShip ;
    cosmos_sdtm:linkingPhrase <https://www.cdisc.org/cosmos/sdtm_v1.0/LinkingPhraseEnum#further%20specifies%20the%20anatomical%20location%20in> ;
    cosmos_sdtm:object "RPLOC" ;
    cosmos_sdtm:predicateTerm <https://www.cdisc.org/cosmos/sdtm_v1.0/PredicateTermEnum#SPECIFIES> ;
    cosmos_sdtm:subject "RPLAT" .

<https://w3id.org/cdisc/cosmos/dss/RP/BLEEDIND/RPLOC/relationship> a cosmos_sdtm:RelationShip ;
    cosmos_sdtm:linkingPhrase <https://www.cdisc.org/cosmos/sdtm_v1.0/LinkingPhraseEnum#specifies%20the%20anatomical%20location%20of%20the%20performance%20of%20the%20test%20in> ;
    cosmos_sdtm:object "RPTESTCD" ;
    cosmos_sdtm:predicateTerm <https://www.cdisc.org/cosmos/sdtm_v1.0/PredicateTermEnum#SPECIFIES> ;
    cosmos_sdtm:subject "RPLOC" .

<https://w3id.org/cdisc/cosmos/dss/RP/BLEEDIND/RPORRES/relationship> a cosmos_sdtm:RelationShip ;
    cosmos_sdtm:linkingPhrase <https://www.cdisc.org/cosmos/sdtm_v1.0/LinkingPhraseEnum#is%20the%20result%20of%20the%20test%20in> ;
    cosmos_sdtm:object "RPTESTCD" ;
    cosmos_sdtm:predicateTerm <https://www.cdisc.org/cosmos/sdtm_v1.0/PredicateTermEnum#IS_RESULT_OF> ;
    cosmos_sdtm:subject "RPORRES" .

<https://w3id.org/cdisc/cosmos/dss/RP/BLEEDIND/RPSTRESC/relationship> a cosmos_sdtm:RelationShip ;
    cosmos_sdtm:linkingPhrase <https://www.cdisc.org/cosmos/sdtm_v1.0/LinkingPhraseEnum#is%20the%20result%20of%20the%20test%20in> ;
    cosmos_sdtm:object "RPTESTCD" ;
    cosmos_sdtm:predicateTerm <https://www.cdisc.org/cosmos/sdtm_v1.0/PredicateTermEnum#IS_RESULT_OF> ;
    cosmos_sdtm:subject "RPSTRESC" .

<https://w3id.org/cdisc/cosmos/dss/RP/BLEEDIND/RPTEST/assignedTerm> a cosmos_sdtm:AssignedTerm ;
    cosmos_sdtm:conceptId NCIT:C154889 ;
    cosmos_sdtm:value "Abnormal Bleeding Indicator" .

<https://w3id.org/cdisc/cosmos/dss/RP/BLEEDIND/RPTEST/relationship> a cosmos_sdtm:RelationShip ;
    cosmos_sdtm:linkingPhrase <https://www.cdisc.org/cosmos/sdtm_v1.0/LinkingPhraseEnum#decodes%20the%20value%20in> ;
    cosmos_sdtm:object "RPTESTCD" ;
    cosmos_sdtm:predicateTerm <https://www.cdisc.org/cosmos/sdtm_v1.0/PredicateTermEnum#DECODES> ;
    cosmos_sdtm:subject "RPTEST" .

<https://w3id.org/cdisc/cosmos/dss/RP/BLEEDIND/RPTESTCD/assignedTerm> a cosmos_sdtm:AssignedTerm ;
    cosmos_sdtm:conceptId NCIT:C154889 ;
    cosmos_sdtm:value "BLEEDIND" .

<https://w3id.org/cdisc/cosmos/dss/RP/BLEEDIND/RPTESTCD/relationship> a cosmos_sdtm:RelationShip ;
    cosmos_sdtm:linkingPhrase <https://www.cdisc.org/cosmos/sdtm_v1.0/LinkingPhraseEnum#is%20the%20code%20for%20the%20value%20in> ;
    cosmos_sdtm:object "RPTEST" ;
    cosmos_sdtm:predicateTerm <https://www.cdisc.org/cosmos/sdtm_v1.0/PredicateTermEnum#IS_DECODED_BY> ;
    cosmos_sdtm:subject "RPTESTCD" .

<https://w3id.org/cdisc/cosmos/dss/RP/BLISTIND/RPCAT/relationship> a cosmos_sdtm:RelationShip ;
    cosmos_sdtm:linkingPhrase <https://www.cdisc.org/cosmos/sdtm_v1.0/LinkingPhraseEnum#groups%20values%20in> ;
    cosmos_sdtm:object "RPTESTCD" ;
    cosmos_sdtm:predicateTerm <https://www.cdisc.org/cosmos/sdtm_v1.0/PredicateTermEnum#GROUPS> ;
    cosmos_sdtm:subject "RPCAT" .

<https://w3id.org/cdisc/cosmos/dss/RP/BLISTIND/RPDTC/relationship> a cosmos_sdtm:RelationShip ;
    cosmos_sdtm:linkingPhrase <https://www.cdisc.org/cosmos/sdtm_v1.0/LinkingPhraseEnum#is%20the%20date%20of%20occurrence%20for> ;
    cosmos_sdtm:object "RPTESTCD" ;
    cosmos_sdtm:predicateTerm <https://www.cdisc.org/cosmos/sdtm_v1.0/PredicateTermEnum#IS_TIMING_FOR> ;
    cosmos_sdtm:subject "RPDTC" .

<https://w3id.org/cdisc/cosmos/dss/RP/BLISTIND/RPLAT/relationship> a cosmos_sdtm:RelationShip ;
    cosmos_sdtm:linkingPhrase <https://www.cdisc.org/cosmos/sdtm_v1.0/LinkingPhraseEnum#further%20specifies%20the%20anatomical%20location%20in> ;
    cosmos_sdtm:object "RPLOC" ;
    cosmos_sdtm:predicateTerm <https://www.cdisc.org/cosmos/sdtm_v1.0/PredicateTermEnum#SPECIFIES> ;
    cosmos_sdtm:subject "RPLAT" .

<https://w3id.org/cdisc/cosmos/dss/RP/BLISTIND/RPLOC/relationship> a cosmos_sdtm:RelationShip ;
    cosmos_sdtm:linkingPhrase <https://www.cdisc.org/cosmos/sdtm_v1.0/LinkingPhraseEnum#specifies%20the%20anatomical%20location%20of%20the%20performance%20of%20the%20test%20in> ;
    cosmos_sdtm:object "RPTESTCD" ;
    cosmos_sdtm:predicateTerm <https://www.cdisc.org/cosmos/sdtm_v1.0/PredicateTermEnum#SPECIFIES> ;
    cosmos_sdtm:subject "RPLOC" .

<https://w3id.org/cdisc/cosmos/dss/RP/BLISTIND/RPORRES/relationship> a cosmos_sdtm:RelationShip ;
    cosmos_sdtm:linkingPhrase <https://www.cdisc.org/cosmos/sdtm_v1.0/LinkingPhraseEnum#is%20the%20result%20of%20the%20test%20in> ;
    cosmos_sdtm:object "RPTESTCD" ;
    cosmos_sdtm:predicateTerm <https://www.cdisc.org/cosmos/sdtm_v1.0/PredicateTermEnum#IS_RESULT_OF> ;
    cosmos_sdtm:subject "RPORRES" .

<https://w3id.org/cdisc/cosmos/dss/RP/BLISTIND/RPSTRESC/relationship> a cosmos_sdtm:RelationShip ;
    cosmos_sdtm:linkingPhrase <https://www.cdisc.org/cosmos/sdtm_v1.0/LinkingPhraseEnum#is%20the%20result%20of%20the%20test%20in> ;
    cosmos_sdtm:object "RPTESTCD" ;
    cosmos_sdtm:predicateTerm <https://www.cdisc.org/cosmos/sdtm_v1.0/PredicateTermEnum#IS_RESULT_OF> ;
    cosmos_sdtm:subject "RPSTRESC" .

<https://w3id.org/cdisc/cosmos/dss/RP/BLISTIND/RPTEST/assignedTerm> a cosmos_sdtm:AssignedTerm ;
    cosmos_sdtm:conceptId NCIT:C122195 ;
    cosmos_sdtm:value "Blistering Indicator" .

<https://w3id.org/cdisc/cosmos/dss/RP/BLISTIND/RPTEST/relationship> a cosmos_sdtm:RelationShip ;
    cosmos_sdtm:linkingPhrase <https://www.cdisc.org/cosmos/sdtm_v1.0/LinkingPhraseEnum#decodes%20the%20value%20in> ;
    cosmos_sdtm:object "RPTESTCD" ;
    cosmos_sdtm:predicateTerm <https://www.cdisc.org/cosmos/sdtm_v1.0/PredicateTermEnum#DECODES> ;
    cosmos_sdtm:subject "RPTEST" .

<https://w3id.org/cdisc/cosmos/dss/RP/BLISTIND/RPTESTCD/assignedTerm> a cosmos_sdtm:AssignedTerm ;
    cosmos_sdtm:conceptId NCIT:C122195 ;
    cosmos_sdtm:value "BLISTIND" .

<https://w3id.org/cdisc/cosmos/dss/RP/BLISTIND/RPTESTCD/relationship> a cosmos_sdtm:RelationShip ;
    cosmos_sdtm:linkingPhrase <https://www.cdisc.org/cosmos/sdtm_v1.0/LinkingPhraseEnum#is%20the%20code%20for%20the%20value%20in> ;
    cosmos_sdtm:object "RPTEST" ;
    cosmos_sdtm:predicateTerm <https://www.cdisc.org/cosmos/sdtm_v1.0/PredicateTermEnum#IS_DECODED_BY> ;
    cosmos_sdtm:subject "RPTESTCD" .

<https://w3id.org/cdisc/cosmos/dss/RP/BRFENDTC/RPCAT/relationship> a cosmos_sdtm:RelationShip ;
    cosmos_sdtm:linkingPhrase <https://www.cdisc.org/cosmos/sdtm_v1.0/LinkingPhraseEnum#groups%20values%20in> ;
    cosmos_sdtm:object "RPTESTCD" ;
    cosmos_sdtm:predicateTerm <https://www.cdisc.org/cosmos/sdtm_v1.0/PredicateTermEnum#GROUPS> ;
    cosmos_sdtm:subject "RPCAT" .

<https://w3id.org/cdisc/cosmos/dss/RP/BRFENDTC/RPDTC/relationship> a cosmos_sdtm:RelationShip ;
    cosmos_sdtm:linkingPhrase <https://www.cdisc.org/cosmos/sdtm_v1.0/LinkingPhraseEnum#is%20the%20date%20of%20occurrence%20for> ;
    cosmos_sdtm:object "RPTESTCD" ;
    cosmos_sdtm:predicateTerm <https://www.cdisc.org/cosmos/sdtm_v1.0/PredicateTermEnum#IS_TIMING_FOR> ;
    cosmos_sdtm:subject "RPDTC" .

<https://w3id.org/cdisc/cosmos/dss/RP/BRFENDTC/RPORRES/relationship> a cosmos_sdtm:RelationShip ;
    cosmos_sdtm:linkingPhrase <https://www.cdisc.org/cosmos/sdtm_v1.0/LinkingPhraseEnum#is%20the%20result%20of%20the%20test%20in> ;
    cosmos_sdtm:object "RPTESTCD" ;
    cosmos_sdtm:predicateTerm <https://www.cdisc.org/cosmos/sdtm_v1.0/PredicateTermEnum#IS_RESULT_OF> ;
    cosmos_sdtm:subject "RPORRES" .

<https://w3id.org/cdisc/cosmos/dss/RP/BRFENDTC/RPSTRESC/relationship> a cosmos_sdtm:RelationShip ;
    cosmos_sdtm:linkingPhrase <https://www.cdisc.org/cosmos/sdtm_v1.0/LinkingPhraseEnum#is%20the%20result%20of%20the%20test%20in> ;
    cosmos_sdtm:object "RPTESTCD" ;
    cosmos_sdtm:predicateTerm <https://www.cdisc.org/cosmos/sdtm_v1.0/PredicateTermEnum#IS_RESULT_OF> ;
    cosmos_sdtm:subject "RPSTRESC" .

<https://w3id.org/cdisc/cosmos/dss/RP/BRFENDTC/RPTEST/assignedTerm> a cosmos_sdtm:AssignedTerm ;
    cosmos_sdtm:conceptId NCIT:C189364 ;
    cosmos_sdtm:value "Breastfeeding End Date" .

<https://w3id.org/cdisc/cosmos/dss/RP/BRFENDTC/RPTEST/relationship> a cosmos_sdtm:RelationShip ;
    cosmos_sdtm:linkingPhrase <https://www.cdisc.org/cosmos/sdtm_v1.0/LinkingPhraseEnum#decodes%20the%20value%20in> ;
    cosmos_sdtm:object "RPTESTCD" ;
    cosmos_sdtm:predicateTerm <https://www.cdisc.org/cosmos/sdtm_v1.0/PredicateTermEnum#DECODES> ;
    cosmos_sdtm:subject "RPTEST" .

<https://w3id.org/cdisc/cosmos/dss/RP/BRFENDTC/RPTESTCD/assignedTerm> a cosmos_sdtm:AssignedTerm ;
    cosmos_sdtm:conceptId NCIT:C189364 ;
    cosmos_sdtm:value "BRFENDTC" .

<https://w3id.org/cdisc/cosmos/dss/RP/BRFENDTC/RPTESTCD/relationship> a cosmos_sdtm:RelationShip ;
    cosmos_sdtm:linkingPhrase <https://www.cdisc.org/cosmos/sdtm_v1.0/LinkingPhraseEnum#is%20the%20code%20for%20the%20value%20in> ;
    cosmos_sdtm:object "RPTEST" ;
    cosmos_sdtm:predicateTerm <https://www.cdisc.org/cosmos/sdtm_v1.0/PredicateTermEnum#IS_DECODED_BY> ;
    cosmos_sdtm:subject "RPTESTCD" .

<https://w3id.org/cdisc/cosmos/dss/RP/BRFSTDTC/RPCAT/relationship> a cosmos_sdtm:RelationShip ;
    cosmos_sdtm:linkingPhrase <https://www.cdisc.org/cosmos/sdtm_v1.0/LinkingPhraseEnum#groups%20values%20in> ;
    cosmos_sdtm:object "RPTESTCD" ;
    cosmos_sdtm:predicateTerm <https://www.cdisc.org/cosmos/sdtm_v1.0/PredicateTermEnum#GROUPS> ;
    cosmos_sdtm:subject "RPCAT" .

<https://w3id.org/cdisc/cosmos/dss/RP/BRFSTDTC/RPDTC/relationship> a cosmos_sdtm:RelationShip ;
    cosmos_sdtm:linkingPhrase <https://www.cdisc.org/cosmos/sdtm_v1.0/LinkingPhraseEnum#is%20the%20date%20of%20occurrence%20for> ;
    cosmos_sdtm:object "RPTESTCD" ;
    cosmos_sdtm:predicateTerm <https://www.cdisc.org/cosmos/sdtm_v1.0/PredicateTermEnum#IS_TIMING_FOR> ;
    cosmos_sdtm:subject "RPDTC" .

<https://w3id.org/cdisc/cosmos/dss/RP/BRFSTDTC/RPORRES/relationship> a cosmos_sdtm:RelationShip ;
    cosmos_sdtm:linkingPhrase <https://www.cdisc.org/cosmos/sdtm_v1.0/LinkingPhraseEnum#is%20the%20result%20of%20the%20test%20in> ;
    cosmos_sdtm:object "RPTESTCD" ;
    cosmos_sdtm:predicateTerm <https://www.cdisc.org/cosmos/sdtm_v1.0/PredicateTermEnum#IS_RESULT_OF> ;
    cosmos_sdtm:subject "RPORRES" .

<https://w3id.org/cdisc/cosmos/dss/RP/BRFSTDTC/RPSTRESC/relationship> a cosmos_sdtm:RelationShip ;
    cosmos_sdtm:linkingPhrase <https://www.cdisc.org/cosmos/sdtm_v1.0/LinkingPhraseEnum#is%20the%20result%20of%20the%20test%20in> ;
    cosmos_sdtm:object "RPTESTCD" ;
    cosmos_sdtm:predicateTerm <https://www.cdisc.org/cosmos/sdtm_v1.0/PredicateTermEnum#IS_RESULT_OF> ;
    cosmos_sdtm:subject "RPSTRESC" .

<https://w3id.org/cdisc/cosmos/dss/RP/BRFSTDTC/RPTEST/assignedTerm> a cosmos_sdtm:AssignedTerm ;
    cosmos_sdtm:conceptId NCIT:C189363 ;
    cosmos_sdtm:value "Breastfeeding Start Date" .

<https://w3id.org/cdisc/cosmos/dss/RP/BRFSTDTC/RPTEST/relationship> a cosmos_sdtm:RelationShip ;
    cosmos_sdtm:linkingPhrase <https://www.cdisc.org/cosmos/sdtm_v1.0/LinkingPhraseEnum#decodes%20the%20value%20in> ;
    cosmos_sdtm:object "RPTESTCD" ;
    cosmos_sdtm:predicateTerm <https://www.cdisc.org/cosmos/sdtm_v1.0/PredicateTermEnum#DECODES> ;
    cosmos_sdtm:subject "RPTEST" .

<https://w3id.org/cdisc/cosmos/dss/RP/BRFSTDTC/RPTESTCD/assignedTerm> a cosmos_sdtm:AssignedTerm ;
    cosmos_sdtm:conceptId NCIT:C189363 ;
    cosmos_sdtm:value "BRFSTDTC" .

<https://w3id.org/cdisc/cosmos/dss/RP/BRFSTDTC/RPTESTCD/relationship> a cosmos_sdtm:RelationShip ;
    cosmos_sdtm:linkingPhrase <https://www.cdisc.org/cosmos/sdtm_v1.0/LinkingPhraseEnum#is%20the%20code%20for%20the%20value%20in> ;
    cosmos_sdtm:object "RPTEST" ;
    cosmos_sdtm:predicateTerm <https://www.cdisc.org/cosmos/sdtm_v1.0/PredicateTermEnum#IS_DECODED_BY> ;
    cosmos_sdtm:subject "RPTESTCD" .

<https://w3id.org/cdisc/cosmos/dss/RP/BRTHFTN/RPCAT/relationship> a cosmos_sdtm:RelationShip ;
    cosmos_sdtm:linkingPhrase <https://www.cdisc.org/cosmos/sdtm_v1.0/LinkingPhraseEnum#groups%20values%20in> ;
    cosmos_sdtm:object "RPTESTCD" ;
    cosmos_sdtm:predicateTerm <https://www.cdisc.org/cosmos/sdtm_v1.0/PredicateTermEnum#GROUPS> ;
    cosmos_sdtm:subject "RPCAT" .

<https://w3id.org/cdisc/cosmos/dss/RP/BRTHFTN/RPDTC/relationship> a cosmos_sdtm:RelationShip ;
    cosmos_sdtm:linkingPhrase <https://www.cdisc.org/cosmos/sdtm_v1.0/LinkingPhraseEnum#is%20the%20date%20of%20occurrence%20for> ;
    cosmos_sdtm:object "RPTESTCD" ;
    cosmos_sdtm:predicateTerm <https://www.cdisc.org/cosmos/sdtm_v1.0/PredicateTermEnum#IS_TIMING_FOR> ;
    cosmos_sdtm:subject "RPDTC" .

<https://w3id.org/cdisc/cosmos/dss/RP/BRTHFTN/RPORRES/relationship> a cosmos_sdtm:RelationShip ;
    cosmos_sdtm:linkingPhrase <https://www.cdisc.org/cosmos/sdtm_v1.0/LinkingPhraseEnum#is%20the%20result%20of%20the%20test%20in> ;
    cosmos_sdtm:object "RPTESTCD" ;
    cosmos_sdtm:predicateTerm <https://www.cdisc.org/cosmos/sdtm_v1.0/PredicateTermEnum#IS_RESULT_OF> ;
    cosmos_sdtm:subject "RPORRES" .

<https://w3id.org/cdisc/cosmos/dss/RP/BRTHFTN/RPSTRESC/relationship> a cosmos_sdtm:RelationShip ;
    cosmos_sdtm:linkingPhrase <https://www.cdisc.org/cosmos/sdtm_v1.0/LinkingPhraseEnum#is%20the%20result%20of%20the%20test%20in> ;
    cosmos_sdtm:object "RPTESTCD" ;
    cosmos_sdtm:predicateTerm <https://www.cdisc.org/cosmos/sdtm_v1.0/PredicateTermEnum#IS_RESULT_OF> ;
    cosmos_sdtm:subject "RPSTRESC" .

<https://w3id.org/cdisc/cosmos/dss/RP/BRTHFTN/RPSTRESN/relationship> a cosmos_sdtm:RelationShip ;
    cosmos_sdtm:linkingPhrase <https://www.cdisc.org/cosmos/sdtm_v1.0/LinkingPhraseEnum#is%20the%20result%20of%20the%20test%20in> ;
    cosmos_sdtm:object "RPTESTCD" ;
    cosmos_sdtm:predicateTerm <https://www.cdisc.org/cosmos/sdtm_v1.0/PredicateTermEnum#IS_RESULT_OF> ;
    cosmos_sdtm:subject "RPSTRESN" .

<https://w3id.org/cdisc/cosmos/dss/RP/BRTHFTN/RPTEST/assignedTerm> a cosmos_sdtm:AssignedTerm ;
    cosmos_sdtm:conceptId NCIT:C139265 ;
    cosmos_sdtm:value "Number Full Term Live Births" .

<https://w3id.org/cdisc/cosmos/dss/RP/BRTHFTN/RPTEST/relationship> a cosmos_sdtm:RelationShip ;
    cosmos_sdtm:linkingPhrase <https://www.cdisc.org/cosmos/sdtm_v1.0/LinkingPhraseEnum#decodes%20the%20value%20in> ;
    cosmos_sdtm:object "RPTESTCD" ;
    cosmos_sdtm:predicateTerm <https://www.cdisc.org/cosmos/sdtm_v1.0/PredicateTermEnum#DECODES> ;
    cosmos_sdtm:subject "RPTEST" .

<https://w3id.org/cdisc/cosmos/dss/RP/BRTHFTN/RPTESTCD/assignedTerm> a cosmos_sdtm:AssignedTerm ;
    cosmos_sdtm:conceptId NCIT:C139265 ;
    cosmos_sdtm:value "BRTHFTN" .

<https://w3id.org/cdisc/cosmos/dss/RP/BRTHFTN/RPTESTCD/relationship> a cosmos_sdtm:RelationShip ;
    cosmos_sdtm:linkingPhrase <https://www.cdisc.org/cosmos/sdtm_v1.0/LinkingPhraseEnum#is%20the%20code%20for%20the%20value%20in> ;
    cosmos_sdtm:object "RPTEST" ;
    cosmos_sdtm:predicateTerm <https://www.cdisc.org/cosmos/sdtm_v1.0/PredicateTermEnum#IS_DECODED_BY> ;
    cosmos_sdtm:subject "RPTESTCD" .

<https://w3id.org/cdisc/cosmos/dss/RP/BRTHLVN/RPCAT/relationship> a cosmos_sdtm:RelationShip ;
    cosmos_sdtm:linkingPhrase <https://www.cdisc.org/cosmos/sdtm_v1.0/LinkingPhraseEnum#groups%20values%20in> ;
    cosmos_sdtm:object "RPTESTCD" ;
    cosmos_sdtm:predicateTerm <https://www.cdisc.org/cosmos/sdtm_v1.0/PredicateTermEnum#GROUPS> ;
    cosmos_sdtm:subject "RPCAT" .

<https://w3id.org/cdisc/cosmos/dss/RP/BRTHLVN/RPDTC/relationship> a cosmos_sdtm:RelationShip ;
    cosmos_sdtm:linkingPhrase <https://www.cdisc.org/cosmos/sdtm_v1.0/LinkingPhraseEnum#is%20the%20date%20of%20occurrence%20for> ;
    cosmos_sdtm:object "RPTESTCD" ;
    cosmos_sdtm:predicateTerm <https://www.cdisc.org/cosmos/sdtm_v1.0/PredicateTermEnum#IS_TIMING_FOR> ;
    cosmos_sdtm:subject "RPDTC" .

<https://w3id.org/cdisc/cosmos/dss/RP/BRTHLVN/RPORRES/relationship> a cosmos_sdtm:RelationShip ;
    cosmos_sdtm:linkingPhrase <https://www.cdisc.org/cosmos/sdtm_v1.0/LinkingPhraseEnum#is%20the%20result%20of%20the%20test%20in> ;
    cosmos_sdtm:object "RPTESTCD" ;
    cosmos_sdtm:predicateTerm <https://www.cdisc.org/cosmos/sdtm_v1.0/PredicateTermEnum#IS_RESULT_OF> ;
    cosmos_sdtm:subject "RPORRES" .

<https://w3id.org/cdisc/cosmos/dss/RP/BRTHLVN/RPSTRESC/relationship> a cosmos_sdtm:RelationShip ;
    cosmos_sdtm:linkingPhrase <https://www.cdisc.org/cosmos/sdtm_v1.0/LinkingPhraseEnum#is%20the%20result%20of%20the%20test%20in> ;
    cosmos_sdtm:object "RPTESTCD" ;
    cosmos_sdtm:predicateTerm <https://www.cdisc.org/cosmos/sdtm_v1.0/PredicateTermEnum#IS_RESULT_OF> ;
    cosmos_sdtm:subject "RPSTRESC" .

<https://w3id.org/cdisc/cosmos/dss/RP/BRTHLVN/RPSTRESN/relationship> a cosmos_sdtm:RelationShip ;
    cosmos_sdtm:linkingPhrase <https://www.cdisc.org/cosmos/sdtm_v1.0/LinkingPhraseEnum#is%20the%20result%20of%20the%20test%20in> ;
    cosmos_sdtm:object "RPTESTCD" ;
    cosmos_sdtm:predicateTerm <https://www.cdisc.org/cosmos/sdtm_v1.0/PredicateTermEnum#IS_RESULT_OF> ;
    cosmos_sdtm:subject "RPSTRESN" .

<https://w3id.org/cdisc/cosmos/dss/RP/BRTHLVN/RPTEST/assignedTerm> a cosmos_sdtm:AssignedTerm ;
    cosmos_sdtm:conceptId NCIT:C178141 ;
    cosmos_sdtm:value "Number of Live Births" .

<https://w3id.org/cdisc/cosmos/dss/RP/BRTHLVN/RPTEST/relationship> a cosmos_sdtm:RelationShip ;
    cosmos_sdtm:linkingPhrase <https://www.cdisc.org/cosmos/sdtm_v1.0/LinkingPhraseEnum#decodes%20the%20value%20in> ;
    cosmos_sdtm:object "RPTESTCD" ;
    cosmos_sdtm:predicateTerm <https://www.cdisc.org/cosmos/sdtm_v1.0/PredicateTermEnum#DECODES> ;
    cosmos_sdtm:subject "RPTEST" .

<https://w3id.org/cdisc/cosmos/dss/RP/BRTHLVN/RPTESTCD/assignedTerm> a cosmos_sdtm:AssignedTerm ;
    cosmos_sdtm:conceptId NCIT:C178141 ;
    cosmos_sdtm:value "BRTHLVN" .

<https://w3id.org/cdisc/cosmos/dss/RP/BRTHLVN/RPTESTCD/relationship> a cosmos_sdtm:RelationShip ;
    cosmos_sdtm:linkingPhrase <https://www.cdisc.org/cosmos/sdtm_v1.0/LinkingPhraseEnum#is%20the%20code%20for%20the%20value%20in> ;
    cosmos_sdtm:object "RPTEST" ;
    cosmos_sdtm:predicateTerm <https://www.cdisc.org/cosmos/sdtm_v1.0/PredicateTermEnum#IS_DECODED_BY> ;
    cosmos_sdtm:subject "RPTESTCD" .

<https://w3id.org/cdisc/cosmos/dss/RP/BRTHN/RPCAT/relationship> a cosmos_sdtm:RelationShip ;
    cosmos_sdtm:linkingPhrase <https://www.cdisc.org/cosmos/sdtm_v1.0/LinkingPhraseEnum#groups%20values%20in> ;
    cosmos_sdtm:object "RPTESTCD" ;
    cosmos_sdtm:predicateTerm <https://www.cdisc.org/cosmos/sdtm_v1.0/PredicateTermEnum#GROUPS> ;
    cosmos_sdtm:subject "RPCAT" .

<https://w3id.org/cdisc/cosmos/dss/RP/BRTHN/RPDTC/relationship> a cosmos_sdtm:RelationShip ;
    cosmos_sdtm:linkingPhrase <https://www.cdisc.org/cosmos/sdtm_v1.0/LinkingPhraseEnum#is%20the%20date%20of%20occurrence%20for> ;
    cosmos_sdtm:object "RPTESTCD" ;
    cosmos_sdtm:predicateTerm <https://www.cdisc.org/cosmos/sdtm_v1.0/PredicateTermEnum#IS_TIMING_FOR> ;
    cosmos_sdtm:subject "RPDTC" .

<https://w3id.org/cdisc/cosmos/dss/RP/BRTHN/RPORRES/relationship> a cosmos_sdtm:RelationShip ;
    cosmos_sdtm:linkingPhrase <https://www.cdisc.org/cosmos/sdtm_v1.0/LinkingPhraseEnum#is%20the%20result%20of%20the%20test%20in> ;
    cosmos_sdtm:object "RPTESTCD" ;
    cosmos_sdtm:predicateTerm <https://www.cdisc.org/cosmos/sdtm_v1.0/PredicateTermEnum#IS_RESULT_OF> ;
    cosmos_sdtm:subject "RPORRES" .

<https://w3id.org/cdisc/cosmos/dss/RP/BRTHN/RPSTRESC/relationship> a cosmos_sdtm:RelationShip ;
    cosmos_sdtm:linkingPhrase <https://www.cdisc.org/cosmos/sdtm_v1.0/LinkingPhraseEnum#is%20the%20result%20of%20the%20test%20in> ;
    cosmos_sdtm:object "RPTESTCD" ;
    cosmos_sdtm:predicateTerm <https://www.cdisc.org/cosmos/sdtm_v1.0/PredicateTermEnum#IS_RESULT_OF> ;
    cosmos_sdtm:subject "RPSTRESC" .

<https://w3id.org/cdisc/cosmos/dss/RP/BRTHN/RPSTRESN/relationship> a cosmos_sdtm:RelationShip ;
    cosmos_sdtm:linkingPhrase <https://www.cdisc.org/cosmos/sdtm_v1.0/LinkingPhraseEnum#is%20the%20result%20of%20the%20test%20in> ;
    cosmos_sdtm:object "RPTESTCD" ;
    cosmos_sdtm:predicateTerm <https://www.cdisc.org/cosmos/sdtm_v1.0/PredicateTermEnum#IS_RESULT_OF> ;
    cosmos_sdtm:subject "RPSTRESN" .

<https://w3id.org/cdisc/cosmos/dss/RP/BRTHN/RPTEST/assignedTerm> a cosmos_sdtm:AssignedTerm ;
    cosmos_sdtm:conceptId NCIT:C158275 ;
    cosmos_sdtm:value "Number of Births" .

<https://w3id.org/cdisc/cosmos/dss/RP/BRTHN/RPTEST/relationship> a cosmos_sdtm:RelationShip ;
    cosmos_sdtm:linkingPhrase <https://www.cdisc.org/cosmos/sdtm_v1.0/LinkingPhraseEnum#decodes%20the%20value%20in> ;
    cosmos_sdtm:object "RPTESTCD" ;
    cosmos_sdtm:predicateTerm <https://www.cdisc.org/cosmos/sdtm_v1.0/PredicateTermEnum#DECODES> ;
    cosmos_sdtm:subject "RPTEST" .

<https://w3id.org/cdisc/cosmos/dss/RP/BRTHN/RPTESTCD/assignedTerm> a cosmos_sdtm:AssignedTerm ;
    cosmos_sdtm:conceptId NCIT:C158275 ;
    cosmos_sdtm:value "BRTHN" .

<https://w3id.org/cdisc/cosmos/dss/RP/BRTHN/RPTESTCD/relationship> a cosmos_sdtm:RelationShip ;
    cosmos_sdtm:linkingPhrase <https://www.cdisc.org/cosmos/sdtm_v1.0/LinkingPhraseEnum#is%20the%20code%20for%20the%20value%20in> ;
    cosmos_sdtm:object "RPTEST" ;
    cosmos_sdtm:predicateTerm <https://www.cdisc.org/cosmos/sdtm_v1.0/PredicateTermEnum#IS_DECODED_BY> ;
    cosmos_sdtm:subject "RPTESTCD" .

<https://w3id.org/cdisc/cosmos/dss/RP/BRTHPRN/RPCAT/relationship> a cosmos_sdtm:RelationShip ;
    cosmos_sdtm:linkingPhrase <https://www.cdisc.org/cosmos/sdtm_v1.0/LinkingPhraseEnum#groups%20values%20in> ;
    cosmos_sdtm:object "RPTESTCD" ;
    cosmos_sdtm:predicateTerm <https://www.cdisc.org/cosmos/sdtm_v1.0/PredicateTermEnum#GROUPS> ;
    cosmos_sdtm:subject "RPCAT" .

<https://w3id.org/cdisc/cosmos/dss/RP/BRTHPRN/RPDTC/relationship> a cosmos_sdtm:RelationShip ;
    cosmos_sdtm:linkingPhrase <https://www.cdisc.org/cosmos/sdtm_v1.0/LinkingPhraseEnum#is%20the%20date%20of%20occurrence%20for> ;
    cosmos_sdtm:object "RPTESTCD" ;
    cosmos_sdtm:predicateTerm <https://www.cdisc.org/cosmos/sdtm_v1.0/PredicateTermEnum#IS_TIMING_FOR> ;
    cosmos_sdtm:subject "RPDTC" .

<https://w3id.org/cdisc/cosmos/dss/RP/BRTHPRN/RPORRES/relationship> a cosmos_sdtm:RelationShip ;
    cosmos_sdtm:linkingPhrase <https://www.cdisc.org/cosmos/sdtm_v1.0/LinkingPhraseEnum#is%20the%20result%20of%20the%20test%20in> ;
    cosmos_sdtm:object "RPTESTCD" ;
    cosmos_sdtm:predicateTerm <https://www.cdisc.org/cosmos/sdtm_v1.0/PredicateTermEnum#IS_RESULT_OF> ;
    cosmos_sdtm:subject "RPORRES" .

<https://w3id.org/cdisc/cosmos/dss/RP/BRTHPRN/RPSTRESC/relationship> a cosmos_sdtm:RelationShip ;
    cosmos_sdtm:linkingPhrase <https://www.cdisc.org/cosmos/sdtm_v1.0/LinkingPhraseEnum#is%20the%20result%20of%20the%20test%20in> ;
    cosmos_sdtm:object "RPTESTCD" ;
    cosmos_sdtm:predicateTerm <https://www.cdisc.org/cosmos/sdtm_v1.0/PredicateTermEnum#IS_RESULT_OF> ;
    cosmos_sdtm:subject "RPSTRESC" .

<https://w3id.org/cdisc/cosmos/dss/RP/BRTHPRN/RPSTRESN/relationship> a cosmos_sdtm:RelationShip ;
    cosmos_sdtm:linkingPhrase <https://www.cdisc.org/cosmos/sdtm_v1.0/LinkingPhraseEnum#is%20the%20result%20of%20the%20test%20in> ;
    cosmos_sdtm:object "RPTESTCD" ;
    cosmos_sdtm:predicateTerm <https://www.cdisc.org/cosmos/sdtm_v1.0/PredicateTermEnum#IS_RESULT_OF> ;
    cosmos_sdtm:subject "RPSTRESN" .

<https://w3id.org/cdisc/cosmos/dss/RP/BRTHPRN/RPTEST/assignedTerm> a cosmos_sdtm:AssignedTerm ;
    cosmos_sdtm:conceptId NCIT:C139266 ;
    cosmos_sdtm:value "Number of Premature Live Births" .

<https://w3id.org/cdisc/cosmos/dss/RP/BRTHPRN/RPTEST/relationship> a cosmos_sdtm:RelationShip ;
    cosmos_sdtm:linkingPhrase <https://www.cdisc.org/cosmos/sdtm_v1.0/LinkingPhraseEnum#decodes%20the%20value%20in> ;
    cosmos_sdtm:object "RPTESTCD" ;
    cosmos_sdtm:predicateTerm <https://www.cdisc.org/cosmos/sdtm_v1.0/PredicateTermEnum#DECODES> ;
    cosmos_sdtm:subject "RPTEST" .

<https://w3id.org/cdisc/cosmos/dss/RP/BRTHPRN/RPTESTCD/assignedTerm> a cosmos_sdtm:AssignedTerm ;
    cosmos_sdtm:conceptId NCIT:C139266 ;
    cosmos_sdtm:value "BRTHPRN" .

<https://w3id.org/cdisc/cosmos/dss/RP/BRTHPRN/RPTESTCD/relationship> a cosmos_sdtm:RelationShip ;
    cosmos_sdtm:linkingPhrase <https://www.cdisc.org/cosmos/sdtm_v1.0/LinkingPhraseEnum#is%20the%20code%20for%20the%20value%20in> ;
    cosmos_sdtm:object "RPTEST" ;
    cosmos_sdtm:predicateTerm <https://www.cdisc.org/cosmos/sdtm_v1.0/PredicateTermEnum#IS_DECODED_BY> ;
    cosmos_sdtm:subject "RPTESTCD" .

<https://w3id.org/cdisc/cosmos/dss/RP/BRTHSTN/RPCAT/relationship> a cosmos_sdtm:RelationShip ;
    cosmos_sdtm:linkingPhrase <https://www.cdisc.org/cosmos/sdtm_v1.0/LinkingPhraseEnum#groups%20values%20in> ;
    cosmos_sdtm:object "RPTESTCD" ;
    cosmos_sdtm:predicateTerm <https://www.cdisc.org/cosmos/sdtm_v1.0/PredicateTermEnum#GROUPS> ;
    cosmos_sdtm:subject "RPCAT" .

<https://w3id.org/cdisc/cosmos/dss/RP/BRTHSTN/RPDTC/relationship> a cosmos_sdtm:RelationShip ;
    cosmos_sdtm:linkingPhrase <https://www.cdisc.org/cosmos/sdtm_v1.0/LinkingPhraseEnum#is%20the%20date%20of%20occurrence%20for> ;
    cosmos_sdtm:object "RPTESTCD" ;
    cosmos_sdtm:predicateTerm <https://www.cdisc.org/cosmos/sdtm_v1.0/PredicateTermEnum#IS_TIMING_FOR> ;
    cosmos_sdtm:subject "RPDTC" .

<https://w3id.org/cdisc/cosmos/dss/RP/BRTHSTN/RPORRES/relationship> a cosmos_sdtm:RelationShip ;
    cosmos_sdtm:linkingPhrase <https://www.cdisc.org/cosmos/sdtm_v1.0/LinkingPhraseEnum#is%20the%20result%20of%20the%20test%20in> ;
    cosmos_sdtm:object "RPTESTCD" ;
    cosmos_sdtm:predicateTerm <https://www.cdisc.org/cosmos/sdtm_v1.0/PredicateTermEnum#IS_RESULT_OF> ;
    cosmos_sdtm:subject "RPORRES" .

<https://w3id.org/cdisc/cosmos/dss/RP/BRTHSTN/RPSTRESC/relationship> a cosmos_sdtm:RelationShip ;
    cosmos_sdtm:linkingPhrase <https://www.cdisc.org/cosmos/sdtm_v1.0/LinkingPhraseEnum#is%20the%20result%20of%20the%20test%20in> ;
    cosmos_sdtm:object "RPTESTCD" ;
    cosmos_sdtm:predicateTerm <https://www.cdisc.org/cosmos/sdtm_v1.0/PredicateTermEnum#IS_RESULT_OF> ;
    cosmos_sdtm:subject "RPSTRESC" .

<https://w3id.org/cdisc/cosmos/dss/RP/BRTHSTN/RPSTRESN/relationship> a cosmos_sdtm:RelationShip ;
    cosmos_sdtm:linkingPhrase <https://www.cdisc.org/cosmos/sdtm_v1.0/LinkingPhraseEnum#is%20the%20result%20of%20the%20test%20in> ;
    cosmos_sdtm:object "RPTESTCD" ;
    cosmos_sdtm:predicateTerm <https://www.cdisc.org/cosmos/sdtm_v1.0/PredicateTermEnum#IS_RESULT_OF> ;
    cosmos_sdtm:subject "RPSTRESN" .

<https://w3id.org/cdisc/cosmos/dss/RP/BRTHSTN/RPTEST/assignedTerm> a cosmos_sdtm:AssignedTerm ;
    cosmos_sdtm:conceptId NCIT:C139267 ;
    cosmos_sdtm:value "Number of Stillbirths" .

<https://w3id.org/cdisc/cosmos/dss/RP/BRTHSTN/RPTEST/relationship> a cosmos_sdtm:RelationShip ;
    cosmos_sdtm:linkingPhrase <https://www.cdisc.org/cosmos/sdtm_v1.0/LinkingPhraseEnum#decodes%20the%20value%20in> ;
    cosmos_sdtm:object "RPTESTCD" ;
    cosmos_sdtm:predicateTerm <https://www.cdisc.org/cosmos/sdtm_v1.0/PredicateTermEnum#DECODES> ;
    cosmos_sdtm:subject "RPTEST" .

<https://w3id.org/cdisc/cosmos/dss/RP/BRTHSTN/RPTESTCD/assignedTerm> a cosmos_sdtm:AssignedTerm ;
    cosmos_sdtm:conceptId NCIT:C139267 ;
    cosmos_sdtm:value "BRTHSTN" .

<https://w3id.org/cdisc/cosmos/dss/RP/BRTHSTN/RPTESTCD/relationship> a cosmos_sdtm:RelationShip ;
    cosmos_sdtm:linkingPhrase <https://www.cdisc.org/cosmos/sdtm_v1.0/LinkingPhraseEnum#is%20the%20code%20for%20the%20value%20in> ;
    cosmos_sdtm:object "RPTEST" ;
    cosmos_sdtm:predicateTerm <https://www.cdisc.org/cosmos/sdtm_v1.0/PredicateTermEnum#IS_DECODED_BY> ;
    cosmos_sdtm:subject "RPTESTCD" .

<https://w3id.org/cdisc/cosmos/dss/RP/BRTLVIND/RPCAT/relationship> a cosmos_sdtm:RelationShip ;
    cosmos_sdtm:linkingPhrase <https://www.cdisc.org/cosmos/sdtm_v1.0/LinkingPhraseEnum#groups%20values%20in> ;
    cosmos_sdtm:object "RPTESTCD" ;
    cosmos_sdtm:predicateTerm <https://www.cdisc.org/cosmos/sdtm_v1.0/PredicateTermEnum#GROUPS> ;
    cosmos_sdtm:subject "RPCAT" .

<https://w3id.org/cdisc/cosmos/dss/RP/BRTLVIND/RPDTC/relationship> a cosmos_sdtm:RelationShip ;
    cosmos_sdtm:linkingPhrase <https://www.cdisc.org/cosmos/sdtm_v1.0/LinkingPhraseEnum#is%20the%20date%20of%20occurrence%20for> ;
    cosmos_sdtm:object "RPTESTCD" ;
    cosmos_sdtm:predicateTerm <https://www.cdisc.org/cosmos/sdtm_v1.0/PredicateTermEnum#IS_TIMING_FOR> ;
    cosmos_sdtm:subject "RPDTC" .

<https://w3id.org/cdisc/cosmos/dss/RP/BRTLVIND/RPORRES/relationship> a cosmos_sdtm:RelationShip ;
    cosmos_sdtm:linkingPhrase <https://www.cdisc.org/cosmos/sdtm_v1.0/LinkingPhraseEnum#is%20the%20result%20of%20the%20test%20in> ;
    cosmos_sdtm:object "RPTESTCD" ;
    cosmos_sdtm:predicateTerm <https://www.cdisc.org/cosmos/sdtm_v1.0/PredicateTermEnum#IS_RESULT_OF> ;
    cosmos_sdtm:subject "RPORRES" .

<https://w3id.org/cdisc/cosmos/dss/RP/BRTLVIND/RPSTRESC/relationship> a cosmos_sdtm:RelationShip ;
    cosmos_sdtm:linkingPhrase <https://www.cdisc.org/cosmos/sdtm_v1.0/LinkingPhraseEnum#is%20the%20result%20of%20the%20test%20in> ;
    cosmos_sdtm:object "RPTESTCD" ;
    cosmos_sdtm:predicateTerm <https://www.cdisc.org/cosmos/sdtm_v1.0/PredicateTermEnum#IS_RESULT_OF> ;
    cosmos_sdtm:subject "RPSTRESC" .

<https://w3id.org/cdisc/cosmos/dss/RP/BRTLVIND/RPTEST/assignedTerm> a cosmos_sdtm:AssignedTerm ;
    cosmos_sdtm:conceptId NCIT:C156589 ;
    cosmos_sdtm:value "Live Birth Indicator" .

<https://w3id.org/cdisc/cosmos/dss/RP/BRTLVIND/RPTEST/relationship> a cosmos_sdtm:RelationShip ;
    cosmos_sdtm:linkingPhrase <https://www.cdisc.org/cosmos/sdtm_v1.0/LinkingPhraseEnum#decodes%20the%20value%20in> ;
    cosmos_sdtm:object "RPTESTCD" ;
    cosmos_sdtm:predicateTerm <https://www.cdisc.org/cosmos/sdtm_v1.0/PredicateTermEnum#DECODES> ;
    cosmos_sdtm:subject "RPTEST" .

<https://w3id.org/cdisc/cosmos/dss/RP/BRTLVIND/RPTESTCD/assignedTerm> a cosmos_sdtm:AssignedTerm ;
    cosmos_sdtm:conceptId NCIT:C156589 ;
    cosmos_sdtm:value "BRTLVIND" .

<https://w3id.org/cdisc/cosmos/dss/RP/BRTLVIND/RPTESTCD/relationship> a cosmos_sdtm:RelationShip ;
    cosmos_sdtm:linkingPhrase <https://www.cdisc.org/cosmos/sdtm_v1.0/LinkingPhraseEnum#is%20the%20code%20for%20the%20value%20in> ;
    cosmos_sdtm:object "RPTEST" ;
    cosmos_sdtm:predicateTerm <https://www.cdisc.org/cosmos/sdtm_v1.0/PredicateTermEnum#IS_DECODED_BY> ;
    cosmos_sdtm:subject "RPTESTCD" .

<https://w3id.org/cdisc/cosmos/dss/RP/BSBMPIND/RPCAT/relationship> a cosmos_sdtm:RelationShip ;
    cosmos_sdtm:linkingPhrase <https://www.cdisc.org/cosmos/sdtm_v1.0/LinkingPhraseEnum#groups%20values%20in> ;
    cosmos_sdtm:object "RPTESTCD" ;
    cosmos_sdtm:predicateTerm <https://www.cdisc.org/cosmos/sdtm_v1.0/PredicateTermEnum#GROUPS> ;
    cosmos_sdtm:subject "RPCAT" .

<https://w3id.org/cdisc/cosmos/dss/RP/BSBMPIND/RPDTC/relationship> a cosmos_sdtm:RelationShip ;
    cosmos_sdtm:linkingPhrase <https://www.cdisc.org/cosmos/sdtm_v1.0/LinkingPhraseEnum#is%20the%20date%20of%20occurrence%20for> ;
    cosmos_sdtm:object "RPTESTCD" ;
    cosmos_sdtm:predicateTerm <https://www.cdisc.org/cosmos/sdtm_v1.0/PredicateTermEnum#IS_TIMING_FOR> ;
    cosmos_sdtm:subject "RPDTC" .

<https://w3id.org/cdisc/cosmos/dss/RP/BSBMPIND/RPORRES/relationship> a cosmos_sdtm:RelationShip ;
    cosmos_sdtm:linkingPhrase <https://www.cdisc.org/cosmos/sdtm_v1.0/LinkingPhraseEnum#is%20the%20result%20of%20the%20test%20in> ;
    cosmos_sdtm:object "RPTESTCD" ;
    cosmos_sdtm:predicateTerm <https://www.cdisc.org/cosmos/sdtm_v1.0/PredicateTermEnum#IS_RESULT_OF> ;
    cosmos_sdtm:subject "RPORRES" .

<https://w3id.org/cdisc/cosmos/dss/RP/BSBMPIND/RPSTRESC/relationship> a cosmos_sdtm:RelationShip ;
    cosmos_sdtm:linkingPhrase <https://www.cdisc.org/cosmos/sdtm_v1.0/LinkingPhraseEnum#is%20the%20result%20of%20the%20test%20in> ;
    cosmos_sdtm:object "RPTESTCD" ;
    cosmos_sdtm:predicateTerm <https://www.cdisc.org/cosmos/sdtm_v1.0/PredicateTermEnum#IS_RESULT_OF> ;
    cosmos_sdtm:subject "RPSTRESC" .

<https://w3id.org/cdisc/cosmos/dss/RP/BSBMPIND/RPTEST/assignedTerm> a cosmos_sdtm:AssignedTerm ;
    cosmos_sdtm:conceptId NCIT:C189352 ;
    cosmos_sdtm:value "Bleed/Spot Between Menstrual Periods Ind" .

<https://w3id.org/cdisc/cosmos/dss/RP/BSBMPIND/RPTEST/relationship> a cosmos_sdtm:RelationShip ;
    cosmos_sdtm:linkingPhrase <https://www.cdisc.org/cosmos/sdtm_v1.0/LinkingPhraseEnum#decodes%20the%20value%20in> ;
    cosmos_sdtm:object "RPTESTCD" ;
    cosmos_sdtm:predicateTerm <https://www.cdisc.org/cosmos/sdtm_v1.0/PredicateTermEnum#DECODES> ;
    cosmos_sdtm:subject "RPTEST" .

<https://w3id.org/cdisc/cosmos/dss/RP/BSBMPIND/RPTESTCD/assignedTerm> a cosmos_sdtm:AssignedTerm ;
    cosmos_sdtm:conceptId NCIT:C189352 ;
    cosmos_sdtm:value "BSBMPIND" .

<https://w3id.org/cdisc/cosmos/dss/RP/BSBMPIND/RPTESTCD/relationship> a cosmos_sdtm:RelationShip ;
    cosmos_sdtm:linkingPhrase <https://www.cdisc.org/cosmos/sdtm_v1.0/LinkingPhraseEnum#is%20the%20code%20for%20the%20value%20in> ;
    cosmos_sdtm:object "RPTEST" ;
    cosmos_sdtm:predicateTerm <https://www.cdisc.org/cosmos/sdtm_v1.0/PredicateTermEnum#IS_DECODED_BY> ;
    cosmos_sdtm:subject "RPTESTCD" .

<https://w3id.org/cdisc/cosmos/dss/RP/BTHGLIND/RPCAT/relationship> a cosmos_sdtm:RelationShip ;
    cosmos_sdtm:linkingPhrase <https://www.cdisc.org/cosmos/sdtm_v1.0/LinkingPhraseEnum#groups%20values%20in> ;
    cosmos_sdtm:object "RPTESTCD" ;
    cosmos_sdtm:predicateTerm <https://www.cdisc.org/cosmos/sdtm_v1.0/PredicateTermEnum#GROUPS> ;
    cosmos_sdtm:subject "RPCAT" .

<https://w3id.org/cdisc/cosmos/dss/RP/BTHGLIND/RPDTC/relationship> a cosmos_sdtm:RelationShip ;
    cosmos_sdtm:linkingPhrase <https://www.cdisc.org/cosmos/sdtm_v1.0/LinkingPhraseEnum#is%20the%20date%20of%20occurrence%20for> ;
    cosmos_sdtm:object "RPTESTCD" ;
    cosmos_sdtm:predicateTerm <https://www.cdisc.org/cosmos/sdtm_v1.0/PredicateTermEnum#IS_TIMING_FOR> ;
    cosmos_sdtm:subject "RPDTC" .

<https://w3id.org/cdisc/cosmos/dss/RP/BTHGLIND/RPORRES/relationship> a cosmos_sdtm:RelationShip ;
    cosmos_sdtm:linkingPhrase <https://www.cdisc.org/cosmos/sdtm_v1.0/LinkingPhraseEnum#is%20the%20result%20of%20the%20test%20in> ;
    cosmos_sdtm:object "RPTESTCD" ;
    cosmos_sdtm:predicateTerm <https://www.cdisc.org/cosmos/sdtm_v1.0/PredicateTermEnum#IS_RESULT_OF> ;
    cosmos_sdtm:subject "RPORRES" .

<https://w3id.org/cdisc/cosmos/dss/RP/BTHGLIND/RPSTRESC/relationship> a cosmos_sdtm:RelationShip ;
    cosmos_sdtm:linkingPhrase <https://www.cdisc.org/cosmos/sdtm_v1.0/LinkingPhraseEnum#is%20the%20result%20of%20the%20test%20in> ;
    cosmos_sdtm:object "RPTESTCD" ;
    cosmos_sdtm:predicateTerm <https://www.cdisc.org/cosmos/sdtm_v1.0/PredicateTermEnum#IS_RESULT_OF> ;
    cosmos_sdtm:subject "RPSTRESC" .

<https://w3id.org/cdisc/cosmos/dss/RP/BTHGLIND/RPTEST/assignedTerm> a cosmos_sdtm:AssignedTerm ;
    cosmos_sdtm:conceptId NCIT:C154880 ;
    cosmos_sdtm:value "Bartholin's Gland Abnormality Indicator" .

<https://w3id.org/cdisc/cosmos/dss/RP/BTHGLIND/RPTEST/relationship> a cosmos_sdtm:RelationShip ;
    cosmos_sdtm:linkingPhrase <https://www.cdisc.org/cosmos/sdtm_v1.0/LinkingPhraseEnum#decodes%20the%20value%20in> ;
    cosmos_sdtm:object "RPTESTCD" ;
    cosmos_sdtm:predicateTerm <https://www.cdisc.org/cosmos/sdtm_v1.0/PredicateTermEnum#DECODES> ;
    cosmos_sdtm:subject "RPTEST" .

<https://w3id.org/cdisc/cosmos/dss/RP/BTHGLIND/RPTESTCD/assignedTerm> a cosmos_sdtm:AssignedTerm ;
    cosmos_sdtm:conceptId NCIT:C154880 ;
    cosmos_sdtm:value "BTHGLIND" .

<https://w3id.org/cdisc/cosmos/dss/RP/BTHGLIND/RPTESTCD/relationship> a cosmos_sdtm:RelationShip ;
    cosmos_sdtm:linkingPhrase <https://www.cdisc.org/cosmos/sdtm_v1.0/LinkingPhraseEnum#is%20the%20code%20for%20the%20value%20in> ;
    cosmos_sdtm:object "RPTEST" ;
    cosmos_sdtm:predicateTerm <https://www.cdisc.org/cosmos/sdtm_v1.0/PredicateTermEnum#IS_DECODED_BY> ;
    cosmos_sdtm:subject "RPTESTCD" .

<https://w3id.org/cdisc/cosmos/dss/RP/CABNIND/RPCAT/relationship> a cosmos_sdtm:RelationShip ;
    cosmos_sdtm:linkingPhrase <https://www.cdisc.org/cosmos/sdtm_v1.0/LinkingPhraseEnum#groups%20values%20in> ;
    cosmos_sdtm:object "RPTESTCD" ;
    cosmos_sdtm:predicateTerm <https://www.cdisc.org/cosmos/sdtm_v1.0/PredicateTermEnum#GROUPS> ;
    cosmos_sdtm:subject "RPCAT" .

<https://w3id.org/cdisc/cosmos/dss/RP/CABNIND/RPDTC/relationship> a cosmos_sdtm:RelationShip ;
    cosmos_sdtm:linkingPhrase <https://www.cdisc.org/cosmos/sdtm_v1.0/LinkingPhraseEnum#is%20the%20date%20of%20occurrence%20for> ;
    cosmos_sdtm:object "RPTESTCD" ;
    cosmos_sdtm:predicateTerm <https://www.cdisc.org/cosmos/sdtm_v1.0/PredicateTermEnum#IS_TIMING_FOR> ;
    cosmos_sdtm:subject "RPDTC" .

<https://w3id.org/cdisc/cosmos/dss/RP/CABNIND/RPORRES/relationship> a cosmos_sdtm:RelationShip ;
    cosmos_sdtm:linkingPhrase <https://www.cdisc.org/cosmos/sdtm_v1.0/LinkingPhraseEnum#is%20the%20result%20of%20the%20test%20in> ;
    cosmos_sdtm:object "RPTESTCD" ;
    cosmos_sdtm:predicateTerm <https://www.cdisc.org/cosmos/sdtm_v1.0/PredicateTermEnum#IS_RESULT_OF> ;
    cosmos_sdtm:subject "RPORRES" .

<https://w3id.org/cdisc/cosmos/dss/RP/CABNIND/RPSTRESC/relationship> a cosmos_sdtm:RelationShip ;
    cosmos_sdtm:linkingPhrase <https://www.cdisc.org/cosmos/sdtm_v1.0/LinkingPhraseEnum#is%20the%20result%20of%20the%20test%20in> ;
    cosmos_sdtm:object "RPTESTCD" ;
    cosmos_sdtm:predicateTerm <https://www.cdisc.org/cosmos/sdtm_v1.0/PredicateTermEnum#IS_RESULT_OF> ;
    cosmos_sdtm:subject "RPSTRESC" .

<https://w3id.org/cdisc/cosmos/dss/RP/CABNIND/RPTEST/assignedTerm> a cosmos_sdtm:AssignedTerm ;
    cosmos_sdtm:conceptId NCIT:C122187 ;
    cosmos_sdtm:value "Congenital Abnormality Indicator" .

<https://w3id.org/cdisc/cosmos/dss/RP/CABNIND/RPTEST/relationship> a cosmos_sdtm:RelationShip ;
    cosmos_sdtm:linkingPhrase <https://www.cdisc.org/cosmos/sdtm_v1.0/LinkingPhraseEnum#decodes%20the%20value%20in> ;
    cosmos_sdtm:object "RPTESTCD" ;
    cosmos_sdtm:predicateTerm <https://www.cdisc.org/cosmos/sdtm_v1.0/PredicateTermEnum#DECODES> ;
    cosmos_sdtm:subject "RPTEST" .

<https://w3id.org/cdisc/cosmos/dss/RP/CABNIND/RPTESTCD/assignedTerm> a cosmos_sdtm:AssignedTerm ;
    cosmos_sdtm:conceptId NCIT:C122187 ;
    cosmos_sdtm:value "CABNIND" .

<https://w3id.org/cdisc/cosmos/dss/RP/CABNIND/RPTESTCD/relationship> a cosmos_sdtm:RelationShip ;
    cosmos_sdtm:linkingPhrase <https://www.cdisc.org/cosmos/sdtm_v1.0/LinkingPhraseEnum#is%20the%20code%20for%20the%20value%20in> ;
    cosmos_sdtm:object "RPTEST" ;
    cosmos_sdtm:predicateTerm <https://www.cdisc.org/cosmos/sdtm_v1.0/PredicateTermEnum#IS_DECODED_BY> ;
    cosmos_sdtm:subject "RPTESTCD" .

<https://w3id.org/cdisc/cosmos/dss/RP/CHILDPOT/RPCAT/relationship> a cosmos_sdtm:RelationShip ;
    cosmos_sdtm:linkingPhrase <https://www.cdisc.org/cosmos/sdtm_v1.0/LinkingPhraseEnum#groups%20values%20in> ;
    cosmos_sdtm:object "RPTESTCD" ;
    cosmos_sdtm:predicateTerm <https://www.cdisc.org/cosmos/sdtm_v1.0/PredicateTermEnum#GROUPS> ;
    cosmos_sdtm:subject "RPCAT" .

<https://w3id.org/cdisc/cosmos/dss/RP/CHILDPOT/RPDTC/relationship> a cosmos_sdtm:RelationShip ;
    cosmos_sdtm:linkingPhrase <https://www.cdisc.org/cosmos/sdtm_v1.0/LinkingPhraseEnum#is%20the%20date%20of%20occurrence%20for> ;
    cosmos_sdtm:object "RPTESTCD" ;
    cosmos_sdtm:predicateTerm <https://www.cdisc.org/cosmos/sdtm_v1.0/PredicateTermEnum#IS_TIMING_FOR> ;
    cosmos_sdtm:subject "RPDTC" .

<https://w3id.org/cdisc/cosmos/dss/RP/CHILDPOT/RPORRES/relationship> a cosmos_sdtm:RelationShip ;
    cosmos_sdtm:linkingPhrase <https://www.cdisc.org/cosmos/sdtm_v1.0/LinkingPhraseEnum#is%20the%20result%20of%20the%20test%20in> ;
    cosmos_sdtm:object "RPTESTCD" ;
    cosmos_sdtm:predicateTerm <https://www.cdisc.org/cosmos/sdtm_v1.0/PredicateTermEnum#IS_RESULT_OF> ;
    cosmos_sdtm:subject "RPORRES" .

<https://w3id.org/cdisc/cosmos/dss/RP/CHILDPOT/RPSTRESC/relationship> a cosmos_sdtm:RelationShip ;
    cosmos_sdtm:linkingPhrase <https://www.cdisc.org/cosmos/sdtm_v1.0/LinkingPhraseEnum#is%20the%20result%20of%20the%20test%20in> ;
    cosmos_sdtm:object "RPTESTCD" ;
    cosmos_sdtm:predicateTerm <https://www.cdisc.org/cosmos/sdtm_v1.0/PredicateTermEnum#IS_RESULT_OF> ;
    cosmos_sdtm:subject "RPSTRESC" .

<https://w3id.org/cdisc/cosmos/dss/RP/CHILDPOT/RPTEST/assignedTerm> a cosmos_sdtm:AssignedTerm ;
    cosmos_sdtm:conceptId NCIT:C106508 ;
    cosmos_sdtm:value "Childbearing Potential" .

<https://w3id.org/cdisc/cosmos/dss/RP/CHILDPOT/RPTEST/relationship> a cosmos_sdtm:RelationShip ;
    cosmos_sdtm:linkingPhrase <https://www.cdisc.org/cosmos/sdtm_v1.0/LinkingPhraseEnum#decodes%20the%20value%20in> ;
    cosmos_sdtm:object "RPTESTCD" ;
    cosmos_sdtm:predicateTerm <https://www.cdisc.org/cosmos/sdtm_v1.0/PredicateTermEnum#DECODES> ;
    cosmos_sdtm:subject "RPTEST" .

<https://w3id.org/cdisc/cosmos/dss/RP/CHILDPOT/RPTESTCD/assignedTerm> a cosmos_sdtm:AssignedTerm ;
    cosmos_sdtm:conceptId NCIT:C106508 ;
    cosmos_sdtm:value "CHILDPOT" .

<https://w3id.org/cdisc/cosmos/dss/RP/CHILDPOT/RPTESTCD/relationship> a cosmos_sdtm:RelationShip ;
    cosmos_sdtm:linkingPhrase <https://www.cdisc.org/cosmos/sdtm_v1.0/LinkingPhraseEnum#is%20the%20code%20for%20the%20value%20in> ;
    cosmos_sdtm:object "RPTEST" ;
    cosmos_sdtm:predicateTerm <https://www.cdisc.org/cosmos/sdtm_v1.0/PredicateTermEnum#IS_DECODED_BY> ;
    cosmos_sdtm:subject "RPTESTCD" .

<https://w3id.org/cdisc/cosmos/dss/RP/CNDMIND/RPCAT/relationship> a cosmos_sdtm:RelationShip ;
    cosmos_sdtm:linkingPhrase <https://www.cdisc.org/cosmos/sdtm_v1.0/LinkingPhraseEnum#groups%20values%20in> ;
    cosmos_sdtm:object "RPTESTCD" ;
    cosmos_sdtm:predicateTerm <https://www.cdisc.org/cosmos/sdtm_v1.0/PredicateTermEnum#GROUPS> ;
    cosmos_sdtm:subject "RPCAT" .

<https://w3id.org/cdisc/cosmos/dss/RP/CNDMIND/RPDTC/relationship> a cosmos_sdtm:RelationShip ;
    cosmos_sdtm:linkingPhrase <https://www.cdisc.org/cosmos/sdtm_v1.0/LinkingPhraseEnum#is%20the%20date%20of%20occurrence%20for> ;
    cosmos_sdtm:object "RPTESTCD" ;
    cosmos_sdtm:predicateTerm <https://www.cdisc.org/cosmos/sdtm_v1.0/PredicateTermEnum#IS_TIMING_FOR> ;
    cosmos_sdtm:subject "RPDTC" .

<https://w3id.org/cdisc/cosmos/dss/RP/CNDMIND/RPORRES/relationship> a cosmos_sdtm:RelationShip ;
    cosmos_sdtm:linkingPhrase <https://www.cdisc.org/cosmos/sdtm_v1.0/LinkingPhraseEnum#is%20the%20result%20of%20the%20test%20in> ;
    cosmos_sdtm:object "RPTESTCD" ;
    cosmos_sdtm:predicateTerm <https://www.cdisc.org/cosmos/sdtm_v1.0/PredicateTermEnum#IS_RESULT_OF> ;
    cosmos_sdtm:subject "RPORRES" .

<https://w3id.org/cdisc/cosmos/dss/RP/CNDMIND/RPSTRESC/relationship> a cosmos_sdtm:RelationShip ;
    cosmos_sdtm:linkingPhrase <https://www.cdisc.org/cosmos/sdtm_v1.0/LinkingPhraseEnum#is%20the%20result%20of%20the%20test%20in> ;
    cosmos_sdtm:object "RPTESTCD" ;
    cosmos_sdtm:predicateTerm <https://www.cdisc.org/cosmos/sdtm_v1.0/PredicateTermEnum#IS_RESULT_OF> ;
    cosmos_sdtm:subject "RPSTRESC" .

<https://w3id.org/cdisc/cosmos/dss/RP/CNDMIND/RPTEST/assignedTerm> a cosmos_sdtm:AssignedTerm ;
    cosmos_sdtm:conceptId NCIT:C181526 ;
    cosmos_sdtm:value "Condom Use Most Recent Sex Interc Ind" .

<https://w3id.org/cdisc/cosmos/dss/RP/CNDMIND/RPTEST/relationship> a cosmos_sdtm:RelationShip ;
    cosmos_sdtm:linkingPhrase <https://www.cdisc.org/cosmos/sdtm_v1.0/LinkingPhraseEnum#decodes%20the%20value%20in> ;
    cosmos_sdtm:object "RPTESTCD" ;
    cosmos_sdtm:predicateTerm <https://www.cdisc.org/cosmos/sdtm_v1.0/PredicateTermEnum#DECODES> ;
    cosmos_sdtm:subject "RPTEST" .

<https://w3id.org/cdisc/cosmos/dss/RP/CNDMIND/RPTESTCD/assignedTerm> a cosmos_sdtm:AssignedTerm ;
    cosmos_sdtm:conceptId NCIT:C181526 ;
    cosmos_sdtm:value "CNDMIND" .

<https://w3id.org/cdisc/cosmos/dss/RP/CNDMIND/RPTESTCD/relationship> a cosmos_sdtm:RelationShip ;
    cosmos_sdtm:linkingPhrase <https://www.cdisc.org/cosmos/sdtm_v1.0/LinkingPhraseEnum#is%20the%20code%20for%20the%20value%20in> ;
    cosmos_sdtm:object "RPTEST" ;
    cosmos_sdtm:predicateTerm <https://www.cdisc.org/cosmos/sdtm_v1.0/PredicateTermEnum#IS_DECODED_BY> ;
    cosmos_sdtm:subject "RPTESTCD" .

<https://w3id.org/cdisc/cosmos/dss/RP/CNDUFRQD/RPCAT/relationship> a cosmos_sdtm:RelationShip ;
    cosmos_sdtm:linkingPhrase <https://www.cdisc.org/cosmos/sdtm_v1.0/LinkingPhraseEnum#groups%20values%20in> ;
    cosmos_sdtm:object "RPTESTCD" ;
    cosmos_sdtm:predicateTerm <https://www.cdisc.org/cosmos/sdtm_v1.0/PredicateTermEnum#GROUPS> ;
    cosmos_sdtm:subject "RPCAT" .

<https://w3id.org/cdisc/cosmos/dss/RP/CNDUFRQD/RPDTC/relationship> a cosmos_sdtm:RelationShip ;
    cosmos_sdtm:linkingPhrase <https://www.cdisc.org/cosmos/sdtm_v1.0/LinkingPhraseEnum#is%20the%20date%20of%20occurrence%20for> ;
    cosmos_sdtm:object "RPTESTCD" ;
    cosmos_sdtm:predicateTerm <https://www.cdisc.org/cosmos/sdtm_v1.0/PredicateTermEnum#IS_TIMING_FOR> ;
    cosmos_sdtm:subject "RPDTC" .

<https://w3id.org/cdisc/cosmos/dss/RP/CNDUFRQD/RPORRES/relationship> a cosmos_sdtm:RelationShip ;
    cosmos_sdtm:linkingPhrase <https://www.cdisc.org/cosmos/sdtm_v1.0/LinkingPhraseEnum#is%20the%20result%20of%20the%20test%20in> ;
    cosmos_sdtm:object "RPTESTCD" ;
    cosmos_sdtm:predicateTerm <https://www.cdisc.org/cosmos/sdtm_v1.0/PredicateTermEnum#IS_RESULT_OF> ;
    cosmos_sdtm:subject "RPORRES" .

<https://w3id.org/cdisc/cosmos/dss/RP/CNDUFRQD/RPSTRESC/relationship> a cosmos_sdtm:RelationShip ;
    cosmos_sdtm:linkingPhrase <https://www.cdisc.org/cosmos/sdtm_v1.0/LinkingPhraseEnum#is%20the%20result%20of%20the%20test%20in> ;
    cosmos_sdtm:object "RPTESTCD" ;
    cosmos_sdtm:predicateTerm <https://www.cdisc.org/cosmos/sdtm_v1.0/PredicateTermEnum#IS_RESULT_OF> ;
    cosmos_sdtm:subject "RPSTRESC" .

<https://w3id.org/cdisc/cosmos/dss/RP/CNDUFRQD/RPTEST/assignedTerm> a cosmos_sdtm:AssignedTerm ;
    cosmos_sdtm:conceptId NCIT:C181527 ;
    cosmos_sdtm:value "Condom Use Frequency Desc" .

<https://w3id.org/cdisc/cosmos/dss/RP/CNDUFRQD/RPTEST/relationship> a cosmos_sdtm:RelationShip ;
    cosmos_sdtm:linkingPhrase <https://www.cdisc.org/cosmos/sdtm_v1.0/LinkingPhraseEnum#decodes%20the%20value%20in> ;
    cosmos_sdtm:object "RPTESTCD" ;
    cosmos_sdtm:predicateTerm <https://www.cdisc.org/cosmos/sdtm_v1.0/PredicateTermEnum#DECODES> ;
    cosmos_sdtm:subject "RPTEST" .

<https://w3id.org/cdisc/cosmos/dss/RP/CNDUFRQD/RPTESTCD/assignedTerm> a cosmos_sdtm:AssignedTerm ;
    cosmos_sdtm:conceptId NCIT:C181527 ;
    cosmos_sdtm:value "CNDUFRQD" .

<https://w3id.org/cdisc/cosmos/dss/RP/CNDUFRQD/RPTESTCD/relationship> a cosmos_sdtm:RelationShip ;
    cosmos_sdtm:linkingPhrase <https://www.cdisc.org/cosmos/sdtm_v1.0/LinkingPhraseEnum#is%20the%20code%20for%20the%20value%20in> ;
    cosmos_sdtm:object "RPTEST" ;
    cosmos_sdtm:predicateTerm <https://www.cdisc.org/cosmos/sdtm_v1.0/PredicateTermEnum#IS_DECODED_BY> ;
    cosmos_sdtm:subject "RPTESTCD" .

<https://w3id.org/cdisc/cosmos/dss/RP/CSRSCTN/RPCAT/relationship> a cosmos_sdtm:RelationShip ;
