@prefix NCIT: <http://purl.obolibrary.org/obo/NCIT_> .
@prefix cosmos_sdtm: <https://www.cdisc.org/cosmos/sdtm_v1.0/> .
@prefix dcterms: <http://purl.org/dc/terms/> .
@prefix owl: <http://www.w3.org/2002/07/owl#> .
@prefix rdf: <http://www.w3.org/1999/02/22-rdf-syntax-ns#> .
@prefix rdfs: <http://www.w3.org/2000/01/rdf-schema#> .
@prefix skos: <http://www.w3.org/2004/02/skos/core#> .
@prefix xsd: <http://www.w3.org/2001/XMLSchema#> .

<https://w3id.org/cdisc/cosmos/dss/FT> a owl:Ontology ;
    rdfs:label "CDISC COSMoS Dataset Specializations, FT (instances)" ;
    dcterms:identifier "2026-07-14" ;
    dcterms:source <https://raw.githubusercontent.com/cdisc-org/COSMoS/031429b1d14823721991cd23ee88a11616686ce3/export/cdisc_sdtm_dataset_specializations_latest.csv> ;
    rdfs:comment "Dataset Specialization instances for domain FT, rendered from the pinned COSMoS export. Variable order is the export's row order, carried as rdf:_n membership beside the variables edges. length and significantDigits are cast from the export's decimal form to integer; packageType is not in the export and is set to the enum's single value. A biomedicalConceptId or dataElementConceptId that resolves to no node is carried as the published string. The concept nodes those edges reach are declared in the Biomedical Concept instance graph, which is not imported. Draft - not a normative CDISC artifact." ;
    owl:imports <https://w3id.org/cdisc/cosmos/sdtm/> ;
    owl:versionIRI <https://w3id.org/cdisc/cosmos/dss/FT/0.4.0> ;
    owl:versionInfo "v0.4.0" .

<https://w3id.org/cdisc/cosmos/dss/FT/ADCCMD> a cosmos_sdtm:SDTMGroup ;
    dcterms:identifier "ADCCMD" ;
    rdf:_1 <https://w3id.org/cdisc/cosmos/dss/FT/ADCCMD/FTTESTCD> ;
    rdf:_10 <https://w3id.org/cdisc/cosmos/dss/FT/ADCCMD/FTDTC> ;
    rdf:_2 <https://w3id.org/cdisc/cosmos/dss/FT/ADCCMD/FTTEST> ;
    rdf:_3 <https://w3id.org/cdisc/cosmos/dss/FT/ADCCMD/FTCAT> ;
    rdf:_4 <https://w3id.org/cdisc/cosmos/dss/FT/ADCCMD/FTSCAT> ;
    rdf:_5 <https://w3id.org/cdisc/cosmos/dss/FT/ADCCMD/FTORRES> ;
    rdf:_6 <https://w3id.org/cdisc/cosmos/dss/FT/ADCCMD/FTSTRESC> ;
    rdf:_7 <https://w3id.org/cdisc/cosmos/dss/FT/ADCCMD/FTSTRESN> ;
    rdf:_8 <https://w3id.org/cdisc/cosmos/dss/FT/ADCCMD/FTSTAT> ;
    rdf:_9 <https://w3id.org/cdisc/cosmos/dss/FT/ADCCMD/FTREASND> ;
    cosmos_sdtm:biomedicalConceptId NCIT:C100209 ;
    cosmos_sdtm:domain "FT" ;
    cosmos_sdtm:packageDate "2026-05-26"^^xsd:date ;
    cosmos_sdtm:packageType <https://www.cdisc.org/cosmos/sdtm_v1.0/PackageTypeEnum#sdtm> ;
    cosmos_sdtm:sdtmigStartVersion "3-2" ;
    cosmos_sdtm:shortName "CDISC ADAS-Cog - Commands Summary Score" ;
    cosmos_sdtm:source "FT.FTTESTCD" ;
    cosmos_sdtm:variables <https://w3id.org/cdisc/cosmos/dss/FT/ADCCMD/FTCAT>,
        <https://w3id.org/cdisc/cosmos/dss/FT/ADCCMD/FTDTC>,
        <https://w3id.org/cdisc/cosmos/dss/FT/ADCCMD/FTORRES>,
        <https://w3id.org/cdisc/cosmos/dss/FT/ADCCMD/FTREASND>,
        <https://w3id.org/cdisc/cosmos/dss/FT/ADCCMD/FTSCAT>,
        <https://w3id.org/cdisc/cosmos/dss/FT/ADCCMD/FTSTAT>,
        <https://w3id.org/cdisc/cosmos/dss/FT/ADCCMD/FTSTRESC>,
        <https://w3id.org/cdisc/cosmos/dss/FT/ADCCMD/FTSTRESN>,
        <https://w3id.org/cdisc/cosmos/dss/FT/ADCCMD/FTTEST>,
        <https://w3id.org/cdisc/cosmos/dss/FT/ADCCMD/FTTESTCD> .

<https://w3id.org/cdisc/cosmos/dss/FT/ADCCMP> a cosmos_sdtm:SDTMGroup ;
    dcterms:identifier "ADCCMP" ;
    rdf:_1 <https://w3id.org/cdisc/cosmos/dss/FT/ADCCMP/FTTESTCD> ;
    rdf:_10 <https://w3id.org/cdisc/cosmos/dss/FT/ADCCMP/FTDTC> ;
    rdf:_2 <https://w3id.org/cdisc/cosmos/dss/FT/ADCCMP/FTTEST> ;
    rdf:_3 <https://w3id.org/cdisc/cosmos/dss/FT/ADCCMP/FTCAT> ;
    rdf:_4 <https://w3id.org/cdisc/cosmos/dss/FT/ADCCMP/FTSCAT> ;
    rdf:_5 <https://w3id.org/cdisc/cosmos/dss/FT/ADCCMP/FTORRES> ;
    rdf:_6 <https://w3id.org/cdisc/cosmos/dss/FT/ADCCMP/FTSTRESC> ;
    rdf:_7 <https://w3id.org/cdisc/cosmos/dss/FT/ADCCMP/FTSTRESN> ;
    rdf:_8 <https://w3id.org/cdisc/cosmos/dss/FT/ADCCMP/FTSTAT> ;
    rdf:_9 <https://w3id.org/cdisc/cosmos/dss/FT/ADCCMP/FTREASND> ;
    cosmos_sdtm:biomedicalConceptId NCIT:C100278 ;
    cosmos_sdtm:domain "FT" ;
    cosmos_sdtm:packageDate "2026-05-26"^^xsd:date ;
    cosmos_sdtm:packageType <https://www.cdisc.org/cosmos/sdtm_v1.0/PackageTypeEnum#sdtm> ;
    cosmos_sdtm:sdtmigStartVersion "3-2" ;
    cosmos_sdtm:shortName "CDISC ADAS-Cog - Comprehension" ;
    cosmos_sdtm:source "FT.FTTESTCD" ;
    cosmos_sdtm:variables <https://w3id.org/cdisc/cosmos/dss/FT/ADCCMP/FTCAT>,
        <https://w3id.org/cdisc/cosmos/dss/FT/ADCCMP/FTDTC>,
        <https://w3id.org/cdisc/cosmos/dss/FT/ADCCMP/FTORRES>,
        <https://w3id.org/cdisc/cosmos/dss/FT/ADCCMP/FTREASND>,
        <https://w3id.org/cdisc/cosmos/dss/FT/ADCCMP/FTSCAT>,
        <https://w3id.org/cdisc/cosmos/dss/FT/ADCCMP/FTSTAT>,
        <https://w3id.org/cdisc/cosmos/dss/FT/ADCCMP/FTSTRESC>,
        <https://w3id.org/cdisc/cosmos/dss/FT/ADCCMP/FTSTRESN>,
        <https://w3id.org/cdisc/cosmos/dss/FT/ADCCMP/FTTEST>,
        <https://w3id.org/cdisc/cosmos/dss/FT/ADCCMP/FTTESTCD> .

<https://w3id.org/cdisc/cosmos/dss/FT/ADCCON> a cosmos_sdtm:SDTMGroup ;
    dcterms:identifier "ADCCON" ;
    rdf:_1 <https://w3id.org/cdisc/cosmos/dss/FT/ADCCON/FTTESTCD> ;
    rdf:_10 <https://w3id.org/cdisc/cosmos/dss/FT/ADCCON/FTDTC> ;
    rdf:_2 <https://w3id.org/cdisc/cosmos/dss/FT/ADCCON/FTTEST> ;
    rdf:_3 <https://w3id.org/cdisc/cosmos/dss/FT/ADCCON/FTCAT> ;
    rdf:_4 <https://w3id.org/cdisc/cosmos/dss/FT/ADCCON/FTSCAT> ;
    rdf:_5 <https://w3id.org/cdisc/cosmos/dss/FT/ADCCON/FTORRES> ;
    rdf:_6 <https://w3id.org/cdisc/cosmos/dss/FT/ADCCON/FTSTRESC> ;
    rdf:_7 <https://w3id.org/cdisc/cosmos/dss/FT/ADCCON/FTSTRESN> ;
    rdf:_8 <https://w3id.org/cdisc/cosmos/dss/FT/ADCCON/FTSTAT> ;
    rdf:_9 <https://w3id.org/cdisc/cosmos/dss/FT/ADCCON/FTREASND> ;
    cosmos_sdtm:biomedicalConceptId NCIT:C100279 ;
    cosmos_sdtm:domain "FT" ;
    cosmos_sdtm:packageDate "2026-05-26"^^xsd:date ;
    cosmos_sdtm:packageType <https://www.cdisc.org/cosmos/sdtm_v1.0/PackageTypeEnum#sdtm> ;
    cosmos_sdtm:sdtmigStartVersion "3-2" ;
    cosmos_sdtm:shortName "CDISC ADAS-Cog - Concentration/Distractibility" ;
    cosmos_sdtm:source "FT.FTTESTCD" ;
    cosmos_sdtm:variables <https://w3id.org/cdisc/cosmos/dss/FT/ADCCON/FTCAT>,
        <https://w3id.org/cdisc/cosmos/dss/FT/ADCCON/FTDTC>,
        <https://w3id.org/cdisc/cosmos/dss/FT/ADCCON/FTORRES>,
        <https://w3id.org/cdisc/cosmos/dss/FT/ADCCON/FTREASND>,
        <https://w3id.org/cdisc/cosmos/dss/FT/ADCCON/FTSCAT>,
        <https://w3id.org/cdisc/cosmos/dss/FT/ADCCON/FTSTAT>,
        <https://w3id.org/cdisc/cosmos/dss/FT/ADCCON/FTSTRESC>,
        <https://w3id.org/cdisc/cosmos/dss/FT/ADCCON/FTSTRESN>,
        <https://w3id.org/cdisc/cosmos/dss/FT/ADCCON/FTTEST>,
        <https://w3id.org/cdisc/cosmos/dss/FT/ADCCON/FTTESTCD> .

<https://w3id.org/cdisc/cosmos/dss/FT/ADCCP> a cosmos_sdtm:SDTMGroup ;
    dcterms:identifier "ADCCP" ;
    rdf:_1 <https://w3id.org/cdisc/cosmos/dss/FT/ADCCP/FTTESTCD> ;
    rdf:_10 <https://w3id.org/cdisc/cosmos/dss/FT/ADCCP/FTDTC> ;
    rdf:_2 <https://w3id.org/cdisc/cosmos/dss/FT/ADCCP/FTTEST> ;
    rdf:_3 <https://w3id.org/cdisc/cosmos/dss/FT/ADCCP/FTCAT> ;
    rdf:_4 <https://w3id.org/cdisc/cosmos/dss/FT/ADCCP/FTSCAT> ;
    rdf:_5 <https://w3id.org/cdisc/cosmos/dss/FT/ADCCP/FTORRES> ;
    rdf:_6 <https://w3id.org/cdisc/cosmos/dss/FT/ADCCP/FTSTRESC> ;
    rdf:_7 <https://w3id.org/cdisc/cosmos/dss/FT/ADCCP/FTSTRESN> ;
    rdf:_8 <https://w3id.org/cdisc/cosmos/dss/FT/ADCCP/FTSTAT> ;
    rdf:_9 <https://w3id.org/cdisc/cosmos/dss/FT/ADCCP/FTREASND> ;
    cosmos_sdtm:biomedicalConceptId NCIT:C100226 ;
    cosmos_sdtm:domain "FT" ;
    cosmos_sdtm:packageDate "2026-05-26"^^xsd:date ;
    cosmos_sdtm:packageType <https://www.cdisc.org/cosmos/sdtm_v1.0/PackageTypeEnum#sdtm> ;
    cosmos_sdtm:sdtmigStartVersion "3-2" ;
    cosmos_sdtm:shortName "CDISC ADAS-Cog - Constructional Praxis Summary Score" ;
    cosmos_sdtm:source "FT.FTTESTCD" ;
    cosmos_sdtm:variables <https://w3id.org/cdisc/cosmos/dss/FT/ADCCP/FTCAT>,
        <https://w3id.org/cdisc/cosmos/dss/FT/ADCCP/FTDTC>,
        <https://w3id.org/cdisc/cosmos/dss/FT/ADCCP/FTORRES>,
        <https://w3id.org/cdisc/cosmos/dss/FT/ADCCP/FTREASND>,
        <https://w3id.org/cdisc/cosmos/dss/FT/ADCCP/FTSCAT>,
        <https://w3id.org/cdisc/cosmos/dss/FT/ADCCP/FTSTAT>,
        <https://w3id.org/cdisc/cosmos/dss/FT/ADCCP/FTSTRESC>,
        <https://w3id.org/cdisc/cosmos/dss/FT/ADCCP/FTSTRESN>,
        <https://w3id.org/cdisc/cosmos/dss/FT/ADCCP/FTTEST>,
        <https://w3id.org/cdisc/cosmos/dss/FT/ADCCP/FTTESTCD> .

<https://w3id.org/cdisc/cosmos/dss/FT/ADCDIF> a cosmos_sdtm:SDTMGroup ;
    dcterms:identifier "ADCDIF" ;
    rdf:_1 <https://w3id.org/cdisc/cosmos/dss/FT/ADCDIF/FTTESTCD> ;
    rdf:_10 <https://w3id.org/cdisc/cosmos/dss/FT/ADCDIF/FTDTC> ;
    rdf:_2 <https://w3id.org/cdisc/cosmos/dss/FT/ADCDIF/FTTEST> ;
    rdf:_3 <https://w3id.org/cdisc/cosmos/dss/FT/ADCDIF/FTCAT> ;
    rdf:_4 <https://w3id.org/cdisc/cosmos/dss/FT/ADCDIF/FTSCAT> ;
    rdf:_5 <https://w3id.org/cdisc/cosmos/dss/FT/ADCDIF/FTORRES> ;
    rdf:_6 <https://w3id.org/cdisc/cosmos/dss/FT/ADCDIF/FTSTRESC> ;
    rdf:_7 <https://w3id.org/cdisc/cosmos/dss/FT/ADCDIF/FTSTRESN> ;
    rdf:_8 <https://w3id.org/cdisc/cosmos/dss/FT/ADCDIF/FTSTAT> ;
    rdf:_9 <https://w3id.org/cdisc/cosmos/dss/FT/ADCDIF/FTREASND> ;
    cosmos_sdtm:biomedicalConceptId NCIT:C100277 ;
    cosmos_sdtm:domain "FT" ;
    cosmos_sdtm:packageDate "2026-05-26"^^xsd:date ;
    cosmos_sdtm:packageType <https://www.cdisc.org/cosmos/sdtm_v1.0/PackageTypeEnum#sdtm> ;
    cosmos_sdtm:sdtmigStartVersion "3-2" ;
    cosmos_sdtm:shortName "CDISC ADAS-Cog - Word Difficulty in Spontaneous Speech" ;
    cosmos_sdtm:source "FT.FTTESTCD" ;
    cosmos_sdtm:variables <https://w3id.org/cdisc/cosmos/dss/FT/ADCDIF/FTCAT>,
        <https://w3id.org/cdisc/cosmos/dss/FT/ADCDIF/FTDTC>,
        <https://w3id.org/cdisc/cosmos/dss/FT/ADCDIF/FTORRES>,
        <https://w3id.org/cdisc/cosmos/dss/FT/ADCDIF/FTREASND>,
        <https://w3id.org/cdisc/cosmos/dss/FT/ADCDIF/FTSCAT>,
        <https://w3id.org/cdisc/cosmos/dss/FT/ADCDIF/FTSTAT>,
        <https://w3id.org/cdisc/cosmos/dss/FT/ADCDIF/FTSTRESC>,
        <https://w3id.org/cdisc/cosmos/dss/FT/ADCDIF/FTSTRESN>,
        <https://w3id.org/cdisc/cosmos/dss/FT/ADCDIF/FTTEST>,
        <https://w3id.org/cdisc/cosmos/dss/FT/ADCDIF/FTTESTCD> .

<https://w3id.org/cdisc/cosmos/dss/FT/ADCDRL> a cosmos_sdtm:SDTMGroup ;
    dcterms:identifier "ADCDRL" ;
    rdf:_1 <https://w3id.org/cdisc/cosmos/dss/FT/ADCDRL/FTTESTCD> ;
    rdf:_10 <https://w3id.org/cdisc/cosmos/dss/FT/ADCDRL/FTDTC> ;
    rdf:_2 <https://w3id.org/cdisc/cosmos/dss/FT/ADCDRL/FTTEST> ;
    rdf:_3 <https://w3id.org/cdisc/cosmos/dss/FT/ADCDRL/FTCAT> ;
    rdf:_4 <https://w3id.org/cdisc/cosmos/dss/FT/ADCDRL/FTSCAT> ;
    rdf:_5 <https://w3id.org/cdisc/cosmos/dss/FT/ADCDRL/FTORRES> ;
    rdf:_6 <https://w3id.org/cdisc/cosmos/dss/FT/ADCDRL/FTSTRESC> ;
    rdf:_7 <https://w3id.org/cdisc/cosmos/dss/FT/ADCDRL/FTSTRESN> ;
    rdf:_8 <https://w3id.org/cdisc/cosmos/dss/FT/ADCDRL/FTSTAT> ;
    rdf:_9 <https://w3id.org/cdisc/cosmos/dss/FT/ADCDRL/FTREASND> ;
    cosmos_sdtm:biomedicalConceptId NCIT:C100215 ;
    cosmos_sdtm:domain "FT" ;
    cosmos_sdtm:packageDate "2026-05-26"^^xsd:date ;
    cosmos_sdtm:packageType <https://www.cdisc.org/cosmos/sdtm_v1.0/PackageTypeEnum#sdtm> ;
    cosmos_sdtm:sdtmigStartVersion "3-2" ;
    cosmos_sdtm:shortName "CDISC ADAS-Cog - Delayed Word Recall Summary Score" ;
    cosmos_sdtm:source "FT.FTTESTCD" ;
    cosmos_sdtm:variables <https://w3id.org/cdisc/cosmos/dss/FT/ADCDRL/FTCAT>,
        <https://w3id.org/cdisc/cosmos/dss/FT/ADCDRL/FTDTC>,
        <https://w3id.org/cdisc/cosmos/dss/FT/ADCDRL/FTORRES>,
        <https://w3id.org/cdisc/cosmos/dss/FT/ADCDRL/FTREASND>,
        <https://w3id.org/cdisc/cosmos/dss/FT/ADCDRL/FTSCAT>,
        <https://w3id.org/cdisc/cosmos/dss/FT/ADCDRL/FTSTAT>,
        <https://w3id.org/cdisc/cosmos/dss/FT/ADCDRL/FTSTRESC>,
        <https://w3id.org/cdisc/cosmos/dss/FT/ADCDRL/FTSTRESN>,
        <https://w3id.org/cdisc/cosmos/dss/FT/ADCDRL/FTTEST>,
        <https://w3id.org/cdisc/cosmos/dss/FT/ADCDRL/FTTESTCD> .

<https://w3id.org/cdisc/cosmos/dss/FT/ADCIP> a cosmos_sdtm:SDTMGroup ;
    dcterms:identifier "ADCIP" ;
    rdf:_1 <https://w3id.org/cdisc/cosmos/dss/FT/ADCIP/FTTESTCD> ;
    rdf:_10 <https://w3id.org/cdisc/cosmos/dss/FT/ADCIP/FTDTC> ;
    rdf:_2 <https://w3id.org/cdisc/cosmos/dss/FT/ADCIP/FTTEST> ;
    rdf:_3 <https://w3id.org/cdisc/cosmos/dss/FT/ADCIP/FTCAT> ;
    rdf:_4 <https://w3id.org/cdisc/cosmos/dss/FT/ADCIP/FTSCAT> ;
    rdf:_5 <https://w3id.org/cdisc/cosmos/dss/FT/ADCIP/FTORRES> ;
    rdf:_6 <https://w3id.org/cdisc/cosmos/dss/FT/ADCIP/FTSTRESC> ;
    rdf:_7 <https://w3id.org/cdisc/cosmos/dss/FT/ADCIP/FTSTRESN> ;
    rdf:_8 <https://w3id.org/cdisc/cosmos/dss/FT/ADCIP/FTSTAT> ;
    rdf:_9 <https://w3id.org/cdisc/cosmos/dss/FT/ADCIP/FTREASND> ;
    cosmos_sdtm:biomedicalConceptId NCIT:C100232 ;
    cosmos_sdtm:domain "FT" ;
    cosmos_sdtm:packageDate "2026-05-26"^^xsd:date ;
    cosmos_sdtm:packageType <https://www.cdisc.org/cosmos/sdtm_v1.0/PackageTypeEnum#sdtm> ;
    cosmos_sdtm:sdtmigStartVersion "3-2" ;
    cosmos_sdtm:shortName "CDISC ADAS-Cog - Ideational Praxis Summary Score" ;
    cosmos_sdtm:source "FT.FTTESTCD" ;
    cosmos_sdtm:variables <https://w3id.org/cdisc/cosmos/dss/FT/ADCIP/FTCAT>,
        <https://w3id.org/cdisc/cosmos/dss/FT/ADCIP/FTDTC>,
        <https://w3id.org/cdisc/cosmos/dss/FT/ADCIP/FTORRES>,
        <https://w3id.org/cdisc/cosmos/dss/FT/ADCIP/FTREASND>,
        <https://w3id.org/cdisc/cosmos/dss/FT/ADCIP/FTSCAT>,
        <https://w3id.org/cdisc/cosmos/dss/FT/ADCIP/FTSTAT>,
        <https://w3id.org/cdisc/cosmos/dss/FT/ADCIP/FTSTRESC>,
        <https://w3id.org/cdisc/cosmos/dss/FT/ADCIP/FTSTRESN>,
        <https://w3id.org/cdisc/cosmos/dss/FT/ADCIP/FTTEST>,
        <https://w3id.org/cdisc/cosmos/dss/FT/ADCIP/FTTESTCD> .

<https://w3id.org/cdisc/cosmos/dss/FT/ADCMZ01> a cosmos_sdtm:SDTMGroup ;
    dcterms:identifier "ADCMZ01" ;
    rdf:_1 <https://w3id.org/cdisc/cosmos/dss/FT/ADCMZ01/FTTESTCD> ;
    rdf:_10 <https://w3id.org/cdisc/cosmos/dss/FT/ADCMZ01/FTDTC> ;
    rdf:_2 <https://w3id.org/cdisc/cosmos/dss/FT/ADCMZ01/FTTEST> ;
    rdf:_3 <https://w3id.org/cdisc/cosmos/dss/FT/ADCMZ01/FTCAT> ;
    rdf:_4 <https://w3id.org/cdisc/cosmos/dss/FT/ADCMZ01/FTSCAT> ;
    rdf:_5 <https://w3id.org/cdisc/cosmos/dss/FT/ADCMZ01/FTORRES> ;
    rdf:_6 <https://w3id.org/cdisc/cosmos/dss/FT/ADCMZ01/FTSTRESC> ;
    rdf:_7 <https://w3id.org/cdisc/cosmos/dss/FT/ADCMZ01/FTSTRESN> ;
    rdf:_8 <https://w3id.org/cdisc/cosmos/dss/FT/ADCMZ01/FTSTAT> ;
    rdf:_9 <https://w3id.org/cdisc/cosmos/dss/FT/ADCMZ01/FTREASND> ;
    cosmos_sdtm:biomedicalConceptId NCIT:C100285 ;
    cosmos_sdtm:domain "FT" ;
    cosmos_sdtm:packageDate "2026-05-26"^^xsd:date ;
    cosmos_sdtm:packageType <https://www.cdisc.org/cosmos/sdtm_v1.0/PackageTypeEnum#sdtm> ;
    cosmos_sdtm:sdtmigStartVersion "3-2" ;
    cosmos_sdtm:shortName "CDISC ADAS-Cog - Executive Function Maze: Errors" ;
    cosmos_sdtm:source "FT.FTTESTCD" ;
    cosmos_sdtm:variables <https://w3id.org/cdisc/cosmos/dss/FT/ADCMZ01/FTCAT>,
        <https://w3id.org/cdisc/cosmos/dss/FT/ADCMZ01/FTDTC>,
        <https://w3id.org/cdisc/cosmos/dss/FT/ADCMZ01/FTORRES>,
        <https://w3id.org/cdisc/cosmos/dss/FT/ADCMZ01/FTREASND>,
        <https://w3id.org/cdisc/cosmos/dss/FT/ADCMZ01/FTSCAT>,
        <https://w3id.org/cdisc/cosmos/dss/FT/ADCMZ01/FTSTAT>,
        <https://w3id.org/cdisc/cosmos/dss/FT/ADCMZ01/FTSTRESC>,
        <https://w3id.org/cdisc/cosmos/dss/FT/ADCMZ01/FTSTRESN>,
        <https://w3id.org/cdisc/cosmos/dss/FT/ADCMZ01/FTTEST>,
        <https://w3id.org/cdisc/cosmos/dss/FT/ADCMZ01/FTTESTCD> .

<https://w3id.org/cdisc/cosmos/dss/FT/ADCMZ02> a cosmos_sdtm:SDTMGroup ;
    dcterms:identifier "ADCMZ02" ;
    rdf:_1 <https://w3id.org/cdisc/cosmos/dss/FT/ADCMZ02/FTTESTCD> ;
    rdf:_10 <https://w3id.org/cdisc/cosmos/dss/FT/ADCMZ02/FTSTAT> ;
    rdf:_11 <https://w3id.org/cdisc/cosmos/dss/FT/ADCMZ02/FTREASND> ;
    rdf:_12 <https://w3id.org/cdisc/cosmos/dss/FT/ADCMZ02/FTDTC> ;
    rdf:_2 <https://w3id.org/cdisc/cosmos/dss/FT/ADCMZ02/FTTEST> ;
    rdf:_3 <https://w3id.org/cdisc/cosmos/dss/FT/ADCMZ02/FTCAT> ;
    rdf:_4 <https://w3id.org/cdisc/cosmos/dss/FT/ADCMZ02/FTSCAT> ;
    rdf:_5 <https://w3id.org/cdisc/cosmos/dss/FT/ADCMZ02/FTORRES> ;
    rdf:_6 <https://w3id.org/cdisc/cosmos/dss/FT/ADCMZ02/FTORRESU> ;
    rdf:_7 <https://w3id.org/cdisc/cosmos/dss/FT/ADCMZ02/FTSTRESC> ;
    rdf:_8 <https://w3id.org/cdisc/cosmos/dss/FT/ADCMZ02/FTSTRESN> ;
    rdf:_9 <https://w3id.org/cdisc/cosmos/dss/FT/ADCMZ02/FTSTRESU> ;
    cosmos_sdtm:biomedicalConceptId NCIT:C100286 ;
    cosmos_sdtm:domain "FT" ;
    cosmos_sdtm:packageDate "2026-05-26"^^xsd:date ;
    cosmos_sdtm:packageType <https://www.cdisc.org/cosmos/sdtm_v1.0/PackageTypeEnum#sdtm> ;
    cosmos_sdtm:sdtmigStartVersion "3-2" ;
    cosmos_sdtm:shortName "CDISC ADAS-Cog - Executive Function Maze: Time" ;
    cosmos_sdtm:source "FT.FTTESTCD" ;
    cosmos_sdtm:variables <https://w3id.org/cdisc/cosmos/dss/FT/ADCMZ02/FTCAT>,
        <https://w3id.org/cdisc/cosmos/dss/FT/ADCMZ02/FTDTC>,
        <https://w3id.org/cdisc/cosmos/dss/FT/ADCMZ02/FTORRES>,
        <https://w3id.org/cdisc/cosmos/dss/FT/ADCMZ02/FTORRESU>,
        <https://w3id.org/cdisc/cosmos/dss/FT/ADCMZ02/FTREASND>,
        <https://w3id.org/cdisc/cosmos/dss/FT/ADCMZ02/FTSCAT>,
        <https://w3id.org/cdisc/cosmos/dss/FT/ADCMZ02/FTSTAT>,
        <https://w3id.org/cdisc/cosmos/dss/FT/ADCMZ02/FTSTRESC>,
        <https://w3id.org/cdisc/cosmos/dss/FT/ADCMZ02/FTSTRESN>,
        <https://w3id.org/cdisc/cosmos/dss/FT/ADCMZ02/FTSTRESU>,
        <https://w3id.org/cdisc/cosmos/dss/FT/ADCMZ02/FTTEST>,
        <https://w3id.org/cdisc/cosmos/dss/FT/ADCMZ02/FTTESTCD> .

<https://w3id.org/cdisc/cosmos/dss/FT/ADCNC> a cosmos_sdtm:SDTMGroup ;
    dcterms:identifier "ADCNC" ;
    rdf:_1 <https://w3id.org/cdisc/cosmos/dss/FT/ADCNC/FTTESTCD> ;
    rdf:_10 <https://w3id.org/cdisc/cosmos/dss/FT/ADCNC/FTDTC> ;
    rdf:_2 <https://w3id.org/cdisc/cosmos/dss/FT/ADCNC/FTTEST> ;
    rdf:_3 <https://w3id.org/cdisc/cosmos/dss/FT/ADCNC/FTCAT> ;
    rdf:_4 <https://w3id.org/cdisc/cosmos/dss/FT/ADCNC/FTSCAT> ;
    rdf:_5 <https://w3id.org/cdisc/cosmos/dss/FT/ADCNC/FTORRES> ;
    rdf:_6 <https://w3id.org/cdisc/cosmos/dss/FT/ADCNC/FTSTRESC> ;
    rdf:_7 <https://w3id.org/cdisc/cosmos/dss/FT/ADCNC/FTSTRESN> ;
    rdf:_8 <https://w3id.org/cdisc/cosmos/dss/FT/ADCNC/FTSTAT> ;
    rdf:_9 <https://w3id.org/cdisc/cosmos/dss/FT/ADCNC/FTREASND> ;
    cosmos_sdtm:biomedicalConceptId NCIT:C100280 ;
    cosmos_sdtm:domain "FT" ;
    cosmos_sdtm:packageDate "2026-05-26"^^xsd:date ;
    cosmos_sdtm:packageType <https://www.cdisc.org/cosmos/sdtm_v1.0/PackageTypeEnum#sdtm> ;
    cosmos_sdtm:sdtmigStartVersion "3-2" ;
    cosmos_sdtm:shortName "CDISC ADAS-Cog - Number Cancellation Summary Score" ;
    cosmos_sdtm:source "FT.FTTESTCD" ;
    cosmos_sdtm:variables <https://w3id.org/cdisc/cosmos/dss/FT/ADCNC/FTCAT>,
        <https://w3id.org/cdisc/cosmos/dss/FT/ADCNC/FTDTC>,
        <https://w3id.org/cdisc/cosmos/dss/FT/ADCNC/FTORRES>,
        <https://w3id.org/cdisc/cosmos/dss/FT/ADCNC/FTREASND>,
        <https://w3id.org/cdisc/cosmos/dss/FT/ADCNC/FTSCAT>,
        <https://w3id.org/cdisc/cosmos/dss/FT/ADCNC/FTSTAT>,
        <https://w3id.org/cdisc/cosmos/dss/FT/ADCNC/FTSTRESC>,
        <https://w3id.org/cdisc/cosmos/dss/FT/ADCNC/FTSTRESN>,
        <https://w3id.org/cdisc/cosmos/dss/FT/ADCNC/FTTEST>,
        <https://w3id.org/cdisc/cosmos/dss/FT/ADCNC/FTTESTCD> .

<https://w3id.org/cdisc/cosmos/dss/FT/ADCOF> a cosmos_sdtm:SDTMGroup ;
    dcterms:identifier "ADCOF" ;
    rdf:_1 <https://w3id.org/cdisc/cosmos/dss/FT/ADCOF/FTTESTCD> ;
    rdf:_10 <https://w3id.org/cdisc/cosmos/dss/FT/ADCOF/FTDTC> ;
    rdf:_2 <https://w3id.org/cdisc/cosmos/dss/FT/ADCOF/FTTEST> ;
    rdf:_3 <https://w3id.org/cdisc/cosmos/dss/FT/ADCOF/FTCAT> ;
    rdf:_4 <https://w3id.org/cdisc/cosmos/dss/FT/ADCOF/FTSCAT> ;
    rdf:_5 <https://w3id.org/cdisc/cosmos/dss/FT/ADCOF/FTORRES> ;
    rdf:_6 <https://w3id.org/cdisc/cosmos/dss/FT/ADCOF/FTSTRESC> ;
    rdf:_7 <https://w3id.org/cdisc/cosmos/dss/FT/ADCOF/FTSTRESN> ;
    rdf:_8 <https://w3id.org/cdisc/cosmos/dss/FT/ADCOF/FTSTAT> ;
    rdf:_9 <https://w3id.org/cdisc/cosmos/dss/FT/ADCOF/FTREASND> ;
    cosmos_sdtm:biomedicalConceptId NCIT:C100191 ;
    cosmos_sdtm:domain "FT" ;
    cosmos_sdtm:packageDate "2026-05-26"^^xsd:date ;
    cosmos_sdtm:packageType <https://www.cdisc.org/cosmos/sdtm_v1.0/PackageTypeEnum#sdtm> ;
    cosmos_sdtm:sdtmigStartVersion "3-2" ;
    cosmos_sdtm:shortName "CDISC ADAS-Cog - Naming Objects and Fingers Summary Score" ;
    cosmos_sdtm:source "FT.FTTESTCD" ;
    cosmos_sdtm:variables <https://w3id.org/cdisc/cosmos/dss/FT/ADCOF/FTCAT>,
        <https://w3id.org/cdisc/cosmos/dss/FT/ADCOF/FTDTC>,
        <https://w3id.org/cdisc/cosmos/dss/FT/ADCOF/FTORRES>,
        <https://w3id.org/cdisc/cosmos/dss/FT/ADCOF/FTREASND>,
        <https://w3id.org/cdisc/cosmos/dss/FT/ADCOF/FTSCAT>,
        <https://w3id.org/cdisc/cosmos/dss/FT/ADCOF/FTSTAT>,
        <https://w3id.org/cdisc/cosmos/dss/FT/ADCOF/FTSTRESC>,
        <https://w3id.org/cdisc/cosmos/dss/FT/ADCOF/FTSTRESN>,
        <https://w3id.org/cdisc/cosmos/dss/FT/ADCOF/FTTEST>,
        <https://w3id.org/cdisc/cosmos/dss/FT/ADCOF/FTTESTCD> .

<https://w3id.org/cdisc/cosmos/dss/FT/ADCOR> a cosmos_sdtm:SDTMGroup ;
    dcterms:identifier "ADCOR" ;
    rdf:_1 <https://w3id.org/cdisc/cosmos/dss/FT/ADCOR/FTTESTCD> ;
    rdf:_10 <https://w3id.org/cdisc/cosmos/dss/FT/ADCOR/FTDTC> ;
    rdf:_2 <https://w3id.org/cdisc/cosmos/dss/FT/ADCOR/FTTEST> ;
    rdf:_3 <https://w3id.org/cdisc/cosmos/dss/FT/ADCOR/FTCAT> ;
    rdf:_4 <https://w3id.org/cdisc/cosmos/dss/FT/ADCOR/FTSCAT> ;
    rdf:_5 <https://w3id.org/cdisc/cosmos/dss/FT/ADCOR/FTORRES> ;
    rdf:_6 <https://w3id.org/cdisc/cosmos/dss/FT/ADCOR/FTSTRESC> ;
    rdf:_7 <https://w3id.org/cdisc/cosmos/dss/FT/ADCOR/FTSTRESN> ;
    rdf:_8 <https://w3id.org/cdisc/cosmos/dss/FT/ADCOR/FTSTAT> ;
    rdf:_9 <https://w3id.org/cdisc/cosmos/dss/FT/ADCOR/FTREASND> ;
    cosmos_sdtm:biomedicalConceptId NCIT:C100238 ;
    cosmos_sdtm:domain "FT" ;
    cosmos_sdtm:packageDate "2026-05-26"^^xsd:date ;
    cosmos_sdtm:packageType <https://www.cdisc.org/cosmos/sdtm_v1.0/PackageTypeEnum#sdtm> ;
    cosmos_sdtm:sdtmigStartVersion "3-2" ;
    cosmos_sdtm:shortName "CDISC ADAS-Cog - Orientation Summary Score" ;
    cosmos_sdtm:source "FT.FTTESTCD" ;
    cosmos_sdtm:variables <https://w3id.org/cdisc/cosmos/dss/FT/ADCOR/FTCAT>,
        <https://w3id.org/cdisc/cosmos/dss/FT/ADCOR/FTDTC>,
        <https://w3id.org/cdisc/cosmos/dss/FT/ADCOR/FTORRES>,
        <https://w3id.org/cdisc/cosmos/dss/FT/ADCOR/FTREASND>,
        <https://w3id.org/cdisc/cosmos/dss/FT/ADCOR/FTSCAT>,
        <https://w3id.org/cdisc/cosmos/dss/FT/ADCOR/FTSTAT>,
        <https://w3id.org/cdisc/cosmos/dss/FT/ADCOR/FTSTRESC>,
        <https://w3id.org/cdisc/cosmos/dss/FT/ADCOR/FTSTRESN>,
        <https://w3id.org/cdisc/cosmos/dss/FT/ADCOR/FTTEST>,
        <https://w3id.org/cdisc/cosmos/dss/FT/ADCOR/FTTESTCD> .

<https://w3id.org/cdisc/cosmos/dss/FT/ADCRG> a cosmos_sdtm:SDTMGroup ;
    dcterms:identifier "ADCRG" ;
    rdf:_1 <https://w3id.org/cdisc/cosmos/dss/FT/ADCRG/FTTESTCD> ;
    rdf:_10 <https://w3id.org/cdisc/cosmos/dss/FT/ADCRG/FTDTC> ;
    rdf:_2 <https://w3id.org/cdisc/cosmos/dss/FT/ADCRG/FTTEST> ;
    rdf:_3 <https://w3id.org/cdisc/cosmos/dss/FT/ADCRG/FTCAT> ;
    rdf:_4 <https://w3id.org/cdisc/cosmos/dss/FT/ADCRG/FTSCAT> ;
    rdf:_5 <https://w3id.org/cdisc/cosmos/dss/FT/ADCRG/FTORRES> ;
    rdf:_6 <https://w3id.org/cdisc/cosmos/dss/FT/ADCRG/FTSTRESC> ;
    rdf:_7 <https://w3id.org/cdisc/cosmos/dss/FT/ADCRG/FTSTRESN> ;
    rdf:_8 <https://w3id.org/cdisc/cosmos/dss/FT/ADCRG/FTSTAT> ;
    rdf:_9 <https://w3id.org/cdisc/cosmos/dss/FT/ADCRG/FTREASND> ;
    cosmos_sdtm:biomedicalConceptId NCIT:C100247 ;
    cosmos_sdtm:domain "FT" ;
    cosmos_sdtm:packageDate "2026-05-26"^^xsd:date ;
    cosmos_sdtm:packageType <https://www.cdisc.org/cosmos/sdtm_v1.0/PackageTypeEnum#sdtm> ;
    cosmos_sdtm:sdtmigStartVersion "3-2" ;
    cosmos_sdtm:shortName "CDISC ADAS-Cog - Word Recognition Summary Score" ;
    cosmos_sdtm:source "FT.FTTESTCD" ;
    cosmos_sdtm:variables <https://w3id.org/cdisc/cosmos/dss/FT/ADCRG/FTCAT>,
        <https://w3id.org/cdisc/cosmos/dss/FT/ADCRG/FTDTC>,
        <https://w3id.org/cdisc/cosmos/dss/FT/ADCRG/FTORRES>,
        <https://w3id.org/cdisc/cosmos/dss/FT/ADCRG/FTREASND>,
        <https://w3id.org/cdisc/cosmos/dss/FT/ADCRG/FTSCAT>,
        <https://w3id.org/cdisc/cosmos/dss/FT/ADCRG/FTSTAT>,
        <https://w3id.org/cdisc/cosmos/dss/FT/ADCRG/FTSTRESC>,
        <https://w3id.org/cdisc/cosmos/dss/FT/ADCRG/FTSTRESN>,
        <https://w3id.org/cdisc/cosmos/dss/FT/ADCRG/FTTEST>,
        <https://w3id.org/cdisc/cosmos/dss/FT/ADCRG/FTTESTCD> .

<https://w3id.org/cdisc/cosmos/dss/FT/ADCRI> a cosmos_sdtm:SDTMGroup ;
    dcterms:identifier "ADCRI" ;
    rdf:_1 <https://w3id.org/cdisc/cosmos/dss/FT/ADCRI/FTTESTCD> ;
    rdf:_10 <https://w3id.org/cdisc/cosmos/dss/FT/ADCRI/FTDTC> ;
    rdf:_2 <https://w3id.org/cdisc/cosmos/dss/FT/ADCRI/FTTEST> ;
    rdf:_3 <https://w3id.org/cdisc/cosmos/dss/FT/ADCRI/FTCAT> ;
    rdf:_4 <https://w3id.org/cdisc/cosmos/dss/FT/ADCRI/FTSCAT> ;
    rdf:_5 <https://w3id.org/cdisc/cosmos/dss/FT/ADCRI/FTORRES> ;
    rdf:_6 <https://w3id.org/cdisc/cosmos/dss/FT/ADCRI/FTSTRESC> ;
    rdf:_7 <https://w3id.org/cdisc/cosmos/dss/FT/ADCRI/FTSTRESN> ;
    rdf:_8 <https://w3id.org/cdisc/cosmos/dss/FT/ADCRI/FTSTAT> ;
    rdf:_9 <https://w3id.org/cdisc/cosmos/dss/FT/ADCRI/FTREASND> ;
    cosmos_sdtm:biomedicalConceptId NCIT:C100275 ;
    cosmos_sdtm:domain "FT" ;
    cosmos_sdtm:packageDate "2026-05-26"^^xsd:date ;
    cosmos_sdtm:packageType <https://www.cdisc.org/cosmos/sdtm_v1.0/PackageTypeEnum#sdtm> ;
    cosmos_sdtm:sdtmigStartVersion "3-2" ;
    cosmos_sdtm:shortName "CDISC ADAS-Cog - Remembering Test Instructions" ;
    cosmos_sdtm:source "FT.FTTESTCD" ;
    cosmos_sdtm:variables <https://w3id.org/cdisc/cosmos/dss/FT/ADCRI/FTCAT>,
        <https://w3id.org/cdisc/cosmos/dss/FT/ADCRI/FTDTC>,
        <https://w3id.org/cdisc/cosmos/dss/FT/ADCRI/FTORRES>,
        <https://w3id.org/cdisc/cosmos/dss/FT/ADCRI/FTREASND>,
        <https://w3id.org/cdisc/cosmos/dss/FT/ADCRI/FTSCAT>,
        <https://w3id.org/cdisc/cosmos/dss/FT/ADCRI/FTSTAT>,
        <https://w3id.org/cdisc/cosmos/dss/FT/ADCRI/FTSTRESC>,
        <https://w3id.org/cdisc/cosmos/dss/FT/ADCRI/FTSTRESN>,
        <https://w3id.org/cdisc/cosmos/dss/FT/ADCRI/FTTEST>,
        <https://w3id.org/cdisc/cosmos/dss/FT/ADCRI/FTTESTCD> .

<https://w3id.org/cdisc/cosmos/dss/FT/ADCRL> a cosmos_sdtm:SDTMGroup ;
    dcterms:identifier "ADCRL" ;
    rdf:_1 <https://w3id.org/cdisc/cosmos/dss/FT/ADCRL/FTTESTCD> ;
    rdf:_10 <https://w3id.org/cdisc/cosmos/dss/FT/ADCRL/FTDTC> ;
    rdf:_2 <https://w3id.org/cdisc/cosmos/dss/FT/ADCRL/FTTEST> ;
    rdf:_3 <https://w3id.org/cdisc/cosmos/dss/FT/ADCRL/FTCAT> ;
    rdf:_4 <https://w3id.org/cdisc/cosmos/dss/FT/ADCRL/FTSCAT> ;
    rdf:_5 <https://w3id.org/cdisc/cosmos/dss/FT/ADCRL/FTORRES> ;
    rdf:_6 <https://w3id.org/cdisc/cosmos/dss/FT/ADCRL/FTSTRESC> ;
    rdf:_7 <https://w3id.org/cdisc/cosmos/dss/FT/ADCRL/FTSTRESN> ;
    rdf:_8 <https://w3id.org/cdisc/cosmos/dss/FT/ADCRL/FTSTAT> ;
    rdf:_9 <https://w3id.org/cdisc/cosmos/dss/FT/ADCRL/FTREASND> ;
    cosmos_sdtm:biomedicalConceptId NCIT:C100177 ;
    cosmos_sdtm:domain "FT" ;
    cosmos_sdtm:packageDate "2026-05-26"^^xsd:date ;
    cosmos_sdtm:packageType <https://www.cdisc.org/cosmos/sdtm_v1.0/PackageTypeEnum#sdtm> ;
    cosmos_sdtm:sdtmigStartVersion "3-2" ;
    cosmos_sdtm:shortName "CDISC ADAS-Cog - Word Recall Average Score" ;
    cosmos_sdtm:source "FT.FTTESTCD" ;
    cosmos_sdtm:variables <https://w3id.org/cdisc/cosmos/dss/FT/ADCRL/FTCAT>,
        <https://w3id.org/cdisc/cosmos/dss/FT/ADCRL/FTDTC>,
        <https://w3id.org/cdisc/cosmos/dss/FT/ADCRL/FTORRES>,
        <https://w3id.org/cdisc/cosmos/dss/FT/ADCRL/FTREASND>,
        <https://w3id.org/cdisc/cosmos/dss/FT/ADCRL/FTSCAT>,
        <https://w3id.org/cdisc/cosmos/dss/FT/ADCRL/FTSTAT>,
        <https://w3id.org/cdisc/cosmos/dss/FT/ADCRL/FTSTRESC>,
        <https://w3id.org/cdisc/cosmos/dss/FT/ADCRL/FTSTRESN>,
        <https://w3id.org/cdisc/cosmos/dss/FT/ADCRL/FTTEST>,
        <https://w3id.org/cdisc/cosmos/dss/FT/ADCRL/FTTESTCD> .

<https://w3id.org/cdisc/cosmos/dss/FT/ADCSL> a cosmos_sdtm:SDTMGroup ;
    dcterms:identifier "ADCSL" ;
    rdf:_1 <https://w3id.org/cdisc/cosmos/dss/FT/ADCSL/FTTESTCD> ;
    rdf:_10 <https://w3id.org/cdisc/cosmos/dss/FT/ADCSL/FTDTC> ;
    rdf:_2 <https://w3id.org/cdisc/cosmos/dss/FT/ADCSL/FTTEST> ;
    rdf:_3 <https://w3id.org/cdisc/cosmos/dss/FT/ADCSL/FTCAT> ;
    rdf:_4 <https://w3id.org/cdisc/cosmos/dss/FT/ADCSL/FTSCAT> ;
    rdf:_5 <https://w3id.org/cdisc/cosmos/dss/FT/ADCSL/FTORRES> ;
    rdf:_6 <https://w3id.org/cdisc/cosmos/dss/FT/ADCSL/FTSTRESC> ;
    rdf:_7 <https://w3id.org/cdisc/cosmos/dss/FT/ADCSL/FTSTRESN> ;
    rdf:_8 <https://w3id.org/cdisc/cosmos/dss/FT/ADCSL/FTSTAT> ;
    rdf:_9 <https://w3id.org/cdisc/cosmos/dss/FT/ADCSL/FTREASND> ;
    cosmos_sdtm:biomedicalConceptId NCIT:C100276 ;
    cosmos_sdtm:domain "FT" ;
    cosmos_sdtm:packageDate "2026-05-26"^^xsd:date ;
    cosmos_sdtm:packageType <https://www.cdisc.org/cosmos/sdtm_v1.0/PackageTypeEnum#sdtm> ;
    cosmos_sdtm:sdtmigStartVersion "3-2" ;
    cosmos_sdtm:shortName "CDISC ADAS-Cog - Spoken Language Ability" ;
    cosmos_sdtm:source "FT.FTTESTCD" ;
    cosmos_sdtm:variables <https://w3id.org/cdisc/cosmos/dss/FT/ADCSL/FTCAT>,
        <https://w3id.org/cdisc/cosmos/dss/FT/ADCSL/FTDTC>,
        <https://w3id.org/cdisc/cosmos/dss/FT/ADCSL/FTORRES>,
        <https://w3id.org/cdisc/cosmos/dss/FT/ADCSL/FTREASND>,
        <https://w3id.org/cdisc/cosmos/dss/FT/ADCSL/FTSCAT>,
        <https://w3id.org/cdisc/cosmos/dss/FT/ADCSL/FTSTAT>,
        <https://w3id.org/cdisc/cosmos/dss/FT/ADCSL/FTSTRESC>,
        <https://w3id.org/cdisc/cosmos/dss/FT/ADCSL/FTSTRESN>,
        <https://w3id.org/cdisc/cosmos/dss/FT/ADCSL/FTTEST>,
        <https://w3id.org/cdisc/cosmos/dss/FT/ADCSL/FTTESTCD> .

<https://w3id.org/cdisc/cosmos/dss/FT/ADCTS> a cosmos_sdtm:SDTMGroup ;
    dcterms:identifier "ADCTS" ;
    rdf:_1 <https://w3id.org/cdisc/cosmos/dss/FT/ADCTS/FTTESTCD> ;
    rdf:_10 <https://w3id.org/cdisc/cosmos/dss/FT/ADCTS/FTDTC> ;
    rdf:_2 <https://w3id.org/cdisc/cosmos/dss/FT/ADCTS/FTTEST> ;
    rdf:_3 <https://w3id.org/cdisc/cosmos/dss/FT/ADCTS/FTCAT> ;
    rdf:_4 <https://w3id.org/cdisc/cosmos/dss/FT/ADCTS/FTSCAT> ;
    rdf:_5 <https://w3id.org/cdisc/cosmos/dss/FT/ADCTS/FTORRES> ;
    rdf:_6 <https://w3id.org/cdisc/cosmos/dss/FT/ADCTS/FTSTRESC> ;
    rdf:_7 <https://w3id.org/cdisc/cosmos/dss/FT/ADCTS/FTSTRESN> ;
    rdf:_8 <https://w3id.org/cdisc/cosmos/dss/FT/ADCTS/FTSTAT> ;
    rdf:_9 <https://w3id.org/cdisc/cosmos/dss/FT/ADCTS/FTREASND> ;
    cosmos_sdtm:biomedicalConceptId NCIT:C208544 ;
    cosmos_sdtm:domain "FT" ;
    cosmos_sdtm:packageDate "2026-05-26"^^xsd:date ;
    cosmos_sdtm:packageType <https://www.cdisc.org/cosmos/sdtm_v1.0/PackageTypeEnum#sdtm> ;
    cosmos_sdtm:sdtmigStartVersion "3-2" ;
    cosmos_sdtm:shortName "CDISC ADAS-Cog - Total Score" ;
    cosmos_sdtm:source "FT.FTTESTCD" ;
    cosmos_sdtm:variables <https://w3id.org/cdisc/cosmos/dss/FT/ADCTS/FTCAT>,
        <https://w3id.org/cdisc/cosmos/dss/FT/ADCTS/FTDTC>,
        <https://w3id.org/cdisc/cosmos/dss/FT/ADCTS/FTORRES>,
        <https://w3id.org/cdisc/cosmos/dss/FT/ADCTS/FTREASND>,
        <https://w3id.org/cdisc/cosmos/dss/FT/ADCTS/FTSCAT>,
        <https://w3id.org/cdisc/cosmos/dss/FT/ADCTS/FTSTAT>,
        <https://w3id.org/cdisc/cosmos/dss/FT/ADCTS/FTSTRESC>,
        <https://w3id.org/cdisc/cosmos/dss/FT/ADCTS/FTSTRESN>,
        <https://w3id.org/cdisc/cosmos/dss/FT/ADCTS/FTTEST>,
        <https://w3id.org/cdisc/cosmos/dss/FT/ADCTS/FTTESTCD> .

<https://w3id.org/cdisc/cosmos/dss/FT/SIXMW101> a cosmos_sdtm:SDTMGroup ;
    dcterms:identifier "SIXMW101" ;
    rdf:_1 <https://w3id.org/cdisc/cosmos/dss/FT/SIXMW101/FTTESTCD> ;
    rdf:_10 <https://w3id.org/cdisc/cosmos/dss/FT/SIXMW101/FTDTC> ;
    rdf:_2 <https://w3id.org/cdisc/cosmos/dss/FT/SIXMW101/FTTEST> ;
    rdf:_3 <https://w3id.org/cdisc/cosmos/dss/FT/SIXMW101/FTCAT> ;
    rdf:_4 <https://w3id.org/cdisc/cosmos/dss/FT/SIXMW101/FTORRES> ;
    rdf:_5 <https://w3id.org/cdisc/cosmos/dss/FT/SIXMW101/FTORRESU> ;
    rdf:_6 <https://w3id.org/cdisc/cosmos/dss/FT/SIXMW101/FTSTRESC> ;
    rdf:_7 <https://w3id.org/cdisc/cosmos/dss/FT/SIXMW101/FTSTRESN> ;
    rdf:_8 <https://w3id.org/cdisc/cosmos/dss/FT/SIXMW101/FTSTRESU> ;
    rdf:_9 <https://w3id.org/cdisc/cosmos/dss/FT/SIXMW101/FTASTDEV> ;
    cosmos_sdtm:biomedicalConceptId NCIT:C115800 ;
    cosmos_sdtm:domain "FT" ;
    cosmos_sdtm:packageDate "2026-05-26"^^xsd:date ;
    cosmos_sdtm:packageType <https://www.cdisc.org/cosmos/sdtm_v1.0/PackageTypeEnum#sdtm> ;
    cosmos_sdtm:sdtmigStartVersion "3-2" ;
    cosmos_sdtm:shortName "SIXMW1-Distance at 1 Minute" ;
    cosmos_sdtm:source "FT.FTTESTCD" ;
    cosmos_sdtm:variables <https://w3id.org/cdisc/cosmos/dss/FT/SIXMW101/FTASTDEV>,
        <https://w3id.org/cdisc/cosmos/dss/FT/SIXMW101/FTCAT>,
        <https://w3id.org/cdisc/cosmos/dss/FT/SIXMW101/FTDTC>,
        <https://w3id.org/cdisc/cosmos/dss/FT/SIXMW101/FTORRES>,
        <https://w3id.org/cdisc/cosmos/dss/FT/SIXMW101/FTORRESU>,
        <https://w3id.org/cdisc/cosmos/dss/FT/SIXMW101/FTSTRESC>,
        <https://w3id.org/cdisc/cosmos/dss/FT/SIXMW101/FTSTRESN>,
        <https://w3id.org/cdisc/cosmos/dss/FT/SIXMW101/FTSTRESU>,
        <https://w3id.org/cdisc/cosmos/dss/FT/SIXMW101/FTTEST>,
        <https://w3id.org/cdisc/cosmos/dss/FT/SIXMW101/FTTESTCD> .

<https://w3id.org/cdisc/cosmos/dss/FT/SIXMW102> a cosmos_sdtm:SDTMGroup ;
    dcterms:identifier "SIXMW102" ;
    rdf:_1 <https://w3id.org/cdisc/cosmos/dss/FT/SIXMW102/FTTESTCD> ;
    rdf:_10 <https://w3id.org/cdisc/cosmos/dss/FT/SIXMW102/FTDTC> ;
    rdf:_2 <https://w3id.org/cdisc/cosmos/dss/FT/SIXMW102/FTTEST> ;
    rdf:_3 <https://w3id.org/cdisc/cosmos/dss/FT/SIXMW102/FTCAT> ;
    rdf:_4 <https://w3id.org/cdisc/cosmos/dss/FT/SIXMW102/FTORRES> ;
    rdf:_5 <https://w3id.org/cdisc/cosmos/dss/FT/SIXMW102/FTORRESU> ;
    rdf:_6 <https://w3id.org/cdisc/cosmos/dss/FT/SIXMW102/FTSTRESC> ;
    rdf:_7 <https://w3id.org/cdisc/cosmos/dss/FT/SIXMW102/FTSTRESN> ;
    rdf:_8 <https://w3id.org/cdisc/cosmos/dss/FT/SIXMW102/FTSTRESU> ;
    rdf:_9 <https://w3id.org/cdisc/cosmos/dss/FT/SIXMW102/FTASTDEV> ;
    cosmos_sdtm:biomedicalConceptId NCIT:C115801 ;
    cosmos_sdtm:domain "FT" ;
    cosmos_sdtm:packageDate "2026-05-26"^^xsd:date ;
    cosmos_sdtm:packageType <https://www.cdisc.org/cosmos/sdtm_v1.0/PackageTypeEnum#sdtm> ;
    cosmos_sdtm:sdtmigStartVersion "3-2" ;
    cosmos_sdtm:shortName "SIXMW1-Distance at 2 Minute" ;
    cosmos_sdtm:source "FT.FTTESTCD" ;
    cosmos_sdtm:variables <https://w3id.org/cdisc/cosmos/dss/FT/SIXMW102/FTASTDEV>,
        <https://w3id.org/cdisc/cosmos/dss/FT/SIXMW102/FTCAT>,
        <https://w3id.org/cdisc/cosmos/dss/FT/SIXMW102/FTDTC>,
        <https://w3id.org/cdisc/cosmos/dss/FT/SIXMW102/FTORRES>,
        <https://w3id.org/cdisc/cosmos/dss/FT/SIXMW102/FTORRESU>,
        <https://w3id.org/cdisc/cosmos/dss/FT/SIXMW102/FTSTRESC>,
        <https://w3id.org/cdisc/cosmos/dss/FT/SIXMW102/FTSTRESN>,
        <https://w3id.org/cdisc/cosmos/dss/FT/SIXMW102/FTSTRESU>,
        <https://w3id.org/cdisc/cosmos/dss/FT/SIXMW102/FTTEST>,
        <https://w3id.org/cdisc/cosmos/dss/FT/SIXMW102/FTTESTCD> .

<https://w3id.org/cdisc/cosmos/dss/FT/SIXMW103> a cosmos_sdtm:SDTMGroup ;
    dcterms:identifier "SIXMW103" ;
    rdf:_1 <https://w3id.org/cdisc/cosmos/dss/FT/SIXMW103/FTTESTCD> ;
    rdf:_10 <https://w3id.org/cdisc/cosmos/dss/FT/SIXMW103/FTDTC> ;
    rdf:_2 <https://w3id.org/cdisc/cosmos/dss/FT/SIXMW103/FTTEST> ;
    rdf:_3 <https://w3id.org/cdisc/cosmos/dss/FT/SIXMW103/FTCAT> ;
    rdf:_4 <https://w3id.org/cdisc/cosmos/dss/FT/SIXMW103/FTORRES> ;
    rdf:_5 <https://w3id.org/cdisc/cosmos/dss/FT/SIXMW103/FTORRESU> ;
    rdf:_6 <https://w3id.org/cdisc/cosmos/dss/FT/SIXMW103/FTSTRESC> ;
    rdf:_7 <https://w3id.org/cdisc/cosmos/dss/FT/SIXMW103/FTSTRESN> ;
    rdf:_8 <https://w3id.org/cdisc/cosmos/dss/FT/SIXMW103/FTSTRESU> ;
    rdf:_9 <https://w3id.org/cdisc/cosmos/dss/FT/SIXMW103/FTASTDEV> ;
    cosmos_sdtm:biomedicalConceptId NCIT:C115802 ;
    cosmos_sdtm:domain "FT" ;
    cosmos_sdtm:packageDate "2026-05-26"^^xsd:date ;
    cosmos_sdtm:packageType <https://www.cdisc.org/cosmos/sdtm_v1.0/PackageTypeEnum#sdtm> ;
    cosmos_sdtm:sdtmigStartVersion "3-2" ;
    cosmos_sdtm:shortName "SIXMW1-Distance at 3 Minute" ;
    cosmos_sdtm:source "FT.FTTESTCD" ;
    cosmos_sdtm:variables <https://w3id.org/cdisc/cosmos/dss/FT/SIXMW103/FTASTDEV>,
        <https://w3id.org/cdisc/cosmos/dss/FT/SIXMW103/FTCAT>,
        <https://w3id.org/cdisc/cosmos/dss/FT/SIXMW103/FTDTC>,
        <https://w3id.org/cdisc/cosmos/dss/FT/SIXMW103/FTORRES>,
        <https://w3id.org/cdisc/cosmos/dss/FT/SIXMW103/FTORRESU>,
        <https://w3id.org/cdisc/cosmos/dss/FT/SIXMW103/FTSTRESC>,
        <https://w3id.org/cdisc/cosmos/dss/FT/SIXMW103/FTSTRESN>,
        <https://w3id.org/cdisc/cosmos/dss/FT/SIXMW103/FTSTRESU>,
        <https://w3id.org/cdisc/cosmos/dss/FT/SIXMW103/FTTEST>,
        <https://w3id.org/cdisc/cosmos/dss/FT/SIXMW103/FTTESTCD> .

<https://w3id.org/cdisc/cosmos/dss/FT/SIXMW104> a cosmos_sdtm:SDTMGroup ;
    dcterms:identifier "SIXMW104" ;
    rdf:_1 <https://w3id.org/cdisc/cosmos/dss/FT/SIXMW104/FTTESTCD> ;
    rdf:_10 <https://w3id.org/cdisc/cosmos/dss/FT/SIXMW104/FTDTC> ;
    rdf:_2 <https://w3id.org/cdisc/cosmos/dss/FT/SIXMW104/FTTEST> ;
    rdf:_3 <https://w3id.org/cdisc/cosmos/dss/FT/SIXMW104/FTCAT> ;
    rdf:_4 <https://w3id.org/cdisc/cosmos/dss/FT/SIXMW104/FTORRES> ;
    rdf:_5 <https://w3id.org/cdisc/cosmos/dss/FT/SIXMW104/FTORRESU> ;
    rdf:_6 <https://w3id.org/cdisc/cosmos/dss/FT/SIXMW104/FTSTRESC> ;
    rdf:_7 <https://w3id.org/cdisc/cosmos/dss/FT/SIXMW104/FTSTRESN> ;
    rdf:_8 <https://w3id.org/cdisc/cosmos/dss/FT/SIXMW104/FTSTRESU> ;
    rdf:_9 <https://w3id.org/cdisc/cosmos/dss/FT/SIXMW104/FTASTDEV> ;
    cosmos_sdtm:biomedicalConceptId NCIT:C115803 ;
    cosmos_sdtm:domain "FT" ;
    cosmos_sdtm:packageDate "2026-05-26"^^xsd:date ;
    cosmos_sdtm:packageType <https://www.cdisc.org/cosmos/sdtm_v1.0/PackageTypeEnum#sdtm> ;
    cosmos_sdtm:sdtmigStartVersion "3-2" ;
    cosmos_sdtm:shortName "SIXMW1-Distance at 4 Minute" ;
    cosmos_sdtm:source "FT.FTTESTCD" ;
    cosmos_sdtm:variables <https://w3id.org/cdisc/cosmos/dss/FT/SIXMW104/FTASTDEV>,
        <https://w3id.org/cdisc/cosmos/dss/FT/SIXMW104/FTCAT>,
        <https://w3id.org/cdisc/cosmos/dss/FT/SIXMW104/FTDTC>,
        <https://w3id.org/cdisc/cosmos/dss/FT/SIXMW104/FTORRES>,
        <https://w3id.org/cdisc/cosmos/dss/FT/SIXMW104/FTORRESU>,
        <https://w3id.org/cdisc/cosmos/dss/FT/SIXMW104/FTSTRESC>,
        <https://w3id.org/cdisc/cosmos/dss/FT/SIXMW104/FTSTRESN>,
        <https://w3id.org/cdisc/cosmos/dss/FT/SIXMW104/FTSTRESU>,
        <https://w3id.org/cdisc/cosmos/dss/FT/SIXMW104/FTTEST>,
        <https://w3id.org/cdisc/cosmos/dss/FT/SIXMW104/FTTESTCD> .

<https://w3id.org/cdisc/cosmos/dss/FT/SIXMW105> a cosmos_sdtm:SDTMGroup ;
    dcterms:identifier "SIXMW105" ;
    rdf:_1 <https://w3id.org/cdisc/cosmos/dss/FT/SIXMW105/FTTESTCD> ;
    rdf:_10 <https://w3id.org/cdisc/cosmos/dss/FT/SIXMW105/FTDTC> ;
    rdf:_2 <https://w3id.org/cdisc/cosmos/dss/FT/SIXMW105/FTTEST> ;
    rdf:_3 <https://w3id.org/cdisc/cosmos/dss/FT/SIXMW105/FTCAT> ;
    rdf:_4 <https://w3id.org/cdisc/cosmos/dss/FT/SIXMW105/FTORRES> ;
    rdf:_5 <https://w3id.org/cdisc/cosmos/dss/FT/SIXMW105/FTORRESU> ;
    rdf:_6 <https://w3id.org/cdisc/cosmos/dss/FT/SIXMW105/FTSTRESC> ;
    rdf:_7 <https://w3id.org/cdisc/cosmos/dss/FT/SIXMW105/FTSTRESN> ;
    rdf:_8 <https://w3id.org/cdisc/cosmos/dss/FT/SIXMW105/FTSTRESU> ;
    rdf:_9 <https://w3id.org/cdisc/cosmos/dss/FT/SIXMW105/FTASTDEV> ;
    cosmos_sdtm:biomedicalConceptId NCIT:C115804 ;
    cosmos_sdtm:domain "FT" ;
    cosmos_sdtm:packageDate "2026-05-26"^^xsd:date ;
    cosmos_sdtm:packageType <https://www.cdisc.org/cosmos/sdtm_v1.0/PackageTypeEnum#sdtm> ;
    cosmos_sdtm:sdtmigStartVersion "3-2" ;
    cosmos_sdtm:shortName "SIXMW1-Distance at 5 Minute" ;
    cosmos_sdtm:source "FT.FTTESTCD" ;
    cosmos_sdtm:variables <https://w3id.org/cdisc/cosmos/dss/FT/SIXMW105/FTASTDEV>,
        <https://w3id.org/cdisc/cosmos/dss/FT/SIXMW105/FTCAT>,
        <https://w3id.org/cdisc/cosmos/dss/FT/SIXMW105/FTDTC>,
        <https://w3id.org/cdisc/cosmos/dss/FT/SIXMW105/FTORRES>,
        <https://w3id.org/cdisc/cosmos/dss/FT/SIXMW105/FTORRESU>,
        <https://w3id.org/cdisc/cosmos/dss/FT/SIXMW105/FTSTRESC>,
        <https://w3id.org/cdisc/cosmos/dss/FT/SIXMW105/FTSTRESN>,
        <https://w3id.org/cdisc/cosmos/dss/FT/SIXMW105/FTSTRESU>,
        <https://w3id.org/cdisc/cosmos/dss/FT/SIXMW105/FTTEST>,
        <https://w3id.org/cdisc/cosmos/dss/FT/SIXMW105/FTTESTCD> .

<https://w3id.org/cdisc/cosmos/dss/FT/SIXMW106> a cosmos_sdtm:SDTMGroup ;
    dcterms:identifier "SIXMW106" ;
    rdf:_1 <https://w3id.org/cdisc/cosmos/dss/FT/SIXMW106/FTTESTCD> ;
    rdf:_10 <https://w3id.org/cdisc/cosmos/dss/FT/SIXMW106/FTDTC> ;
    rdf:_2 <https://w3id.org/cdisc/cosmos/dss/FT/SIXMW106/FTTEST> ;
    rdf:_3 <https://w3id.org/cdisc/cosmos/dss/FT/SIXMW106/FTCAT> ;
    rdf:_4 <https://w3id.org/cdisc/cosmos/dss/FT/SIXMW106/FTORRES> ;
    rdf:_5 <https://w3id.org/cdisc/cosmos/dss/FT/SIXMW106/FTORRESU> ;
    rdf:_6 <https://w3id.org/cdisc/cosmos/dss/FT/SIXMW106/FTSTRESC> ;
    rdf:_7 <https://w3id.org/cdisc/cosmos/dss/FT/SIXMW106/FTSTRESN> ;
    rdf:_8 <https://w3id.org/cdisc/cosmos/dss/FT/SIXMW106/FTSTRESU> ;
    rdf:_9 <https://w3id.org/cdisc/cosmos/dss/FT/SIXMW106/FTASTDEV> ;
    cosmos_sdtm:biomedicalConceptId NCIT:C115805 ;
    cosmos_sdtm:domain "FT" ;
    cosmos_sdtm:packageDate "2026-05-26"^^xsd:date ;
    cosmos_sdtm:packageType <https://www.cdisc.org/cosmos/sdtm_v1.0/PackageTypeEnum#sdtm> ;
    cosmos_sdtm:sdtmigStartVersion "3-2" ;
    cosmos_sdtm:shortName "SIXMW1-Distance at 6 Minute" ;
    cosmos_sdtm:source "FT.FTTESTCD" ;
    cosmos_sdtm:variables <https://w3id.org/cdisc/cosmos/dss/FT/SIXMW106/FTASTDEV>,
        <https://w3id.org/cdisc/cosmos/dss/FT/SIXMW106/FTCAT>,
        <https://w3id.org/cdisc/cosmos/dss/FT/SIXMW106/FTDTC>,
        <https://w3id.org/cdisc/cosmos/dss/FT/SIXMW106/FTORRES>,
        <https://w3id.org/cdisc/cosmos/dss/FT/SIXMW106/FTORRESU>,
        <https://w3id.org/cdisc/cosmos/dss/FT/SIXMW106/FTSTRESC>,
        <https://w3id.org/cdisc/cosmos/dss/FT/SIXMW106/FTSTRESN>,
        <https://w3id.org/cdisc/cosmos/dss/FT/SIXMW106/FTSTRESU>,
        <https://w3id.org/cdisc/cosmos/dss/FT/SIXMW106/FTTEST>,
        <https://w3id.org/cdisc/cosmos/dss/FT/SIXMW106/FTTESTCD> .

<https://w3id.org/cdisc/cosmos/dss/FT/ADCCMD/FTCAT/assignedTerm> a cosmos_sdtm:AssignedTerm ;
    cosmos_sdtm:conceptId NCIT:C100762 ;
    cosmos_sdtm:value "ADAS-COG" .

<https://w3id.org/cdisc/cosmos/dss/FT/ADCCMD/FTCAT/relationship> a cosmos_sdtm:RelationShip ;
    cosmos_sdtm:linkingPhrase <https://www.cdisc.org/cosmos/sdtm_v1.0/LinkingPhraseEnum#groups%20values%20in> ;
    cosmos_sdtm:object "FTTESTCD" ;
    cosmos_sdtm:predicateTerm <https://www.cdisc.org/cosmos/sdtm_v1.0/PredicateTermEnum#GROUPS> ;
    cosmos_sdtm:subject "FTCAT" .

<https://w3id.org/cdisc/cosmos/dss/FT/ADCCMD/FTDTC/relationship> a cosmos_sdtm:RelationShip ;
    cosmos_sdtm:linkingPhrase <https://www.cdisc.org/cosmos/sdtm_v1.0/LinkingPhraseEnum#is%20the%20date%20of%20occurrence%20for> ;
    cosmos_sdtm:object "FTTESTCD" ;
    cosmos_sdtm:predicateTerm <https://www.cdisc.org/cosmos/sdtm_v1.0/PredicateTermEnum#IS_TIMING_FOR> ;
    cosmos_sdtm:subject "FTDTC" .

<https://w3id.org/cdisc/cosmos/dss/FT/ADCCMD/FTORRES/relationship> a cosmos_sdtm:RelationShip ;
    cosmos_sdtm:linkingPhrase <https://www.cdisc.org/cosmos/sdtm_v1.0/LinkingPhraseEnum#is%20the%20result%20of%20the%20test%20in> ;
    cosmos_sdtm:object "FTTESTCD" ;
    cosmos_sdtm:predicateTerm <https://www.cdisc.org/cosmos/sdtm_v1.0/PredicateTermEnum#IS_RESULT_OF> ;
    cosmos_sdtm:subject "FTORRES" .

<https://w3id.org/cdisc/cosmos/dss/FT/ADCCMD/FTSCAT/assignedTerm> a cosmos_sdtm:AssignedTerm ;
    cosmos_sdtm:value "COMMANDS" .

<https://w3id.org/cdisc/cosmos/dss/FT/ADCCMD/FTSCAT/relationship> a cosmos_sdtm:RelationShip ;
    cosmos_sdtm:linkingPhrase <https://www.cdisc.org/cosmos/sdtm_v1.0/LinkingPhraseEnum#groups%20values%20in> ;
    cosmos_sdtm:object "FTCAT" ;
    cosmos_sdtm:predicateTerm <https://www.cdisc.org/cosmos/sdtm_v1.0/PredicateTermEnum#GROUPS> ;
    cosmos_sdtm:subject "FTSCAT" .

<https://w3id.org/cdisc/cosmos/dss/FT/ADCCMD/FTSTRESC/relationship> a cosmos_sdtm:RelationShip ;
    cosmos_sdtm:linkingPhrase <https://www.cdisc.org/cosmos/sdtm_v1.0/LinkingPhraseEnum#is%20the%20result%20of%20the%20test%20in> ;
    cosmos_sdtm:object "FTTESTCD" ;
    cosmos_sdtm:predicateTerm <https://www.cdisc.org/cosmos/sdtm_v1.0/PredicateTermEnum#IS_RESULT_OF> ;
    cosmos_sdtm:subject "FTSTRESC" .

<https://w3id.org/cdisc/cosmos/dss/FT/ADCCMD/FTSTRESN/relationship> a cosmos_sdtm:RelationShip ;
    cosmos_sdtm:linkingPhrase <https://www.cdisc.org/cosmos/sdtm_v1.0/LinkingPhraseEnum#is%20the%20result%20of%20the%20test%20in> ;
    cosmos_sdtm:object "FTTESTCD" ;
    cosmos_sdtm:predicateTerm <https://www.cdisc.org/cosmos/sdtm_v1.0/PredicateTermEnum#IS_RESULT_OF> ;
    cosmos_sdtm:subject "FTSTRESN" .

<https://w3id.org/cdisc/cosmos/dss/FT/ADCCMD/FTTEST/assignedTerm> a cosmos_sdtm:AssignedTerm ;
    cosmos_sdtm:conceptId NCIT:C100209 ;
    cosmos_sdtm:value "Commands" .

<https://w3id.org/cdisc/cosmos/dss/FT/ADCCMD/FTTEST/relationship> a cosmos_sdtm:RelationShip ;
    cosmos_sdtm:linkingPhrase <https://www.cdisc.org/cosmos/sdtm_v1.0/LinkingPhraseEnum#decodes%20the%20value%20in> ;
    cosmos_sdtm:object "FTTESTCD" ;
    cosmos_sdtm:predicateTerm <https://www.cdisc.org/cosmos/sdtm_v1.0/PredicateTermEnum#DECODES> ;
    cosmos_sdtm:subject "FTTEST" .

<https://w3id.org/cdisc/cosmos/dss/FT/ADCCMD/FTTESTCD/assignedTerm> a cosmos_sdtm:AssignedTerm ;
    cosmos_sdtm:conceptId NCIT:C100209 ;
    cosmos_sdtm:value "ADCCMD" .

<https://w3id.org/cdisc/cosmos/dss/FT/ADCCMD/FTTESTCD/relationship> a cosmos_sdtm:RelationShip ;
    cosmos_sdtm:linkingPhrase <https://www.cdisc.org/cosmos/sdtm_v1.0/LinkingPhraseEnum#is%20the%20code%20for%20the%20value%20in> ;
    cosmos_sdtm:object "FTTEST" ;
    cosmos_sdtm:predicateTerm <https://www.cdisc.org/cosmos/sdtm_v1.0/PredicateTermEnum#IS_DECODED_BY> ;
    cosmos_sdtm:subject "FTTESTCD" .

<https://w3id.org/cdisc/cosmos/dss/FT/ADCCMP/FTCAT/assignedTerm> a cosmos_sdtm:AssignedTerm ;
    cosmos_sdtm:conceptId NCIT:C100762 ;
    cosmos_sdtm:value "ADAS-COG" .

<https://w3id.org/cdisc/cosmos/dss/FT/ADCCMP/FTCAT/relationship> a cosmos_sdtm:RelationShip ;
    cosmos_sdtm:linkingPhrase <https://www.cdisc.org/cosmos/sdtm_v1.0/LinkingPhraseEnum#groups%20values%20in> ;
    cosmos_sdtm:object "FTTESTCD" ;
    cosmos_sdtm:predicateTerm <https://www.cdisc.org/cosmos/sdtm_v1.0/PredicateTermEnum#GROUPS> ;
    cosmos_sdtm:subject "FTCAT" .

<https://w3id.org/cdisc/cosmos/dss/FT/ADCCMP/FTDTC/relationship> a cosmos_sdtm:RelationShip ;
    cosmos_sdtm:linkingPhrase <https://www.cdisc.org/cosmos/sdtm_v1.0/LinkingPhraseEnum#is%20the%20date%20of%20occurrence%20for> ;
    cosmos_sdtm:object "FTTESTCD" ;
    cosmos_sdtm:predicateTerm <https://www.cdisc.org/cosmos/sdtm_v1.0/PredicateTermEnum#IS_TIMING_FOR> ;
    cosmos_sdtm:subject "FTDTC" .

<https://w3id.org/cdisc/cosmos/dss/FT/ADCCMP/FTORRES/relationship> a cosmos_sdtm:RelationShip ;
    cosmos_sdtm:linkingPhrase <https://www.cdisc.org/cosmos/sdtm_v1.0/LinkingPhraseEnum#is%20the%20result%20of%20the%20test%20in> ;
    cosmos_sdtm:object "FTTESTCD" ;
    cosmos_sdtm:predicateTerm <https://www.cdisc.org/cosmos/sdtm_v1.0/PredicateTermEnum#IS_RESULT_OF> ;
    cosmos_sdtm:subject "FTORRES" .

<https://w3id.org/cdisc/cosmos/dss/FT/ADCCMP/FTSCAT/relationship> a cosmos_sdtm:RelationShip ;
    cosmos_sdtm:linkingPhrase <https://www.cdisc.org/cosmos/sdtm_v1.0/LinkingPhraseEnum#groups%20values%20in> ;
    cosmos_sdtm:object "FTCAT" ;
    cosmos_sdtm:predicateTerm <https://www.cdisc.org/cosmos/sdtm_v1.0/PredicateTermEnum#GROUPS> ;
    cosmos_sdtm:subject "FTSCAT" .

<https://w3id.org/cdisc/cosmos/dss/FT/ADCCMP/FTSTRESC/relationship> a cosmos_sdtm:RelationShip ;
    cosmos_sdtm:linkingPhrase <https://www.cdisc.org/cosmos/sdtm_v1.0/LinkingPhraseEnum#is%20the%20result%20of%20the%20test%20in> ;
    cosmos_sdtm:object "FTTESTCD" ;
    cosmos_sdtm:predicateTerm <https://www.cdisc.org/cosmos/sdtm_v1.0/PredicateTermEnum#IS_RESULT_OF> ;
    cosmos_sdtm:subject "FTSTRESC" .

<https://w3id.org/cdisc/cosmos/dss/FT/ADCCMP/FTSTRESN/relationship> a cosmos_sdtm:RelationShip ;
    cosmos_sdtm:linkingPhrase <https://www.cdisc.org/cosmos/sdtm_v1.0/LinkingPhraseEnum#is%20the%20result%20of%20the%20test%20in> ;
    cosmos_sdtm:object "FTTESTCD" ;
    cosmos_sdtm:predicateTerm <https://www.cdisc.org/cosmos/sdtm_v1.0/PredicateTermEnum#IS_RESULT_OF> ;
    cosmos_sdtm:subject "FTSTRESN" .

<https://w3id.org/cdisc/cosmos/dss/FT/ADCCMP/FTTEST/assignedTerm> a cosmos_sdtm:AssignedTerm ;
    cosmos_sdtm:conceptId NCIT:C100278 ;
    cosmos_sdtm:value "Comprehension" .

<https://w3id.org/cdisc/cosmos/dss/FT/ADCCMP/FTTEST/relationship> a cosmos_sdtm:RelationShip ;
    cosmos_sdtm:linkingPhrase <https://www.cdisc.org/cosmos/sdtm_v1.0/LinkingPhraseEnum#decodes%20the%20value%20in> ;
    cosmos_sdtm:object "FTTESTCD" ;
    cosmos_sdtm:predicateTerm <https://www.cdisc.org/cosmos/sdtm_v1.0/PredicateTermEnum#DECODES> ;
    cosmos_sdtm:subject "FTTEST" .

<https://w3id.org/cdisc/cosmos/dss/FT/ADCCMP/FTTESTCD/assignedTerm> a cosmos_sdtm:AssignedTerm ;
    cosmos_sdtm:conceptId NCIT:C100278 ;
    cosmos_sdtm:value "ADCCMP" .

<https://w3id.org/cdisc/cosmos/dss/FT/ADCCMP/FTTESTCD/relationship> a cosmos_sdtm:RelationShip ;
    cosmos_sdtm:linkingPhrase <https://www.cdisc.org/cosmos/sdtm_v1.0/LinkingPhraseEnum#is%20the%20code%20for%20the%20value%20in> ;
    cosmos_sdtm:object "FTTEST" ;
    cosmos_sdtm:predicateTerm <https://www.cdisc.org/cosmos/sdtm_v1.0/PredicateTermEnum#IS_DECODED_BY> ;
    cosmos_sdtm:subject "FTTESTCD" .

<https://w3id.org/cdisc/cosmos/dss/FT/ADCCON/FTCAT/assignedTerm> a cosmos_sdtm:AssignedTerm ;
    cosmos_sdtm:conceptId NCIT:C100762 ;
    cosmos_sdtm:value "ADAS-COG" .

<https://w3id.org/cdisc/cosmos/dss/FT/ADCCON/FTCAT/relationship> a cosmos_sdtm:RelationShip ;
    cosmos_sdtm:linkingPhrase <https://www.cdisc.org/cosmos/sdtm_v1.0/LinkingPhraseEnum#groups%20values%20in> ;
    cosmos_sdtm:object "FTTESTCD" ;
    cosmos_sdtm:predicateTerm <https://www.cdisc.org/cosmos/sdtm_v1.0/PredicateTermEnum#GROUPS> ;
    cosmos_sdtm:subject "FTCAT" .

<https://w3id.org/cdisc/cosmos/dss/FT/ADCCON/FTDTC/relationship> a cosmos_sdtm:RelationShip ;
    cosmos_sdtm:linkingPhrase <https://www.cdisc.org/cosmos/sdtm_v1.0/LinkingPhraseEnum#is%20the%20date%20of%20occurrence%20for> ;
    cosmos_sdtm:object "FTTESTCD" ;
    cosmos_sdtm:predicateTerm <https://www.cdisc.org/cosmos/sdtm_v1.0/PredicateTermEnum#IS_TIMING_FOR> ;
    cosmos_sdtm:subject "FTDTC" .

<https://w3id.org/cdisc/cosmos/dss/FT/ADCCON/FTORRES/relationship> a cosmos_sdtm:RelationShip ;
    cosmos_sdtm:linkingPhrase <https://www.cdisc.org/cosmos/sdtm_v1.0/LinkingPhraseEnum#is%20the%20result%20of%20the%20test%20in> ;
    cosmos_sdtm:object "FTTESTCD" ;
    cosmos_sdtm:predicateTerm <https://www.cdisc.org/cosmos/sdtm_v1.0/PredicateTermEnum#IS_RESULT_OF> ;
    cosmos_sdtm:subject "FTORRES" .

<https://w3id.org/cdisc/cosmos/dss/FT/ADCCON/FTSCAT/relationship> a cosmos_sdtm:RelationShip ;
    cosmos_sdtm:linkingPhrase <https://www.cdisc.org/cosmos/sdtm_v1.0/LinkingPhraseEnum#groups%20values%20in> ;
    cosmos_sdtm:object "FTCAT" ;
    cosmos_sdtm:predicateTerm <https://www.cdisc.org/cosmos/sdtm_v1.0/PredicateTermEnum#GROUPS> ;
    cosmos_sdtm:subject "FTSCAT" .

<https://w3id.org/cdisc/cosmos/dss/FT/ADCCON/FTSTRESC/relationship> a cosmos_sdtm:RelationShip ;
    cosmos_sdtm:linkingPhrase <https://www.cdisc.org/cosmos/sdtm_v1.0/LinkingPhraseEnum#is%20the%20result%20of%20the%20test%20in> ;
    cosmos_sdtm:object "FTTESTCD" ;
    cosmos_sdtm:predicateTerm <https://www.cdisc.org/cosmos/sdtm_v1.0/PredicateTermEnum#IS_RESULT_OF> ;
    cosmos_sdtm:subject "FTSTRESC" .

<https://w3id.org/cdisc/cosmos/dss/FT/ADCCON/FTSTRESN/relationship> a cosmos_sdtm:RelationShip ;
    cosmos_sdtm:linkingPhrase <https://www.cdisc.org/cosmos/sdtm_v1.0/LinkingPhraseEnum#is%20the%20result%20of%20the%20test%20in> ;
    cosmos_sdtm:object "FTTESTCD" ;
    cosmos_sdtm:predicateTerm <https://www.cdisc.org/cosmos/sdtm_v1.0/PredicateTermEnum#IS_RESULT_OF> ;
    cosmos_sdtm:subject "FTSTRESN" .

<https://w3id.org/cdisc/cosmos/dss/FT/ADCCON/FTTEST/assignedTerm> a cosmos_sdtm:AssignedTerm ;
    cosmos_sdtm:conceptId NCIT:C100279 ;
    cosmos_sdtm:value "Concentration/Distractibility" .

<https://w3id.org/cdisc/cosmos/dss/FT/ADCCON/FTTEST/relationship> a cosmos_sdtm:RelationShip ;
    cosmos_sdtm:linkingPhrase <https://www.cdisc.org/cosmos/sdtm_v1.0/LinkingPhraseEnum#decodes%20the%20value%20in> ;
    cosmos_sdtm:object "FTTESTCD" ;
    cosmos_sdtm:predicateTerm <https://www.cdisc.org/cosmos/sdtm_v1.0/PredicateTermEnum#DECODES> ;
    cosmos_sdtm:subject "FTTEST" .

<https://w3id.org/cdisc/cosmos/dss/FT/ADCCON/FTTESTCD/assignedTerm> a cosmos_sdtm:AssignedTerm ;
    cosmos_sdtm:conceptId NCIT:C100279 ;
    cosmos_sdtm:value "ADCCON" .

<https://w3id.org/cdisc/cosmos/dss/FT/ADCCON/FTTESTCD/relationship> a cosmos_sdtm:RelationShip ;
    cosmos_sdtm:linkingPhrase <https://www.cdisc.org/cosmos/sdtm_v1.0/LinkingPhraseEnum#is%20the%20code%20for%20the%20value%20in> ;
    cosmos_sdtm:object "FTTEST" ;
    cosmos_sdtm:predicateTerm <https://www.cdisc.org/cosmos/sdtm_v1.0/PredicateTermEnum#IS_DECODED_BY> ;
    cosmos_sdtm:subject "FTTESTCD" .

<https://w3id.org/cdisc/cosmos/dss/FT/ADCCP/FTCAT/assignedTerm> a cosmos_sdtm:AssignedTerm ;
    cosmos_sdtm:conceptId NCIT:C100762 ;
    cosmos_sdtm:value "ADAS-COG" .

<https://w3id.org/cdisc/cosmos/dss/FT/ADCCP/FTCAT/relationship> a cosmos_sdtm:RelationShip ;
    cosmos_sdtm:linkingPhrase <https://www.cdisc.org/cosmos/sdtm_v1.0/LinkingPhraseEnum#groups%20values%20in> ;
    cosmos_sdtm:object "FTTESTCD" ;
    cosmos_sdtm:predicateTerm <https://www.cdisc.org/cosmos/sdtm_v1.0/PredicateTermEnum#GROUPS> ;
    cosmos_sdtm:subject "FTCAT" .

<https://w3id.org/cdisc/cosmos/dss/FT/ADCCP/FTDTC/relationship> a cosmos_sdtm:RelationShip ;
    cosmos_sdtm:linkingPhrase <https://www.cdisc.org/cosmos/sdtm_v1.0/LinkingPhraseEnum#is%20the%20date%20of%20occurrence%20for> ;
    cosmos_sdtm:object "FTTESTCD" ;
    cosmos_sdtm:predicateTerm <https://www.cdisc.org/cosmos/sdtm_v1.0/PredicateTermEnum#IS_TIMING_FOR> ;
    cosmos_sdtm:subject "FTDTC" .

<https://w3id.org/cdisc/cosmos/dss/FT/ADCCP/FTORRES/relationship> a cosmos_sdtm:RelationShip ;
    cosmos_sdtm:linkingPhrase <https://www.cdisc.org/cosmos/sdtm_v1.0/LinkingPhraseEnum#is%20the%20result%20of%20the%20test%20in> ;
    cosmos_sdtm:object "FTTESTCD" ;
    cosmos_sdtm:predicateTerm <https://www.cdisc.org/cosmos/sdtm_v1.0/PredicateTermEnum#IS_RESULT_OF> ;
    cosmos_sdtm:subject "FTORRES" .

<https://w3id.org/cdisc/cosmos/dss/FT/ADCCP/FTSCAT/assignedTerm> a cosmos_sdtm:AssignedTerm ;
    cosmos_sdtm:value "CONSTRUCTIONAL PRAXIS" .

<https://w3id.org/cdisc/cosmos/dss/FT/ADCCP/FTSCAT/relationship> a cosmos_sdtm:RelationShip ;
    cosmos_sdtm:linkingPhrase <https://www.cdisc.org/cosmos/sdtm_v1.0/LinkingPhraseEnum#groups%20values%20in> ;
    cosmos_sdtm:object "FTCAT" ;
    cosmos_sdtm:predicateTerm <https://www.cdisc.org/cosmos/sdtm_v1.0/PredicateTermEnum#GROUPS> ;
    cosmos_sdtm:subject "FTSCAT" .

<https://w3id.org/cdisc/cosmos/dss/FT/ADCCP/FTSTRESC/relationship> a cosmos_sdtm:RelationShip ;
    cosmos_sdtm:linkingPhrase <https://www.cdisc.org/cosmos/sdtm_v1.0/LinkingPhraseEnum#is%20the%20result%20of%20the%20test%20in> ;
    cosmos_sdtm:object "FTTESTCD" ;
    cosmos_sdtm:predicateTerm <https://www.cdisc.org/cosmos/sdtm_v1.0/PredicateTermEnum#IS_RESULT_OF> ;
    cosmos_sdtm:subject "FTSTRESC" .

<https://w3id.org/cdisc/cosmos/dss/FT/ADCCP/FTSTRESN/relationship> a cosmos_sdtm:RelationShip ;
    cosmos_sdtm:linkingPhrase <https://www.cdisc.org/cosmos/sdtm_v1.0/LinkingPhraseEnum#is%20the%20result%20of%20the%20test%20in> ;
    cosmos_sdtm:object "FTTESTCD" ;
    cosmos_sdtm:predicateTerm <https://www.cdisc.org/cosmos/sdtm_v1.0/PredicateTermEnum#IS_RESULT_OF> ;
    cosmos_sdtm:subject "FTSTRESN" .

<https://w3id.org/cdisc/cosmos/dss/FT/ADCCP/FTTEST/assignedTerm> a cosmos_sdtm:AssignedTerm ;
    cosmos_sdtm:conceptId NCIT:C100226 ;
    cosmos_sdtm:value "Constructional Praxis" .

<https://w3id.org/cdisc/cosmos/dss/FT/ADCCP/FTTEST/relationship> a cosmos_sdtm:RelationShip ;
    cosmos_sdtm:linkingPhrase <https://www.cdisc.org/cosmos/sdtm_v1.0/LinkingPhraseEnum#decodes%20the%20value%20in> ;
    cosmos_sdtm:object "FTTESTCD" ;
    cosmos_sdtm:predicateTerm <https://www.cdisc.org/cosmos/sdtm_v1.0/PredicateTermEnum#DECODES> ;
    cosmos_sdtm:subject "FTTEST" .

<https://w3id.org/cdisc/cosmos/dss/FT/ADCCP/FTTESTCD/assignedTerm> a cosmos_sdtm:AssignedTerm ;
    cosmos_sdtm:conceptId NCIT:C100226 ;
    cosmos_sdtm:value "ADCCP" .

<https://w3id.org/cdisc/cosmos/dss/FT/ADCCP/FTTESTCD/relationship> a cosmos_sdtm:RelationShip ;
    cosmos_sdtm:linkingPhrase <https://www.cdisc.org/cosmos/sdtm_v1.0/LinkingPhraseEnum#is%20the%20code%20for%20the%20value%20in> ;
    cosmos_sdtm:object "FTTEST" ;
    cosmos_sdtm:predicateTerm <https://www.cdisc.org/cosmos/sdtm_v1.0/PredicateTermEnum#IS_DECODED_BY> ;
    cosmos_sdtm:subject "FTTESTCD" .

<https://w3id.org/cdisc/cosmos/dss/FT/ADCDIF/FTCAT/assignedTerm> a cosmos_sdtm:AssignedTerm ;
    cosmos_sdtm:conceptId NCIT:C100762 ;
    cosmos_sdtm:value "ADAS-COG" .

<https://w3id.org/cdisc/cosmos/dss/FT/ADCDIF/FTCAT/relationship> a cosmos_sdtm:RelationShip ;
    cosmos_sdtm:linkingPhrase <https://www.cdisc.org/cosmos/sdtm_v1.0/LinkingPhraseEnum#groups%20values%20in> ;
    cosmos_sdtm:object "FTTESTCD" ;
    cosmos_sdtm:predicateTerm <https://www.cdisc.org/cosmos/sdtm_v1.0/PredicateTermEnum#GROUPS> ;
    cosmos_sdtm:subject "FTCAT" .

<https://w3id.org/cdisc/cosmos/dss/FT/ADCDIF/FTDTC/relationship> a cosmos_sdtm:RelationShip ;
    cosmos_sdtm:linkingPhrase <https://www.cdisc.org/cosmos/sdtm_v1.0/LinkingPhraseEnum#is%20the%20date%20of%20occurrence%20for> ;
    cosmos_sdtm:object "FTTESTCD" ;
    cosmos_sdtm:predicateTerm <https://www.cdisc.org/cosmos/sdtm_v1.0/PredicateTermEnum#IS_TIMING_FOR> ;
    cosmos_sdtm:subject "FTDTC" .

<https://w3id.org/cdisc/cosmos/dss/FT/ADCDIF/FTORRES/relationship> a cosmos_sdtm:RelationShip ;
    cosmos_sdtm:linkingPhrase <https://www.cdisc.org/cosmos/sdtm_v1.0/LinkingPhraseEnum#is%20the%20result%20of%20the%20test%20in> ;
    cosmos_sdtm:object "FTTESTCD" ;
    cosmos_sdtm:predicateTerm <https://www.cdisc.org/cosmos/sdtm_v1.0/PredicateTermEnum#IS_RESULT_OF> ;
    cosmos_sdtm:subject "FTORRES" .

<https://w3id.org/cdisc/cosmos/dss/FT/ADCDIF/FTSCAT/relationship> a cosmos_sdtm:RelationShip ;
    cosmos_sdtm:linkingPhrase <https://www.cdisc.org/cosmos/sdtm_v1.0/LinkingPhraseEnum#groups%20values%20in> ;
    cosmos_sdtm:object "FTCAT" ;
    cosmos_sdtm:predicateTerm <https://www.cdisc.org/cosmos/sdtm_v1.0/PredicateTermEnum#GROUPS> ;
    cosmos_sdtm:subject "FTSCAT" .

<https://w3id.org/cdisc/cosmos/dss/FT/ADCDIF/FTSTRESC/relationship> a cosmos_sdtm:RelationShip ;
    cosmos_sdtm:linkingPhrase <https://www.cdisc.org/cosmos/sdtm_v1.0/LinkingPhraseEnum#is%20the%20result%20of%20the%20test%20in> ;
    cosmos_sdtm:object "FTTESTCD" ;
    cosmos_sdtm:predicateTerm <https://www.cdisc.org/cosmos/sdtm_v1.0/PredicateTermEnum#IS_RESULT_OF> ;
    cosmos_sdtm:subject "FTSTRESC" .

<https://w3id.org/cdisc/cosmos/dss/FT/ADCDIF/FTSTRESN/relationship> a cosmos_sdtm:RelationShip ;
    cosmos_sdtm:linkingPhrase <https://www.cdisc.org/cosmos/sdtm_v1.0/LinkingPhraseEnum#is%20the%20result%20of%20the%20test%20in> ;
    cosmos_sdtm:object "FTTESTCD" ;
    cosmos_sdtm:predicateTerm <https://www.cdisc.org/cosmos/sdtm_v1.0/PredicateTermEnum#IS_RESULT_OF> ;
    cosmos_sdtm:subject "FTSTRESN" .

<https://w3id.org/cdisc/cosmos/dss/FT/ADCDIF/FTTEST/assignedTerm> a cosmos_sdtm:AssignedTerm ;
    cosmos_sdtm:conceptId NCIT:C100277 ;
    cosmos_sdtm:value "Word Finding Difficulty in Spont Speech" .

<https://w3id.org/cdisc/cosmos/dss/FT/ADCDIF/FTTEST/relationship> a cosmos_sdtm:RelationShip ;
    cosmos_sdtm:linkingPhrase <https://www.cdisc.org/cosmos/sdtm_v1.0/LinkingPhraseEnum#decodes%20the%20value%20in> ;
    cosmos_sdtm:object "FTTESTCD" ;
    cosmos_sdtm:predicateTerm <https://www.cdisc.org/cosmos/sdtm_v1.0/PredicateTermEnum#DECODES> ;
    cosmos_sdtm:subject "FTTEST" .

<https://w3id.org/cdisc/cosmos/dss/FT/ADCDIF/FTTESTCD/assignedTerm> a cosmos_sdtm:AssignedTerm ;
    cosmos_sdtm:conceptId NCIT:C100277 ;
    cosmos_sdtm:value "ADCDIF" .

<https://w3id.org/cdisc/cosmos/dss/FT/ADCDIF/FTTESTCD/relationship> a cosmos_sdtm:RelationShip ;
    cosmos_sdtm:linkingPhrase <https://www.cdisc.org/cosmos/sdtm_v1.0/LinkingPhraseEnum#is%20the%20code%20for%20the%20value%20in> ;
    cosmos_sdtm:object "FTTEST" ;
    cosmos_sdtm:predicateTerm <https://www.cdisc.org/cosmos/sdtm_v1.0/PredicateTermEnum#IS_DECODED_BY> ;
    cosmos_sdtm:subject "FTTESTCD" .

<https://w3id.org/cdisc/cosmos/dss/FT/ADCDRL/FTCAT/assignedTerm> a cosmos_sdtm:AssignedTerm ;
    cosmos_sdtm:conceptId NCIT:C100762 ;
    cosmos_sdtm:value "ADAS-COG" .

<https://w3id.org/cdisc/cosmos/dss/FT/ADCDRL/FTCAT/relationship> a cosmos_sdtm:RelationShip ;
    cosmos_sdtm:linkingPhrase <https://www.cdisc.org/cosmos/sdtm_v1.0/LinkingPhraseEnum#groups%20values%20in> ;
    cosmos_sdtm:object "FTTESTCD" ;
    cosmos_sdtm:predicateTerm <https://www.cdisc.org/cosmos/sdtm_v1.0/PredicateTermEnum#GROUPS> ;
    cosmos_sdtm:subject "FTCAT" .

<https://w3id.org/cdisc/cosmos/dss/FT/ADCDRL/FTDTC/relationship> a cosmos_sdtm:RelationShip ;
    cosmos_sdtm:linkingPhrase <https://www.cdisc.org/cosmos/sdtm_v1.0/LinkingPhraseEnum#is%20the%20date%20of%20occurrence%20for> ;
    cosmos_sdtm:object "FTTESTCD" ;
    cosmos_sdtm:predicateTerm <https://www.cdisc.org/cosmos/sdtm_v1.0/PredicateTermEnum#IS_TIMING_FOR> ;
    cosmos_sdtm:subject "FTDTC" .

<https://w3id.org/cdisc/cosmos/dss/FT/ADCDRL/FTORRES/relationship> a cosmos_sdtm:RelationShip ;
    cosmos_sdtm:linkingPhrase <https://www.cdisc.org/cosmos/sdtm_v1.0/LinkingPhraseEnum#is%20the%20result%20of%20the%20test%20in> ;
    cosmos_sdtm:object "FTTESTCD" ;
    cosmos_sdtm:predicateTerm <https://www.cdisc.org/cosmos/sdtm_v1.0/PredicateTermEnum#IS_RESULT_OF> ;
    cosmos_sdtm:subject "FTORRES" .

<https://w3id.org/cdisc/cosmos/dss/FT/ADCDRL/FTSCAT/assignedTerm> a cosmos_sdtm:AssignedTerm ;
    cosmos_sdtm:value "DELAYED WORD-RECALL TASK" .

<https://w3id.org/cdisc/cosmos/dss/FT/ADCDRL/FTSCAT/relationship> a cosmos_sdtm:RelationShip ;
    cosmos_sdtm:linkingPhrase <https://www.cdisc.org/cosmos/sdtm_v1.0/LinkingPhraseEnum#groups%20values%20in> ;
    cosmos_sdtm:object "FTCAT" ;
    cosmos_sdtm:predicateTerm <https://www.cdisc.org/cosmos/sdtm_v1.0/PredicateTermEnum#GROUPS> ;
    cosmos_sdtm:subject "FTSCAT" .

<https://w3id.org/cdisc/cosmos/dss/FT/ADCDRL/FTSTRESC/relationship> a cosmos_sdtm:RelationShip ;
    cosmos_sdtm:linkingPhrase <https://www.cdisc.org/cosmos/sdtm_v1.0/LinkingPhraseEnum#is%20the%20result%20of%20the%20test%20in> ;
    cosmos_sdtm:object "FTTESTCD" ;
    cosmos_sdtm:predicateTerm <https://www.cdisc.org/cosmos/sdtm_v1.0/PredicateTermEnum#IS_RESULT_OF> ;
    cosmos_sdtm:subject "FTSTRESC" .

<https://w3id.org/cdisc/cosmos/dss/FT/ADCDRL/FTSTRESN/relationship> a cosmos_sdtm:RelationShip ;
    cosmos_sdtm:linkingPhrase <https://www.cdisc.org/cosmos/sdtm_v1.0/LinkingPhraseEnum#is%20the%20result%20of%20the%20test%20in> ;
    cosmos_sdtm:object "FTTESTCD" ;
    cosmos_sdtm:predicateTerm <https://www.cdisc.org/cosmos/sdtm_v1.0/PredicateTermEnum#IS_RESULT_OF> ;
    cosmos_sdtm:subject "FTSTRESN" .

<https://w3id.org/cdisc/cosmos/dss/FT/ADCDRL/FTTEST/assignedTerm> a cosmos_sdtm:AssignedTerm ;
    cosmos_sdtm:conceptId NCIT:C100215 ;
    cosmos_sdtm:value "Delayed Word Recall" .

<https://w3id.org/cdisc/cosmos/dss/FT/ADCDRL/FTTEST/relationship> a cosmos_sdtm:RelationShip ;
    cosmos_sdtm:linkingPhrase <https://www.cdisc.org/cosmos/sdtm_v1.0/LinkingPhraseEnum#decodes%20the%20value%20in> ;
    cosmos_sdtm:object "FTTESTCD" ;
    cosmos_sdtm:predicateTerm <https://www.cdisc.org/cosmos/sdtm_v1.0/PredicateTermEnum#DECODES> ;
    cosmos_sdtm:subject "FTTEST" .

<https://w3id.org/cdisc/cosmos/dss/FT/ADCDRL/FTTESTCD/assignedTerm> a cosmos_sdtm:AssignedTerm ;
    cosmos_sdtm:conceptId NCIT:C100215 ;
    cosmos_sdtm:value "ADCDRL" .

<https://w3id.org/cdisc/cosmos/dss/FT/ADCDRL/FTTESTCD/relationship> a cosmos_sdtm:RelationShip ;
    cosmos_sdtm:linkingPhrase <https://www.cdisc.org/cosmos/sdtm_v1.0/LinkingPhraseEnum#is%20the%20code%20for%20the%20value%20in> ;
    cosmos_sdtm:object "FTTEST" ;
    cosmos_sdtm:predicateTerm <https://www.cdisc.org/cosmos/sdtm_v1.0/PredicateTermEnum#IS_DECODED_BY> ;
    cosmos_sdtm:subject "FTTESTCD" .

<https://w3id.org/cdisc/cosmos/dss/FT/ADCIP/FTCAT/assignedTerm> a cosmos_sdtm:AssignedTerm ;
    cosmos_sdtm:conceptId NCIT:C100762 ;
    cosmos_sdtm:value "ADAS-COG" .

<https://w3id.org/cdisc/cosmos/dss/FT/ADCIP/FTCAT/relationship> a cosmos_sdtm:RelationShip ;
    cosmos_sdtm:linkingPhrase <https://www.cdisc.org/cosmos/sdtm_v1.0/LinkingPhraseEnum#groups%20values%20in> ;
    cosmos_sdtm:object "FTTESTCD" ;
    cosmos_sdtm:predicateTerm <https://www.cdisc.org/cosmos/sdtm_v1.0/PredicateTermEnum#GROUPS> ;
    cosmos_sdtm:subject "FTCAT" .

<https://w3id.org/cdisc/cosmos/dss/FT/ADCIP/FTDTC/relationship> a cosmos_sdtm:RelationShip ;
    cosmos_sdtm:linkingPhrase <https://www.cdisc.org/cosmos/sdtm_v1.0/LinkingPhraseEnum#is%20the%20date%20of%20occurrence%20for> ;
    cosmos_sdtm:object "FTTESTCD" ;
    cosmos_sdtm:predicateTerm <https://www.cdisc.org/cosmos/sdtm_v1.0/PredicateTermEnum#IS_TIMING_FOR> ;
    cosmos_sdtm:subject "FTDTC" .

<https://w3id.org/cdisc/cosmos/dss/FT/ADCIP/FTORRES/relationship> a cosmos_sdtm:RelationShip ;
    cosmos_sdtm:linkingPhrase <https://www.cdisc.org/cosmos/sdtm_v1.0/LinkingPhraseEnum#is%20the%20result%20of%20the%20test%20in> ;
    cosmos_sdtm:object "FTTESTCD" ;
    cosmos_sdtm:predicateTerm <https://www.cdisc.org/cosmos/sdtm_v1.0/PredicateTermEnum#IS_RESULT_OF> ;
    cosmos_sdtm:subject "FTORRES" .

<https://w3id.org/cdisc/cosmos/dss/FT/ADCIP/FTSCAT/assignedTerm> a cosmos_sdtm:AssignedTerm ;
    cosmos_sdtm:value "IDEATIONAL PRAXIS" .

<https://w3id.org/cdisc/cosmos/dss/FT/ADCIP/FTSCAT/relationship> a cosmos_sdtm:RelationShip ;
    cosmos_sdtm:linkingPhrase <https://www.cdisc.org/cosmos/sdtm_v1.0/LinkingPhraseEnum#groups%20values%20in> ;
    cosmos_sdtm:object "FTCAT" ;
    cosmos_sdtm:predicateTerm <https://www.cdisc.org/cosmos/sdtm_v1.0/PredicateTermEnum#GROUPS> ;
    cosmos_sdtm:subject "FTSCAT" .

<https://w3id.org/cdisc/cosmos/dss/FT/ADCIP/FTSTRESC/relationship> a cosmos_sdtm:RelationShip ;
    cosmos_sdtm:linkingPhrase <https://www.cdisc.org/cosmos/sdtm_v1.0/LinkingPhraseEnum#is%20the%20result%20of%20the%20test%20in> ;
    cosmos_sdtm:object "FTTESTCD" ;
    cosmos_sdtm:predicateTerm <https://www.cdisc.org/cosmos/sdtm_v1.0/PredicateTermEnum#IS_RESULT_OF> ;
    cosmos_sdtm:subject "FTSTRESC" .

<https://w3id.org/cdisc/cosmos/dss/FT/ADCIP/FTSTRESN/relationship> a cosmos_sdtm:RelationShip ;
    cosmos_sdtm:linkingPhrase <https://www.cdisc.org/cosmos/sdtm_v1.0/LinkingPhraseEnum#is%20the%20result%20of%20the%20test%20in> ;
    cosmos_sdtm:object "FTTESTCD" ;
    cosmos_sdtm:predicateTerm <https://www.cdisc.org/cosmos/sdtm_v1.0/PredicateTermEnum#IS_RESULT_OF> ;
    cosmos_sdtm:subject "FTSTRESN" .

<https://w3id.org/cdisc/cosmos/dss/FT/ADCIP/FTTEST/assignedTerm> a cosmos_sdtm:AssignedTerm ;
    cosmos_sdtm:conceptId NCIT:C100232 ;
    cosmos_sdtm:value "Ideational Praxis" .

<https://w3id.org/cdisc/cosmos/dss/FT/ADCIP/FTTEST/relationship> a cosmos_sdtm:RelationShip ;
    cosmos_sdtm:linkingPhrase <https://www.cdisc.org/cosmos/sdtm_v1.0/LinkingPhraseEnum#decodes%20the%20value%20in> ;
    cosmos_sdtm:object "FTTESTCD" ;
    cosmos_sdtm:predicateTerm <https://www.cdisc.org/cosmos/sdtm_v1.0/PredicateTermEnum#DECODES> ;
    cosmos_sdtm:subject "FTTEST" .

<https://w3id.org/cdisc/cosmos/dss/FT/ADCIP/FTTESTCD/assignedTerm> a cosmos_sdtm:AssignedTerm ;
    cosmos_sdtm:conceptId NCIT:C100232 ;
    cosmos_sdtm:value "ADCIP" .

<https://w3id.org/cdisc/cosmos/dss/FT/ADCIP/FTTESTCD/relationship> a cosmos_sdtm:RelationShip ;
    cosmos_sdtm:linkingPhrase <https://www.cdisc.org/cosmos/sdtm_v1.0/LinkingPhraseEnum#is%20the%20code%20for%20the%20value%20in> ;
    cosmos_sdtm:object "FTTEST" ;
    cosmos_sdtm:predicateTerm <https://www.cdisc.org/cosmos/sdtm_v1.0/PredicateTermEnum#IS_DECODED_BY> ;
    cosmos_sdtm:subject "FTTESTCD" .

<https://w3id.org/cdisc/cosmos/dss/FT/ADCMZ01/FTCAT/assignedTerm> a cosmos_sdtm:AssignedTerm ;
    cosmos_sdtm:conceptId NCIT:C100762 ;
    cosmos_sdtm:value "ADAS-COG" .

<https://w3id.org/cdisc/cosmos/dss/FT/ADCMZ01/FTCAT/relationship> a cosmos_sdtm:RelationShip ;
    cosmos_sdtm:linkingPhrase <https://www.cdisc.org/cosmos/sdtm_v1.0/LinkingPhraseEnum#groups%20values%20in> ;
    cosmos_sdtm:object "FTTESTCD" ;
    cosmos_sdtm:predicateTerm <https://www.cdisc.org/cosmos/sdtm_v1.0/PredicateTermEnum#GROUPS> ;
    cosmos_sdtm:subject "FTCAT" .

<https://w3id.org/cdisc/cosmos/dss/FT/ADCMZ01/FTDTC/relationship> a cosmos_sdtm:RelationShip ;
    cosmos_sdtm:linkingPhrase <https://www.cdisc.org/cosmos/sdtm_v1.0/LinkingPhraseEnum#is%20the%20date%20of%20occurrence%20for> ;
    cosmos_sdtm:object "FTTESTCD" ;
    cosmos_sdtm:predicateTerm <https://www.cdisc.org/cosmos/sdtm_v1.0/PredicateTermEnum#IS_TIMING_FOR> ;
    cosmos_sdtm:subject "FTDTC" .

<https://w3id.org/cdisc/cosmos/dss/FT/ADCMZ01/FTORRES/relationship> a cosmos_sdtm:RelationShip ;
    cosmos_sdtm:linkingPhrase <https://www.cdisc.org/cosmos/sdtm_v1.0/LinkingPhraseEnum#is%20the%20result%20of%20the%20test%20in> ;
    cosmos_sdtm:object "FTTESTCD" ;
    cosmos_sdtm:predicateTerm <https://www.cdisc.org/cosmos/sdtm_v1.0/PredicateTermEnum#IS_RESULT_OF> ;
    cosmos_sdtm:subject "FTORRES" .

<https://w3id.org/cdisc/cosmos/dss/FT/ADCMZ01/FTSCAT/assignedTerm> a cosmos_sdtm:AssignedTerm ;
    cosmos_sdtm:value "EXECUTIVE FUNCTION MAZE" .

<https://w3id.org/cdisc/cosmos/dss/FT/ADCMZ01/FTSCAT/relationship> a cosmos_sdtm:RelationShip ;
    cosmos_sdtm:linkingPhrase <https://www.cdisc.org/cosmos/sdtm_v1.0/LinkingPhraseEnum#groups%20values%20in> ;
    cosmos_sdtm:object "FTCAT" ;
    cosmos_sdtm:predicateTerm <https://www.cdisc.org/cosmos/sdtm_v1.0/PredicateTermEnum#GROUPS> ;
    cosmos_sdtm:subject "FTSCAT" .

<https://w3id.org/cdisc/cosmos/dss/FT/ADCMZ01/FTSTRESC/relationship> a cosmos_sdtm:RelationShip ;
    cosmos_sdtm:linkingPhrase <https://www.cdisc.org/cosmos/sdtm_v1.0/LinkingPhraseEnum#is%20the%20result%20of%20the%20test%20in> ;
    cosmos_sdtm:object "FTTESTCD" ;
    cosmos_sdtm:predicateTerm <https://www.cdisc.org/cosmos/sdtm_v1.0/PredicateTermEnum#IS_RESULT_OF> ;
    cosmos_sdtm:subject "FTSTRESC" .

<https://w3id.org/cdisc/cosmos/dss/FT/ADCMZ01/FTSTRESN/relationship> a cosmos_sdtm:RelationShip ;
    cosmos_sdtm:linkingPhrase <https://www.cdisc.org/cosmos/sdtm_v1.0/LinkingPhraseEnum#is%20the%20result%20of%20the%20test%20in> ;
    cosmos_sdtm:object "FTTESTCD" ;
    cosmos_sdtm:predicateTerm <https://www.cdisc.org/cosmos/sdtm_v1.0/PredicateTermEnum#IS_RESULT_OF> ;
    cosmos_sdtm:subject "FTSTRESN" .

<https://w3id.org/cdisc/cosmos/dss/FT/ADCMZ01/FTTEST/assignedTerm> a cosmos_sdtm:AssignedTerm ;
    cosmos_sdtm:conceptId NCIT:C100285 ;
    cosmos_sdtm:value "Executive Function Maze: Errors" .

<https://w3id.org/cdisc/cosmos/dss/FT/ADCMZ01/FTTEST/relationship> a cosmos_sdtm:RelationShip ;
    cosmos_sdtm:linkingPhrase <https://www.cdisc.org/cosmos/sdtm_v1.0/LinkingPhraseEnum#decodes%20the%20value%20in> ;
    cosmos_sdtm:object "FTTESTCD" ;
    cosmos_sdtm:predicateTerm <https://www.cdisc.org/cosmos/sdtm_v1.0/PredicateTermEnum#DECODES> ;
    cosmos_sdtm:subject "FTTEST" .

<https://w3id.org/cdisc/cosmos/dss/FT/ADCMZ01/FTTESTCD/assignedTerm> a cosmos_sdtm:AssignedTerm ;
    cosmos_sdtm:conceptId NCIT:C100285 ;
    cosmos_sdtm:value "ADCMZ01" .

<https://w3id.org/cdisc/cosmos/dss/FT/ADCMZ01/FTTESTCD/relationship> a cosmos_sdtm:RelationShip ;
    cosmos_sdtm:linkingPhrase <https://www.cdisc.org/cosmos/sdtm_v1.0/LinkingPhraseEnum#is%20the%20code%20for%20the%20value%20in> ;
    cosmos_sdtm:object "FTTEST" ;
    cosmos_sdtm:predicateTerm <https://www.cdisc.org/cosmos/sdtm_v1.0/PredicateTermEnum#IS_DECODED_BY> ;
    cosmos_sdtm:subject "FTTESTCD" .

<https://w3id.org/cdisc/cosmos/dss/FT/ADCMZ02/FTCAT/assignedTerm> a cosmos_sdtm:AssignedTerm ;
    cosmos_sdtm:conceptId NCIT:C100762 ;
    cosmos_sdtm:value "ADAS-COG" .

<https://w3id.org/cdisc/cosmos/dss/FT/ADCMZ02/FTCAT/relationship> a cosmos_sdtm:RelationShip ;
    cosmos_sdtm:linkingPhrase <https://www.cdisc.org/cosmos/sdtm_v1.0/LinkingPhraseEnum#groups%20values%20in> ;
    cosmos_sdtm:object "FTTESTCD" ;
    cosmos_sdtm:predicateTerm <https://www.cdisc.org/cosmos/sdtm_v1.0/PredicateTermEnum#GROUPS> ;
    cosmos_sdtm:subject "FTCAT" .

<https://w3id.org/cdisc/cosmos/dss/FT/ADCMZ02/FTDTC/relationship> a cosmos_sdtm:RelationShip ;
    cosmos_sdtm:linkingPhrase <https://www.cdisc.org/cosmos/sdtm_v1.0/LinkingPhraseEnum#is%20the%20date%20of%20occurrence%20for> ;
    cosmos_sdtm:object "FTTESTCD" ;
    cosmos_sdtm:predicateTerm <https://www.cdisc.org/cosmos/sdtm_v1.0/PredicateTermEnum#IS_TIMING_FOR> ;
    cosmos_sdtm:subject "FTDTC" .

<https://w3id.org/cdisc/cosmos/dss/FT/ADCMZ02/FTORRES/relationship> a cosmos_sdtm:RelationShip ;
    cosmos_sdtm:linkingPhrase <https://www.cdisc.org/cosmos/sdtm_v1.0/LinkingPhraseEnum#is%20the%20result%20of%20the%20test%20in> ;
    cosmos_sdtm:object "FTTESTCD" ;
    cosmos_sdtm:predicateTerm <https://www.cdisc.org/cosmos/sdtm_v1.0/PredicateTermEnum#IS_RESULT_OF> ;
    cosmos_sdtm:subject "FTORRES" .

<https://w3id.org/cdisc/cosmos/dss/FT/ADCMZ02/FTORRESU/assignedTerm> a cosmos_sdtm:AssignedTerm ;
    cosmos_sdtm:conceptId NCIT:C42535 ;
    cosmos_sdtm:value "s" .

<https://w3id.org/cdisc/cosmos/dss/FT/ADCMZ02/FTORRESU/relationship> a cosmos_sdtm:RelationShip ;
    cosmos_sdtm:linkingPhrase <https://www.cdisc.org/cosmos/sdtm_v1.0/LinkingPhraseEnum#is%20the%20unit%20for%20the%20value%20in> ;
    cosmos_sdtm:object "FTORRES" ;
    cosmos_sdtm:predicateTerm <https://www.cdisc.org/cosmos/sdtm_v1.0/PredicateTermEnum#IS_UNIT_FOR> ;
    cosmos_sdtm:subject "FTORRESU" .

<https://w3id.org/cdisc/cosmos/dss/FT/ADCMZ02/FTSCAT/assignedTerm> a cosmos_sdtm:AssignedTerm ;
    cosmos_sdtm:value "EXECUTIVE FUNCTION MAZE" .

<https://w3id.org/cdisc/cosmos/dss/FT/ADCMZ02/FTSCAT/relationship> a cosmos_sdtm:RelationShip ;
    cosmos_sdtm:linkingPhrase <https://www.cdisc.org/cosmos/sdtm_v1.0/LinkingPhraseEnum#groups%20values%20in> ;
    cosmos_sdtm:object "FTCAT" ;
    cosmos_sdtm:predicateTerm <https://www.cdisc.org/cosmos/sdtm_v1.0/PredicateTermEnum#GROUPS> ;
    cosmos_sdtm:subject "FTSCAT" .

<https://w3id.org/cdisc/cosmos/dss/FT/ADCMZ02/FTSTRESC/relationship> a cosmos_sdtm:RelationShip ;
    cosmos_sdtm:linkingPhrase <https://www.cdisc.org/cosmos/sdtm_v1.0/LinkingPhraseEnum#is%20the%20result%20of%20the%20test%20in> ;
    cosmos_sdtm:object "FTTESTCD" ;
    cosmos_sdtm:predicateTerm <https://www.cdisc.org/cosmos/sdtm_v1.0/PredicateTermEnum#IS_RESULT_OF> ;
    cosmos_sdtm:subject "FTSTRESC" .

<https://w3id.org/cdisc/cosmos/dss/FT/ADCMZ02/FTSTRESN/relationship> a cosmos_sdtm:RelationShip ;
    cosmos_sdtm:linkingPhrase <https://www.cdisc.org/cosmos/sdtm_v1.0/LinkingPhraseEnum#is%20the%20result%20of%20the%20test%20in> ;
    cosmos_sdtm:object "FTTESTCD" ;
    cosmos_sdtm:predicateTerm <https://www.cdisc.org/cosmos/sdtm_v1.0/PredicateTermEnum#IS_RESULT_OF> ;
    cosmos_sdtm:subject "FTSTRESN" .

<https://w3id.org/cdisc/cosmos/dss/FT/ADCMZ02/FTSTRESU/assignedTerm> a cosmos_sdtm:AssignedTerm ;
    cosmos_sdtm:conceptId NCIT:C42535 ;
    cosmos_sdtm:value "s" .

<https://w3id.org/cdisc/cosmos/dss/FT/ADCMZ02/FTSTRESU/relationship> a cosmos_sdtm:RelationShip ;
    cosmos_sdtm:linkingPhrase <https://www.cdisc.org/cosmos/sdtm_v1.0/LinkingPhraseEnum#is%20the%20unit%20for%20the%20value%20in> ;
    cosmos_sdtm:object "FTSTRESN" ;
    cosmos_sdtm:predicateTerm <https://www.cdisc.org/cosmos/sdtm_v1.0/PredicateTermEnum#IS_UNIT_FOR> ;
    cosmos_sdtm:subject "FTSTRESU" .

<https://w3id.org/cdisc/cosmos/dss/FT/ADCMZ02/FTTEST/assignedTerm> a cosmos_sdtm:AssignedTerm ;
    cosmos_sdtm:conceptId NCIT:C100286 ;
    cosmos_sdtm:value "Executive Function Maze: Time" .

<https://w3id.org/cdisc/cosmos/dss/FT/ADCMZ02/FTTEST/relationship> a cosmos_sdtm:RelationShip ;
    cosmos_sdtm:linkingPhrase <https://www.cdisc.org/cosmos/sdtm_v1.0/LinkingPhraseEnum#decodes%20the%20value%20in> ;
    cosmos_sdtm:object "FTTESTCD" ;
    cosmos_sdtm:predicateTerm <https://www.cdisc.org/cosmos/sdtm_v1.0/PredicateTermEnum#DECODES> ;
    cosmos_sdtm:subject "FTTEST" .

<https://w3id.org/cdisc/cosmos/dss/FT/ADCMZ02/FTTESTCD/assignedTerm> a cosmos_sdtm:AssignedTerm ;
    cosmos_sdtm:conceptId NCIT:C100286 ;
    cosmos_sdtm:value "ADCMZ02" .

<https://w3id.org/cdisc/cosmos/dss/FT/ADCMZ02/FTTESTCD/relationship> a cosmos_sdtm:RelationShip ;
    cosmos_sdtm:linkingPhrase <https://www.cdisc.org/cosmos/sdtm_v1.0/LinkingPhraseEnum#is%20the%20code%20for%20the%20value%20in> ;
    cosmos_sdtm:object "FTTEST" ;
    cosmos_sdtm:predicateTerm <https://www.cdisc.org/cosmos/sdtm_v1.0/PredicateTermEnum#IS_DECODED_BY> ;
    cosmos_sdtm:subject "FTTESTCD" .

<https://w3id.org/cdisc/cosmos/dss/FT/ADCNC/FTCAT/assignedTerm> a cosmos_sdtm:AssignedTerm ;
    cosmos_sdtm:conceptId NCIT:C100762 ;
    cosmos_sdtm:value "ADAS-COG" .

<https://w3id.org/cdisc/cosmos/dss/FT/ADCNC/FTCAT/relationship> a cosmos_sdtm:RelationShip ;
    cosmos_sdtm:linkingPhrase <https://www.cdisc.org/cosmos/sdtm_v1.0/LinkingPhraseEnum#groups%20values%20in> ;
    cosmos_sdtm:object "FTTESTCD" ;
    cosmos_sdtm:predicateTerm <https://www.cdisc.org/cosmos/sdtm_v1.0/PredicateTermEnum#GROUPS> ;
    cosmos_sdtm:subject "FTCAT" .

<https://w3id.org/cdisc/cosmos/dss/FT/ADCNC/FTDTC/relationship> a cosmos_sdtm:RelationShip ;
    cosmos_sdtm:linkingPhrase <https://www.cdisc.org/cosmos/sdtm_v1.0/LinkingPhraseEnum#is%20the%20date%20of%20occurrence%20for> ;
    cosmos_sdtm:object "FTTESTCD" ;
    cosmos_sdtm:predicateTerm <https://www.cdisc.org/cosmos/sdtm_v1.0/PredicateTermEnum#IS_TIMING_FOR> ;
    cosmos_sdtm:subject "FTDTC" .

<https://w3id.org/cdisc/cosmos/dss/FT/ADCNC/FTORRES/relationship> a cosmos_sdtm:RelationShip ;
    cosmos_sdtm:linkingPhrase <https://www.cdisc.org/cosmos/sdtm_v1.0/LinkingPhraseEnum#is%20the%20result%20of%20the%20test%20in> ;
    cosmos_sdtm:object "FTTESTCD" ;
    cosmos_sdtm:predicateTerm <https://www.cdisc.org/cosmos/sdtm_v1.0/PredicateTermEnum#IS_RESULT_OF> ;
    cosmos_sdtm:subject "FTORRES" .

<https://w3id.org/cdisc/cosmos/dss/FT/ADCNC/FTSCAT/assignedTerm> a cosmos_sdtm:AssignedTerm ;
    cosmos_sdtm:value "NUMBER CANCELLATION" .

<https://w3id.org/cdisc/cosmos/dss/FT/ADCNC/FTSCAT/relationship> a cosmos_sdtm:RelationShip ;
    cosmos_sdtm:linkingPhrase <https://www.cdisc.org/cosmos/sdtm_v1.0/LinkingPhraseEnum#groups%20values%20in> ;
    cosmos_sdtm:object "FTCAT" ;
    cosmos_sdtm:predicateTerm <https://www.cdisc.org/cosmos/sdtm_v1.0/PredicateTermEnum#GROUPS> ;
    cosmos_sdtm:subject "FTSCAT" .

<https://w3id.org/cdisc/cosmos/dss/FT/ADCNC/FTSTRESC/relationship> a cosmos_sdtm:RelationShip ;
    cosmos_sdtm:linkingPhrase <https://www.cdisc.org/cosmos/sdtm_v1.0/LinkingPhraseEnum#is%20the%20result%20of%20the%20test%20in> ;
    cosmos_sdtm:object "FTTESTCD" ;
    cosmos_sdtm:predicateTerm <https://www.cdisc.org/cosmos/sdtm_v1.0/PredicateTermEnum#IS_RESULT_OF> ;
    cosmos_sdtm:subject "FTSTRESC" .

<https://w3id.org/cdisc/cosmos/dss/FT/ADCNC/FTSTRESN/relationship> a cosmos_sdtm:RelationShip ;
    cosmos_sdtm:linkingPhrase <https://www.cdisc.org/cosmos/sdtm_v1.0/LinkingPhraseEnum#is%20the%20result%20of%20the%20test%20in> ;
    cosmos_sdtm:object "FTTESTCD" ;
    cosmos_sdtm:predicateTerm <https://www.cdisc.org/cosmos/sdtm_v1.0/PredicateTermEnum#IS_RESULT_OF> ;
    cosmos_sdtm:subject "FTSTRESN" .

<https://w3id.org/cdisc/cosmos/dss/FT/ADCNC/FTTEST/assignedTerm> a cosmos_sdtm:AssignedTerm ;
    cosmos_sdtm:conceptId NCIT:C100280 ;
    cosmos_sdtm:value "Number Cancellation" .

<https://w3id.org/cdisc/cosmos/dss/FT/ADCNC/FTTEST/relationship> a cosmos_sdtm:RelationShip ;
    cosmos_sdtm:linkingPhrase <https://www.cdisc.org/cosmos/sdtm_v1.0/LinkingPhraseEnum#decodes%20the%20value%20in> ;
    cosmos_sdtm:object "FTTESTCD" ;
    cosmos_sdtm:predicateTerm <https://www.cdisc.org/cosmos/sdtm_v1.0/PredicateTermEnum#DECODES> ;
    cosmos_sdtm:subject "FTTEST" .

<https://w3id.org/cdisc/cosmos/dss/FT/ADCNC/FTTESTCD/assignedTerm> a cosmos_sdtm:AssignedTerm ;
    cosmos_sdtm:conceptId NCIT:C100280 ;
    cosmos_sdtm:value "ADCNC" .

<https://w3id.org/cdisc/cosmos/dss/FT/ADCNC/FTTESTCD/relationship> a cosmos_sdtm:RelationShip ;
    cosmos_sdtm:linkingPhrase <https://www.cdisc.org/cosmos/sdtm_v1.0/LinkingPhraseEnum#is%20the%20code%20for%20the%20value%20in> ;
    cosmos_sdtm:object "FTTEST" ;
    cosmos_sdtm:predicateTerm <https://www.cdisc.org/cosmos/sdtm_v1.0/PredicateTermEnum#IS_DECODED_BY> ;
    cosmos_sdtm:subject "FTTESTCD" .

<https://w3id.org/cdisc/cosmos/dss/FT/ADCOF/FTCAT/assignedTerm> a cosmos_sdtm:AssignedTerm ;
    cosmos_sdtm:conceptId NCIT:C100762 ;
    cosmos_sdtm:value "ADAS-COG" .

<https://w3id.org/cdisc/cosmos/dss/FT/ADCOF/FTCAT/relationship> a cosmos_sdtm:RelationShip ;
    cosmos_sdtm:linkingPhrase <https://www.cdisc.org/cosmos/sdtm_v1.0/LinkingPhraseEnum#groups%20values%20in> ;
    cosmos_sdtm:object "FTTESTCD" ;
    cosmos_sdtm:predicateTerm <https://www.cdisc.org/cosmos/sdtm_v1.0/PredicateTermEnum#GROUPS> ;
    cosmos_sdtm:subject "FTCAT" .

<https://w3id.org/cdisc/cosmos/dss/FT/ADCOF/FTDTC/relationship> a cosmos_sdtm:RelationShip ;
    cosmos_sdtm:linkingPhrase <https://www.cdisc.org/cosmos/sdtm_v1.0/LinkingPhraseEnum#is%20the%20date%20of%20occurrence%20for> ;
    cosmos_sdtm:object "FTTESTCD" ;
    cosmos_sdtm:predicateTerm <https://www.cdisc.org/cosmos/sdtm_v1.0/PredicateTermEnum#IS_TIMING_FOR> ;
    cosmos_sdtm:subject "FTDTC" .

<https://w3id.org/cdisc/cosmos/dss/FT/ADCOF/FTORRES/relationship> a cosmos_sdtm:RelationShip ;
    cosmos_sdtm:linkingPhrase <https://www.cdisc.org/cosmos/sdtm_v1.0/LinkingPhraseEnum#is%20the%20result%20of%20the%20test%20in> ;
    cosmos_sdtm:object "FTTESTCD" ;
    cosmos_sdtm:predicateTerm <https://www.cdisc.org/cosmos/sdtm_v1.0/PredicateTermEnum#IS_RESULT_OF> ;
    cosmos_sdtm:subject "FTORRES" .

<https://w3id.org/cdisc/cosmos/dss/FT/ADCOF/FTSCAT/assignedTerm> a cosmos_sdtm:AssignedTerm ;
    cosmos_sdtm:value "NAMING TASK" .

<https://w3id.org/cdisc/cosmos/dss/FT/ADCOF/FTSCAT/relationship> a cosmos_sdtm:RelationShip ;
    cosmos_sdtm:linkingPhrase <https://www.cdisc.org/cosmos/sdtm_v1.0/LinkingPhraseEnum#groups%20values%20in> ;
    cosmos_sdtm:object "FTCAT" ;
    cosmos_sdtm:predicateTerm <https://www.cdisc.org/cosmos/sdtm_v1.0/PredicateTermEnum#GROUPS> ;
    cosmos_sdtm:subject "FTSCAT" .

<https://w3id.org/cdisc/cosmos/dss/FT/ADCOF/FTSTRESC/relationship> a cosmos_sdtm:RelationShip ;
    cosmos_sdtm:linkingPhrase <https://www.cdisc.org/cosmos/sdtm_v1.0/LinkingPhraseEnum#is%20the%20result%20of%20the%20test%20in> ;
    cosmos_sdtm:object "FTTESTCD" ;
    cosmos_sdtm:predicateTerm <https://www.cdisc.org/cosmos/sdtm_v1.0/PredicateTermEnum#IS_RESULT_OF> ;
    cosmos_sdtm:subject "FTSTRESC" .

<https://w3id.org/cdisc/cosmos/dss/FT/ADCOF/FTSTRESN/relationship> a cosmos_sdtm:RelationShip ;
    cosmos_sdtm:linkingPhrase <https://www.cdisc.org/cosmos/sdtm_v1.0/LinkingPhraseEnum#is%20the%20result%20of%20the%20test%20in> ;
    cosmos_sdtm:object "FTTESTCD" ;
    cosmos_sdtm:predicateTerm <https://www.cdisc.org/cosmos/sdtm_v1.0/PredicateTermEnum#IS_RESULT_OF> ;
    cosmos_sdtm:subject "FTSTRESN" .

<https://w3id.org/cdisc/cosmos/dss/FT/ADCOF/FTTEST/assignedTerm> a cosmos_sdtm:AssignedTerm ;
    cosmos_sdtm:conceptId NCIT:C100191 ;
    cosmos_sdtm:value "Naming Objects and Fingers" .

<https://w3id.org/cdisc/cosmos/dss/FT/ADCOF/FTTEST/relationship> a cosmos_sdtm:RelationShip ;
    cosmos_sdtm:linkingPhrase <https://www.cdisc.org/cosmos/sdtm_v1.0/LinkingPhraseEnum#decodes%20the%20value%20in> ;
    cosmos_sdtm:object "FTTESTCD" ;
    cosmos_sdtm:predicateTerm <https://www.cdisc.org/cosmos/sdtm_v1.0/PredicateTermEnum#DECODES> ;
    cosmos_sdtm:subject "FTTEST" .

<https://w3id.org/cdisc/cosmos/dss/FT/ADCOF/FTTESTCD/assignedTerm> a cosmos_sdtm:AssignedTerm ;
    cosmos_sdtm:conceptId NCIT:C100191 ;
    cosmos_sdtm:value "ADCOF" .

<https://w3id.org/cdisc/cosmos/dss/FT/ADCOF/FTTESTCD/relationship> a cosmos_sdtm:RelationShip ;
    cosmos_sdtm:linkingPhrase <https://www.cdisc.org/cosmos/sdtm_v1.0/LinkingPhraseEnum#is%20the%20code%20for%20the%20value%20in> ;
    cosmos_sdtm:object "FTTEST" ;
    cosmos_sdtm:predicateTerm <https://www.cdisc.org/cosmos/sdtm_v1.0/PredicateTermEnum#IS_DECODED_BY> ;
    cosmos_sdtm:subject "FTTESTCD" .

<https://w3id.org/cdisc/cosmos/dss/FT/ADCOR/FTCAT/assignedTerm> a cosmos_sdtm:AssignedTerm ;
    cosmos_sdtm:conceptId NCIT:C100762 ;
    cosmos_sdtm:value "ADAS-COG" .

<https://w3id.org/cdisc/cosmos/dss/FT/ADCOR/FTCAT/relationship> a cosmos_sdtm:RelationShip ;
    cosmos_sdtm:linkingPhrase <https://www.cdisc.org/cosmos/sdtm_v1.0/LinkingPhraseEnum#groups%20values%20in> ;
    cosmos_sdtm:object "FTTESTCD" ;
    cosmos_sdtm:predicateTerm <https://www.cdisc.org/cosmos/sdtm_v1.0/PredicateTermEnum#GROUPS> ;
    cosmos_sdtm:subject "FTCAT" .

<https://w3id.org/cdisc/cosmos/dss/FT/ADCOR/FTDTC/relationship> a cosmos_sdtm:RelationShip ;
    cosmos_sdtm:linkingPhrase <https://www.cdisc.org/cosmos/sdtm_v1.0/LinkingPhraseEnum#is%20the%20date%20of%20occurrence%20for> ;
    cosmos_sdtm:object "FTTESTCD" ;
    cosmos_sdtm:predicateTerm <https://www.cdisc.org/cosmos/sdtm_v1.0/PredicateTermEnum#IS_TIMING_FOR> ;
    cosmos_sdtm:subject "FTDTC" .

<https://w3id.org/cdisc/cosmos/dss/FT/ADCOR/FTORRES/relationship> a cosmos_sdtm:RelationShip ;
    cosmos_sdtm:linkingPhrase <https://www.cdisc.org/cosmos/sdtm_v1.0/LinkingPhraseEnum#is%20the%20result%20of%20the%20test%20in> ;
    cosmos_sdtm:object "FTTESTCD" ;
    cosmos_sdtm:predicateTerm <https://www.cdisc.org/cosmos/sdtm_v1.0/PredicateTermEnum#IS_RESULT_OF> ;
    cosmos_sdtm:subject "FTORRES" .

<https://w3id.org/cdisc/cosmos/dss/FT/ADCOR/FTSCAT/assignedTerm> a cosmos_sdtm:AssignedTerm ;
    cosmos_sdtm:value "ORIENTATION" .

<https://w3id.org/cdisc/cosmos/dss/FT/ADCOR/FTSCAT/relationship> a cosmos_sdtm:RelationShip ;
    cosmos_sdtm:linkingPhrase <https://www.cdisc.org/cosmos/sdtm_v1.0/LinkingPhraseEnum#groups%20values%20in> ;
    cosmos_sdtm:object "FTCAT" ;
    cosmos_sdtm:predicateTerm <https://www.cdisc.org/cosmos/sdtm_v1.0/PredicateTermEnum#GROUPS> ;
    cosmos_sdtm:subject "FTSCAT" .

<https://w3id.org/cdisc/cosmos/dss/FT/ADCOR/FTSTRESC/relationship> a cosmos_sdtm:RelationShip ;
    cosmos_sdtm:linkingPhrase <https://www.cdisc.org/cosmos/sdtm_v1.0/LinkingPhraseEnum#is%20the%20result%20of%20the%20test%20in> ;
    cosmos_sdtm:object "FTTESTCD" ;
    cosmos_sdtm:predicateTerm <https://www.cdisc.org/cosmos/sdtm_v1.0/PredicateTermEnum#IS_RESULT_OF> ;
    cosmos_sdtm:subject "FTSTRESC" .

<https://w3id.org/cdisc/cosmos/dss/FT/ADCOR/FTSTRESN/relationship> a cosmos_sdtm:RelationShip ;
    cosmos_sdtm:linkingPhrase <https://www.cdisc.org/cosmos/sdtm_v1.0/LinkingPhraseEnum#is%20the%20result%20of%20the%20test%20in> ;
    cosmos_sdtm:object "FTTESTCD" ;
    cosmos_sdtm:predicateTerm <https://www.cdisc.org/cosmos/sdtm_v1.0/PredicateTermEnum#IS_RESULT_OF> ;
    cosmos_sdtm:subject "FTSTRESN" .

<https://w3id.org/cdisc/cosmos/dss/FT/ADCOR/FTTEST/assignedTerm> a cosmos_sdtm:AssignedTerm ;
    cosmos_sdtm:conceptId NCIT:C100238 ;
    cosmos_sdtm:value "Orientation" .

<https://w3id.org/cdisc/cosmos/dss/FT/ADCOR/FTTEST/relationship> a cosmos_sdtm:RelationShip ;
    cosmos_sdtm:linkingPhrase <https://www.cdisc.org/cosmos/sdtm_v1.0/LinkingPhraseEnum#decodes%20the%20value%20in> ;
    cosmos_sdtm:object "FTTESTCD" ;
    cosmos_sdtm:predicateTerm <https://www.cdisc.org/cosmos/sdtm_v1.0/PredicateTermEnum#DECODES> ;
    cosmos_sdtm:subject "FTTEST" .

<https://w3id.org/cdisc/cosmos/dss/FT/ADCOR/FTTESTCD/assignedTerm> a cosmos_sdtm:AssignedTerm ;
    cosmos_sdtm:conceptId NCIT:C100238 ;
    cosmos_sdtm:value "ADCOR" .

<https://w3id.org/cdisc/cosmos/dss/FT/ADCOR/FTTESTCD/relationship> a cosmos_sdtm:RelationShip ;
    cosmos_sdtm:linkingPhrase <https://www.cdisc.org/cosmos/sdtm_v1.0/LinkingPhraseEnum#is%20the%20code%20for%20the%20value%20in> ;
    cosmos_sdtm:object "FTTEST" ;
    cosmos_sdtm:predicateTerm <https://www.cdisc.org/cosmos/sdtm_v1.0/PredicateTermEnum#IS_DECODED_BY> ;
    cosmos_sdtm:subject "FTTESTCD" .

<https://w3id.org/cdisc/cosmos/dss/FT/ADCRG/FTCAT/assignedTerm> a cosmos_sdtm:AssignedTerm ;
    cosmos_sdtm:conceptId NCIT:C100762 ;
    cosmos_sdtm:value "ADAS-COG" .

<https://w3id.org/cdisc/cosmos/dss/FT/ADCRG/FTCAT/relationship> a cosmos_sdtm:RelationShip ;
    cosmos_sdtm:linkingPhrase <https://www.cdisc.org/cosmos/sdtm_v1.0/LinkingPhraseEnum#groups%20values%20in> ;
    cosmos_sdtm:object "FTTESTCD" ;
    cosmos_sdtm:predicateTerm <https://www.cdisc.org/cosmos/sdtm_v1.0/PredicateTermEnum#GROUPS> ;
    cosmos_sdtm:subject "FTCAT" .

<https://w3id.org/cdisc/cosmos/dss/FT/ADCRG/FTDTC/relationship> a cosmos_sdtm:RelationShip ;
    cosmos_sdtm:linkingPhrase <https://www.cdisc.org/cosmos/sdtm_v1.0/LinkingPhraseEnum#is%20the%20date%20of%20occurrence%20for> ;
    cosmos_sdtm:object "FTTESTCD" ;
    cosmos_sdtm:predicateTerm <https://www.cdisc.org/cosmos/sdtm_v1.0/PredicateTermEnum#IS_TIMING_FOR> ;
    cosmos_sdtm:subject "FTDTC" .

<https://w3id.org/cdisc/cosmos/dss/FT/ADCRG/FTORRES/relationship> a cosmos_sdtm:RelationShip ;
    cosmos_sdtm:linkingPhrase <https://www.cdisc.org/cosmos/sdtm_v1.0/LinkingPhraseEnum#is%20the%20result%20of%20the%20test%20in> ;
    cosmos_sdtm:object "FTTESTCD" ;
    cosmos_sdtm:predicateTerm <https://www.cdisc.org/cosmos/sdtm_v1.0/PredicateTermEnum#IS_RESULT_OF> ;
    cosmos_sdtm:subject "FTORRES" .

<https://w3id.org/cdisc/cosmos/dss/FT/ADCRG/FTSCAT/assignedTerm> a cosmos_sdtm:AssignedTerm ;
    cosmos_sdtm:value "WORD RECOGNITION TASK" .

<https://w3id.org/cdisc/cosmos/dss/FT/ADCRG/FTSCAT/relationship> a cosmos_sdtm:RelationShip ;
    cosmos_sdtm:linkingPhrase <https://www.cdisc.org/cosmos/sdtm_v1.0/LinkingPhraseEnum#groups%20values%20in> ;
    cosmos_sdtm:object "FTCAT" ;
    cosmos_sdtm:predicateTerm <https://www.cdisc.org/cosmos/sdtm_v1.0/PredicateTermEnum#GROUPS> ;
    cosmos_sdtm:subject "FTSCAT" .

<https://w3id.org/cdisc/cosmos/dss/FT/ADCRG/FTSTRESC/relationship> a cosmos_sdtm:RelationShip ;
    cosmos_sdtm:linkingPhrase <https://www.cdisc.org/cosmos/sdtm_v1.0/LinkingPhraseEnum#is%20the%20result%20of%20the%20test%20in> ;
    cosmos_sdtm:object "FTTESTCD" ;
    cosmos_sdtm:predicateTerm <https://www.cdisc.org/cosmos/sdtm_v1.0/PredicateTermEnum#IS_RESULT_OF> ;
    cosmos_sdtm:subject "FTSTRESC" .

<https://w3id.org/cdisc/cosmos/dss/FT/ADCRG/FTSTRESN/relationship> a cosmos_sdtm:RelationShip ;
    cosmos_sdtm:linkingPhrase <https://www.cdisc.org/cosmos/sdtm_v1.0/LinkingPhraseEnum#is%20the%20result%20of%20the%20test%20in> ;
    cosmos_sdtm:object "FTTESTCD" ;
    cosmos_sdtm:predicateTerm <https://www.cdisc.org/cosmos/sdtm_v1.0/PredicateTermEnum#IS_RESULT_OF> ;
    cosmos_sdtm:subject "FTSTRESN" .

<https://w3id.org/cdisc/cosmos/dss/FT/ADCRG/FTTEST/assignedTerm> a cosmos_sdtm:AssignedTerm ;
    cosmos_sdtm:conceptId NCIT:C100247 ;
    cosmos_sdtm:value "Word Recognition" .

<https://w3id.org/cdisc/cosmos/dss/FT/ADCRG/FTTEST/relationship> a cosmos_sdtm:RelationShip ;
    cosmos_sdtm:linkingPhrase <https://www.cdisc.org/cosmos/sdtm_v1.0/LinkingPhraseEnum#decodes%20the%20value%20in> ;
    cosmos_sdtm:object "FTTESTCD" ;
    cosmos_sdtm:predicateTerm <https://www.cdisc.org/cosmos/sdtm_v1.0/PredicateTermEnum#DECODES> ;
    cosmos_sdtm:subject "FTTEST" .

<https://w3id.org/cdisc/cosmos/dss/FT/ADCRG/FTTESTCD/assignedTerm> a cosmos_sdtm:AssignedTerm ;
    cosmos_sdtm:conceptId NCIT:C100247 ;
    cosmos_sdtm:value "ADCRG" .

<https://w3id.org/cdisc/cosmos/dss/FT/ADCRG/FTTESTCD/relationship> a cosmos_sdtm:RelationShip ;
    cosmos_sdtm:linkingPhrase <https://www.cdisc.org/cosmos/sdtm_v1.0/LinkingPhraseEnum#is%20the%20code%20for%20the%20value%20in> ;
    cosmos_sdtm:object "FTTEST" ;
    cosmos_sdtm:predicateTerm <https://www.cdisc.org/cosmos/sdtm_v1.0/PredicateTermEnum#IS_DECODED_BY> ;
    cosmos_sdtm:subject "FTTESTCD" .

<https://w3id.org/cdisc/cosmos/dss/FT/ADCRI/FTCAT/assignedTerm> a cosmos_sdtm:AssignedTerm ;
    cosmos_sdtm:conceptId NCIT:C100762 ;
    cosmos_sdtm:value "ADAS-COG" .

<https://w3id.org/cdisc/cosmos/dss/FT/ADCRI/FTCAT/relationship> a cosmos_sdtm:RelationShip ;
    cosmos_sdtm:linkingPhrase <https://www.cdisc.org/cosmos/sdtm_v1.0/LinkingPhraseEnum#groups%20values%20in> ;
    cosmos_sdtm:object "FTTESTCD" ;
    cosmos_sdtm:predicateTerm <https://www.cdisc.org/cosmos/sdtm_v1.0/PredicateTermEnum#GROUPS> ;
    cosmos_sdtm:subject "FTCAT" .

<https://w3id.org/cdisc/cosmos/dss/FT/ADCRI/FTDTC/relationship> a cosmos_sdtm:RelationShip ;
    cosmos_sdtm:linkingPhrase <https://www.cdisc.org/cosmos/sdtm_v1.0/LinkingPhraseEnum#is%20the%20date%20of%20occurrence%20for> ;
    cosmos_sdtm:object "FTTESTCD" ;
    cosmos_sdtm:predicateTerm <https://www.cdisc.org/cosmos/sdtm_v1.0/PredicateTermEnum#IS_TIMING_FOR> ;
    cosmos_sdtm:subject "FTDTC" .

<https://w3id.org/cdisc/cosmos/dss/FT/ADCRI/FTORRES/relationship> a cosmos_sdtm:RelationShip ;
    cosmos_sdtm:linkingPhrase <https://www.cdisc.org/cosmos/sdtm_v1.0/LinkingPhraseEnum#is%20the%20result%20of%20the%20test%20in> ;
    cosmos_sdtm:object "FTTESTCD" ;
    cosmos_sdtm:predicateTerm <https://www.cdisc.org/cosmos/sdtm_v1.0/PredicateTermEnum#IS_RESULT_OF> ;
    cosmos_sdtm:subject "FTORRES" .

<https://w3id.org/cdisc/cosmos/dss/FT/ADCRI/FTSCAT/relationship> a cosmos_sdtm:RelationShip ;
    cosmos_sdtm:linkingPhrase <https://www.cdisc.org/cosmos/sdtm_v1.0/LinkingPhraseEnum#groups%20values%20in> ;
    cosmos_sdtm:object "FTCAT" ;
    cosmos_sdtm:predicateTerm <https://www.cdisc.org/cosmos/sdtm_v1.0/PredicateTermEnum#GROUPS> ;
    cosmos_sdtm:subject "FTSCAT" .

<https://w3id.org/cdisc/cosmos/dss/FT/ADCRI/FTSTRESC/relationship> a cosmos_sdtm:RelationShip ;
    cosmos_sdtm:linkingPhrase <https://www.cdisc.org/cosmos/sdtm_v1.0/LinkingPhraseEnum#is%20the%20result%20of%20the%20test%20in> ;
    cosmos_sdtm:object "FTTESTCD" ;
    cosmos_sdtm:predicateTerm <https://www.cdisc.org/cosmos/sdtm_v1.0/PredicateTermEnum#IS_RESULT_OF> ;
    cosmos_sdtm:subject "FTSTRESC" .

<https://w3id.org/cdisc/cosmos/dss/FT/ADCRI/FTSTRESN/relationship> a cosmos_sdtm:RelationShip ;
    cosmos_sdtm:linkingPhrase <https://www.cdisc.org/cosmos/sdtm_v1.0/LinkingPhraseEnum#is%20the%20result%20of%20the%20test%20in> ;
    cosmos_sdtm:object "FTTESTCD" ;
    cosmos_sdtm:predicateTerm <https://www.cdisc.org/cosmos/sdtm_v1.0/PredicateTermEnum#IS_RESULT_OF> ;
    cosmos_sdtm:subject "FTSTRESN" .

<https://w3id.org/cdisc/cosmos/dss/FT/ADCRI/FTTEST/assignedTerm> a cosmos_sdtm:AssignedTerm ;
    cosmos_sdtm:conceptId NCIT:C100275 ;
    cosmos_sdtm:value "Remembering Test Instructions" .

<https://w3id.org/cdisc/cosmos/dss/FT/ADCRI/FTTEST/relationship> a cosmos_sdtm:RelationShip ;
    cosmos_sdtm:linkingPhrase <https://www.cdisc.org/cosmos/sdtm_v1.0/LinkingPhraseEnum#decodes%20the%20value%20in> ;
    cosmos_sdtm:object "FTTESTCD" ;
    cosmos_sdtm:predicateTerm <https://www.cdisc.org/cosmos/sdtm_v1.0/PredicateTermEnum#DECODES> ;
    cosmos_sdtm:subject "FTTEST" .

<https://w3id.org/cdisc/cosmos/dss/FT/ADCRI/FTTESTCD/assignedTerm> a cosmos_sdtm:AssignedTerm ;
    cosmos_sdtm:conceptId NCIT:C100275 ;
    cosmos_sdtm:value "ADCRI" .

<https://w3id.org/cdisc/cosmos/dss/FT/ADCRI/FTTESTCD/relationship> a cosmos_sdtm:RelationShip ;
    cosmos_sdtm:linkingPhrase <https://www.cdisc.org/cosmos/sdtm_v1.0/LinkingPhraseEnum#is%20the%20code%20for%20the%20value%20in> ;
    cosmos_sdtm:object "FTTEST" ;
    cosmos_sdtm:predicateTerm <https://www.cdisc.org/cosmos/sdtm_v1.0/PredicateTermEnum#IS_DECODED_BY> ;
    cosmos_sdtm:subject "FTTESTCD" .

<https://w3id.org/cdisc/cosmos/dss/FT/ADCRL/FTCAT/assignedTerm> a cosmos_sdtm:AssignedTerm ;
    cosmos_sdtm:conceptId NCIT:C100762 ;
    cosmos_sdtm:value "ADAS-COG" .

<https://w3id.org/cdisc/cosmos/dss/FT/ADCRL/FTCAT/relationship> a cosmos_sdtm:RelationShip ;
    cosmos_sdtm:linkingPhrase <https://www.cdisc.org/cosmos/sdtm_v1.0/LinkingPhraseEnum#groups%20values%20in> ;
    cosmos_sdtm:object "FTTESTCD" ;
    cosmos_sdtm:predicateTerm <https://www.cdisc.org/cosmos/sdtm_v1.0/PredicateTermEnum#GROUPS> ;
    cosmos_sdtm:subject "FTCAT" .

<https://w3id.org/cdisc/cosmos/dss/FT/ADCRL/FTDTC/relationship> a cosmos_sdtm:RelationShip ;
    cosmos_sdtm:linkingPhrase <https://www.cdisc.org/cosmos/sdtm_v1.0/LinkingPhraseEnum#is%20the%20date%20of%20occurrence%20for> ;
    cosmos_sdtm:object "FTTESTCD" ;
    cosmos_sdtm:predicateTerm <https://www.cdisc.org/cosmos/sdtm_v1.0/PredicateTermEnum#IS_TIMING_FOR> ;
    cosmos_sdtm:subject "FTDTC" .

<https://w3id.org/cdisc/cosmos/dss/FT/ADCRL/FTORRES/relationship> a cosmos_sdtm:RelationShip ;
    cosmos_sdtm:linkingPhrase <https://www.cdisc.org/cosmos/sdtm_v1.0/LinkingPhraseEnum#is%20the%20result%20of%20the%20test%20in> ;
    cosmos_sdtm:object "FTTESTCD" ;
    cosmos_sdtm:predicateTerm <https://www.cdisc.org/cosmos/sdtm_v1.0/PredicateTermEnum#IS_RESULT_OF> ;
    cosmos_sdtm:subject "FTORRES" .

<https://w3id.org/cdisc/cosmos/dss/FT/ADCRL/FTSCAT/assignedTerm> a cosmos_sdtm:AssignedTerm ;
    cosmos_sdtm:value "WORD RECALL TASK" .

<https://w3id.org/cdisc/cosmos/dss/FT/ADCRL/FTSCAT/relationship> a cosmos_sdtm:RelationShip ;
    cosmos_sdtm:linkingPhrase <https://www.cdisc.org/cosmos/sdtm_v1.0/LinkingPhraseEnum#groups%20values%20in> ;
    cosmos_sdtm:object "FTCAT" ;
    cosmos_sdtm:predicateTerm <https://www.cdisc.org/cosmos/sdtm_v1.0/PredicateTermEnum#GROUPS> ;
    cosmos_sdtm:subject "FTSCAT" .

<https://w3id.org/cdisc/cosmos/dss/FT/ADCRL/FTSTRESC/relationship> a cosmos_sdtm:RelationShip ;
    cosmos_sdtm:linkingPhrase <https://www.cdisc.org/cosmos/sdtm_v1.0/LinkingPhraseEnum#is%20the%20result%20of%20the%20test%20in> ;
    cosmos_sdtm:object "FTTESTCD" ;
    cosmos_sdtm:predicateTerm <https://www.cdisc.org/cosmos/sdtm_v1.0/PredicateTermEnum#IS_RESULT_OF> ;
    cosmos_sdtm:subject "FTSTRESC" .

<https://w3id.org/cdisc/cosmos/dss/FT/ADCRL/FTSTRESN/relationship> a cosmos_sdtm:RelationShip ;
    cosmos_sdtm:linkingPhrase <https://www.cdisc.org/cosmos/sdtm_v1.0/LinkingPhraseEnum#is%20the%20result%20of%20the%20test%20in> ;
    cosmos_sdtm:object "FTTESTCD" ;
    cosmos_sdtm:predicateTerm <https://www.cdisc.org/cosmos/sdtm_v1.0/PredicateTermEnum#IS_RESULT_OF> ;
    cosmos_sdtm:subject "FTSTRESN" .

<https://w3id.org/cdisc/cosmos/dss/FT/ADCRL/FTTEST/assignedTerm> a cosmos_sdtm:AssignedTerm ;
    cosmos_sdtm:conceptId NCIT:C100177 ;
    cosmos_sdtm:value "Word Recall" .

<https://w3id.org/cdisc/cosmos/dss/FT/ADCRL/FTTEST/relationship> a cosmos_sdtm:RelationShip ;
    cosmos_sdtm:linkingPhrase <https://www.cdisc.org/cosmos/sdtm_v1.0/LinkingPhraseEnum#decodes%20the%20value%20in> ;
    cosmos_sdtm:object "FTTESTCD" ;
    cosmos_sdtm:predicateTerm <https://www.cdisc.org/cosmos/sdtm_v1.0/PredicateTermEnum#DECODES> ;
    cosmos_sdtm:subject "FTTEST" .

<https://w3id.org/cdisc/cosmos/dss/FT/ADCRL/FTTESTCD/assignedTerm> a cosmos_sdtm:AssignedTerm ;
    cosmos_sdtm:conceptId NCIT:C100177 ;
    cosmos_sdtm:value "ADCRL" .

<https://w3id.org/cdisc/cosmos/dss/FT/ADCRL/FTTESTCD/relationship> a cosmos_sdtm:RelationShip ;
    cosmos_sdtm:linkingPhrase <https://www.cdisc.org/cosmos/sdtm_v1.0/LinkingPhraseEnum#is%20the%20code%20for%20the%20value%20in> ;
    cosmos_sdtm:object "FTTEST" ;
    cosmos_sdtm:predicateTerm <https://www.cdisc.org/cosmos/sdtm_v1.0/PredicateTermEnum#IS_DECODED_BY> ;
    cosmos_sdtm:subject "FTTESTCD" .

<https://w3id.org/cdisc/cosmos/dss/FT/ADCSL/FTCAT/assignedTerm> a cosmos_sdtm:AssignedTerm ;
    cosmos_sdtm:conceptId NCIT:C100762 ;
    cosmos_sdtm:value "ADAS-COG" .

<https://w3id.org/cdisc/cosmos/dss/FT/ADCSL/FTCAT/relationship> a cosmos_sdtm:RelationShip ;
    cosmos_sdtm:linkingPhrase <https://www.cdisc.org/cosmos/sdtm_v1.0/LinkingPhraseEnum#groups%20values%20in> ;
    cosmos_sdtm:object "FTTESTCD" ;
    cosmos_sdtm:predicateTerm <https://www.cdisc.org/cosmos/sdtm_v1.0/PredicateTermEnum#GROUPS> ;
    cosmos_sdtm:subject "FTCAT" .

<https://w3id.org/cdisc/cosmos/dss/FT/ADCSL/FTDTC/relationship> a cosmos_sdtm:RelationShip ;
    cosmos_sdtm:linkingPhrase <https://www.cdisc.org/cosmos/sdtm_v1.0/LinkingPhraseEnum#is%20the%20date%20of%20occurrence%20for> ;
    cosmos_sdtm:object "FTTESTCD" ;
    cosmos_sdtm:predicateTerm <https://www.cdisc.org/cosmos/sdtm_v1.0/PredicateTermEnum#IS_TIMING_FOR> ;
    cosmos_sdtm:subject "FTDTC" .

<https://w3id.org/cdisc/cosmos/dss/FT/ADCSL/FTORRES/relationship> a cosmos_sdtm:RelationShip ;
    cosmos_sdtm:linkingPhrase <https://www.cdisc.org/cosmos/sdtm_v1.0/LinkingPhraseEnum#is%20the%20result%20of%20the%20test%20in> ;
    cosmos_sdtm:object "FTTESTCD" ;
    cosmos_sdtm:predicateTerm <https://www.cdisc.org/cosmos/sdtm_v1.0/PredicateTermEnum#IS_RESULT_OF> ;
    cosmos_sdtm:subject "FTORRES" .

<https://w3id.org/cdisc/cosmos/dss/FT/ADCSL/FTSCAT/relationship> a cosmos_sdtm:RelationShip ;
    cosmos_sdtm:linkingPhrase <https://www.cdisc.org/cosmos/sdtm_v1.0/LinkingPhraseEnum#groups%20values%20in> ;
    cosmos_sdtm:object "FTCAT" ;
    cosmos_sdtm:predicateTerm <https://www.cdisc.org/cosmos/sdtm_v1.0/PredicateTermEnum#GROUPS> ;
    cosmos_sdtm:subject "FTSCAT" .

<https://w3id.org/cdisc/cosmos/dss/FT/ADCSL/FTSTRESC/relationship> a cosmos_sdtm:RelationShip ;
    cosmos_sdtm:linkingPhrase <https://www.cdisc.org/cosmos/sdtm_v1.0/LinkingPhraseEnum#is%20the%20result%20of%20the%20test%20in> ;
    cosmos_sdtm:object "FTTESTCD" ;
    cosmos_sdtm:predicateTerm <https://www.cdisc.org/cosmos/sdtm_v1.0/PredicateTermEnum#IS_RESULT_OF> ;
    cosmos_sdtm:subject "FTSTRESC" .

<https://w3id.org/cdisc/cosmos/dss/FT/ADCSL/FTSTRESN/relationship> a cosmos_sdtm:RelationShip ;
    cosmos_sdtm:linkingPhrase <https://www.cdisc.org/cosmos/sdtm_v1.0/LinkingPhraseEnum#is%20the%20result%20of%20the%20test%20in> ;
    cosmos_sdtm:object "FTTESTCD" ;
    cosmos_sdtm:predicateTerm <https://www.cdisc.org/cosmos/sdtm_v1.0/PredicateTermEnum#IS_RESULT_OF> ;
    cosmos_sdtm:subject "FTSTRESN" .

<https://w3id.org/cdisc/cosmos/dss/FT/ADCSL/FTTEST/assignedTerm> a cosmos_sdtm:AssignedTerm ;
    cosmos_sdtm:conceptId NCIT:C100276 ;
    cosmos_sdtm:value "Spoken Language Ability" .

<https://w3id.org/cdisc/cosmos/dss/FT/ADCSL/FTTEST/relationship> a cosmos_sdtm:RelationShip ;
    cosmos_sdtm:linkingPhrase <https://www.cdisc.org/cosmos/sdtm_v1.0/LinkingPhraseEnum#decodes%20the%20value%20in> ;
    cosmos_sdtm:object "FTTESTCD" ;
    cosmos_sdtm:predicateTerm <https://www.cdisc.org/cosmos/sdtm_v1.0/PredicateTermEnum#DECODES> ;
    cosmos_sdtm:subject "FTTEST" .

<https://w3id.org/cdisc/cosmos/dss/FT/ADCSL/FTTESTCD/assignedTerm> a cosmos_sdtm:AssignedTerm ;
    cosmos_sdtm:conceptId NCIT:C100276 ;
    cosmos_sdtm:value "ADCSL" .

<https://w3id.org/cdisc/cosmos/dss/FT/ADCSL/FTTESTCD/relationship> a cosmos_sdtm:RelationShip ;
    cosmos_sdtm:linkingPhrase <https://www.cdisc.org/cosmos/sdtm_v1.0/LinkingPhraseEnum#is%20the%20code%20for%20the%20value%20in> ;
    cosmos_sdtm:object "FTTEST" ;
    cosmos_sdtm:predicateTerm <https://www.cdisc.org/cosmos/sdtm_v1.0/PredicateTermEnum#IS_DECODED_BY> ;
    cosmos_sdtm:subject "FTTESTCD" .

<https://w3id.org/cdisc/cosmos/dss/FT/ADCTS/FTCAT/assignedTerm> a cosmos_sdtm:AssignedTerm ;
    cosmos_sdtm:conceptId NCIT:C100762 ;
    cosmos_sdtm:value "ADAS-COG" .

<https://w3id.org/cdisc/cosmos/dss/FT/ADCTS/FTCAT/relationship> a cosmos_sdtm:RelationShip ;
    cosmos_sdtm:linkingPhrase <https://www.cdisc.org/cosmos/sdtm_v1.0/LinkingPhraseEnum#groups%20values%20in> ;
    cosmos_sdtm:object "FTTESTCD" ;
    cosmos_sdtm:predicateTerm <https://www.cdisc.org/cosmos/sdtm_v1.0/PredicateTermEnum#GROUPS> ;
    cosmos_sdtm:subject "FTCAT" .

<https://w3id.org/cdisc/cosmos/dss/FT/ADCTS/FTDTC/relationship> a cosmos_sdtm:RelationShip ;
    cosmos_sdtm:linkingPhrase <https://www.cdisc.org/cosmos/sdtm_v1.0/LinkingPhraseEnum#is%20the%20date%20of%20occurrence%20for> ;
    cosmos_sdtm:object "FTTESTCD" ;
    cosmos_sdtm:predicateTerm <https://www.cdisc.org/cosmos/sdtm_v1.0/PredicateTermEnum#IS_TIMING_FOR> ;
    cosmos_sdtm:subject "FTDTC" .

<https://w3id.org/cdisc/cosmos/dss/FT/ADCTS/FTORRES/relationship> a cosmos_sdtm:RelationShip ;
    cosmos_sdtm:linkingPhrase <https://www.cdisc.org/cosmos/sdtm_v1.0/LinkingPhraseEnum#is%20the%20result%20of%20the%20test%20in> ;
    cosmos_sdtm:object "FTTESTCD" ;
    cosmos_sdtm:predicateTerm <https://www.cdisc.org/cosmos/sdtm_v1.0/PredicateTermEnum#IS_RESULT_OF> ;
    cosmos_sdtm:subject "FTORRES" .

<https://w3id.org/cdisc/cosmos/dss/FT/ADCTS/FTSCAT/relationship> a cosmos_sdtm:RelationShip ;
    cosmos_sdtm:linkingPhrase <https://www.cdisc.org/cosmos/sdtm_v1.0/LinkingPhraseEnum#groups%20values%20in> ;
    cosmos_sdtm:object "FTCAT" ;
    cosmos_sdtm:predicateTerm <https://www.cdisc.org/cosmos/sdtm_v1.0/PredicateTermEnum#GROUPS> ;
    cosmos_sdtm:subject "FTSCAT" .

<https://w3id.org/cdisc/cosmos/dss/FT/ADCTS/FTSTRESC/relationship> a cosmos_sdtm:RelationShip ;
    cosmos_sdtm:linkingPhrase <https://www.cdisc.org/cosmos/sdtm_v1.0/LinkingPhraseEnum#is%20the%20result%20of%20the%20test%20in> ;
    cosmos_sdtm:object "FTTESTCD" ;
    cosmos_sdtm:predicateTerm <https://www.cdisc.org/cosmos/sdtm_v1.0/PredicateTermEnum#IS_RESULT_OF> ;
    cosmos_sdtm:subject "FTSTRESC" .

<https://w3id.org/cdisc/cosmos/dss/FT/ADCTS/FTSTRESN/relationship> a cosmos_sdtm:RelationShip ;
    cosmos_sdtm:linkingPhrase <https://www.cdisc.org/cosmos/sdtm_v1.0/LinkingPhraseEnum#is%20the%20result%20of%20the%20test%20in> ;
    cosmos_sdtm:object "FTTESTCD" ;
    cosmos_sdtm:predicateTerm <https://www.cdisc.org/cosmos/sdtm_v1.0/PredicateTermEnum#IS_RESULT_OF> ;
    cosmos_sdtm:subject "FTSTRESN" .

<https://w3id.org/cdisc/cosmos/dss/FT/ADCTS/FTTEST/assignedTerm> a cosmos_sdtm:AssignedTerm ;
    cosmos_sdtm:conceptId NCIT:C208544 ;
    cosmos_sdtm:value "Total Score" .

<https://w3id.org/cdisc/cosmos/dss/FT/ADCTS/FTTEST/relationship> a cosmos_sdtm:RelationShip ;
    cosmos_sdtm:linkingPhrase <https://www.cdisc.org/cosmos/sdtm_v1.0/LinkingPhraseEnum#decodes%20the%20value%20in> ;
    cosmos_sdtm:object "FTTESTCD" ;
    cosmos_sdtm:predicateTerm <https://www.cdisc.org/cosmos/sdtm_v1.0/PredicateTermEnum#DECODES> ;
    cosmos_sdtm:subject "FTTEST" .

<https://w3id.org/cdisc/cosmos/dss/FT/ADCTS/FTTESTCD/assignedTerm> a cosmos_sdtm:AssignedTerm ;
    cosmos_sdtm:conceptId NCIT:C208544 ;
    cosmos_sdtm:value "ADCTS" .

<https://w3id.org/cdisc/cosmos/dss/FT/ADCTS/FTTESTCD/relationship> a cosmos_sdtm:RelationShip ;
    cosmos_sdtm:linkingPhrase <https://www.cdisc.org/cosmos/sdtm_v1.0/LinkingPhraseEnum#is%20the%20code%20for%20the%20value%20in> ;
    cosmos_sdtm:object "FTTEST" ;
    cosmos_sdtm:predicateTerm <https://www.cdisc.org/cosmos/sdtm_v1.0/PredicateTermEnum#IS_DECODED_BY> ;
    cosmos_sdtm:subject "FTTESTCD" .

<https://w3id.org/cdisc/cosmos/dss/FT/SIXMW101/FTCAT/assignedTerm> a cosmos_sdtm:AssignedTerm ;
    cosmos_sdtm:conceptId NCIT:C115789 ;
    cosmos_sdtm:value "SIX MINUTE WALK" .

<https://w3id.org/cdisc/cosmos/dss/FT/SIXMW101/FTCAT/relationship> a cosmos_sdtm:RelationShip ;
    cosmos_sdtm:linkingPhrase <https://www.cdisc.org/cosmos/sdtm_v1.0/LinkingPhraseEnum#groups%20values%20in> ;
    cosmos_sdtm:object "FTTESTCD" ;
    cosmos_sdtm:predicateTerm <https://www.cdisc.org/cosmos/sdtm_v1.0/PredicateTermEnum#GROUPS> ;
    cosmos_sdtm:subject "FTCAT" .

<https://w3id.org/cdisc/cosmos/dss/FT/SIXMW101/FTDTC/relationship> a cosmos_sdtm:RelationShip ;
    cosmos_sdtm:linkingPhrase <https://www.cdisc.org/cosmos/sdtm_v1.0/LinkingPhraseEnum#is%20the%20date%20of%20occurrence%20for> ;
    cosmos_sdtm:object "FTTESTCD" ;
    cosmos_sdtm:predicateTerm <https://www.cdisc.org/cosmos/sdtm_v1.0/PredicateTermEnum#IS_TIMING_FOR> ;
    cosmos_sdtm:subject "FTDTC" .

<https://w3id.org/cdisc/cosmos/dss/FT/SIXMW101/FTORRES/relationship> a cosmos_sdtm:RelationShip ;
    cosmos_sdtm:linkingPhrase <https://www.cdisc.org/cosmos/sdtm_v1.0/LinkingPhraseEnum#is%20the%20result%20of%20the%20test%20in> ;
    cosmos_sdtm:object "FTTESTCD" ;
    cosmos_sdtm:predicateTerm <https://www.cdisc.org/cosmos/sdtm_v1.0/PredicateTermEnum#IS_RESULT_OF> ;
    cosmos_sdtm:subject "FTORRES" .

<https://w3id.org/cdisc/cosmos/dss/FT/SIXMW101/FTORRESU/assignedTerm> a cosmos_sdtm:AssignedTerm ;
    cosmos_sdtm:conceptId NCIT:C41139 ;
    cosmos_sdtm:value "m" .

<https://w3id.org/cdisc/cosmos/dss/FT/SIXMW101/FTORRESU/relationship> a cosmos_sdtm:RelationShip ;
    cosmos_sdtm:linkingPhrase <https://www.cdisc.org/cosmos/sdtm_v1.0/LinkingPhraseEnum#is%20the%20unit%20for%20the%20value%20in> ;
    cosmos_sdtm:object "FTORRES" ;
    cosmos_sdtm:predicateTerm <https://www.cdisc.org/cosmos/sdtm_v1.0/PredicateTermEnum#IS_UNIT_FOR> ;
    cosmos_sdtm:subject "FTORRESU" .

<https://w3id.org/cdisc/cosmos/dss/FT/SIXMW101/FTSTRESC/relationship> a cosmos_sdtm:RelationShip ;
    cosmos_sdtm:linkingPhrase <https://www.cdisc.org/cosmos/sdtm_v1.0/LinkingPhraseEnum#is%20the%20result%20of%20the%20test%20in> ;
    cosmos_sdtm:object "FTTESTCD" ;
    cosmos_sdtm:predicateTerm <https://www.cdisc.org/cosmos/sdtm_v1.0/PredicateTermEnum#IS_RESULT_OF> ;
    cosmos_sdtm:subject "FTSTRESC" .

<https://w3id.org/cdisc/cosmos/dss/FT/SIXMW101/FTSTRESN/relationship> a cosmos_sdtm:RelationShip ;
    cosmos_sdtm:linkingPhrase <https://www.cdisc.org/cosmos/sdtm_v1.0/LinkingPhraseEnum#is%20the%20result%20of%20the%20test%20in> ;
    cosmos_sdtm:object "FTTESTCD" ;
    cosmos_sdtm:predicateTerm <https://www.cdisc.org/cosmos/sdtm_v1.0/PredicateTermEnum#IS_RESULT_OF> ;
    cosmos_sdtm:subject "FTSTRESN" .

<https://w3id.org/cdisc/cosmos/dss/FT/SIXMW101/FTSTRESU/assignedTerm> a cosmos_sdtm:AssignedTerm ;
    cosmos_sdtm:conceptId NCIT:C41139 ;
    cosmos_sdtm:value "m" .

<https://w3id.org/cdisc/cosmos/dss/FT/SIXMW101/FTSTRESU/relationship> a cosmos_sdtm:RelationShip ;
    cosmos_sdtm:linkingPhrase <https://www.cdisc.org/cosmos/sdtm_v1.0/LinkingPhraseEnum#is%20the%20unit%20for%20the%20value%20in> ;
    cosmos_sdtm:object "FTSTRESN" ;
    cosmos_sdtm:predicateTerm <https://www.cdisc.org/cosmos/sdtm_v1.0/PredicateTermEnum#IS_UNIT_FOR> ;
    cosmos_sdtm:subject "FTSTRESU" .

<https://w3id.org/cdisc/cosmos/dss/FT/SIXMW101/FTTEST/assignedTerm> a cosmos_sdtm:AssignedTerm ;
    cosmos_sdtm:conceptId NCIT:C115800 ;
    cosmos_sdtm:value "SIXMW1-Distance at 1 Minute" .

<https://w3id.org/cdisc/cosmos/dss/FT/SIXMW101/FTTEST/relationship> a cosmos_sdtm:RelationShip ;
    cosmos_sdtm:linkingPhrase <https://www.cdisc.org/cosmos/sdtm_v1.0/LinkingPhraseEnum#decodes%20the%20value%20in> ;
    cosmos_sdtm:object "FTTESTCD" ;
    cosmos_sdtm:predicateTerm <https://www.cdisc.org/cosmos/sdtm_v1.0/PredicateTermEnum#DECODES> ;
    cosmos_sdtm:subject "FTTEST" .

<https://w3id.org/cdisc/cosmos/dss/FT/SIXMW101/FTTESTCD/assignedTerm> a cosmos_sdtm:AssignedTerm ;
    cosmos_sdtm:conceptId NCIT:C115800 ;
    cosmos_sdtm:value "SIXMW101" .

<https://w3id.org/cdisc/cosmos/dss/FT/SIXMW101/FTTESTCD/relationship> a cosmos_sdtm:RelationShip ;
    cosmos_sdtm:linkingPhrase <https://www.cdisc.org/cosmos/sdtm_v1.0/LinkingPhraseEnum#is%20the%20code%20for%20the%20value%20in> ;
    cosmos_sdtm:object "FTTEST" ;
    cosmos_sdtm:predicateTerm <https://www.cdisc.org/cosmos/sdtm_v1.0/PredicateTermEnum#IS_DECODED_BY> ;
    cosmos_sdtm:subject "FTTESTCD" .

<https://w3id.org/cdisc/cosmos/dss/FT/SIXMW102/FTCAT/assignedTerm> a cosmos_sdtm:AssignedTerm ;
    cosmos_sdtm:conceptId NCIT:C115789 ;
    cosmos_sdtm:value "SIX MINUTE WALK" .

<https://w3id.org/cdisc/cosmos/dss/FT/SIXMW102/FTCAT/relationship> a cosmos_sdtm:RelationShip ;
    cosmos_sdtm:linkingPhrase <https://www.cdisc.org/cosmos/sdtm_v1.0/LinkingPhraseEnum#groups%20values%20in> ;
    cosmos_sdtm:object "FTTESTCD" ;
    cosmos_sdtm:predicateTerm <https://www.cdisc.org/cosmos/sdtm_v1.0/PredicateTermEnum#GROUPS> ;
    cosmos_sdtm:subject "FTCAT" .

<https://w3id.org/cdisc/cosmos/dss/FT/SIXMW102/FTDTC/relationship> a cosmos_sdtm:RelationShip ;
    cosmos_sdtm:linkingPhrase <https://www.cdisc.org/cosmos/sdtm_v1.0/LinkingPhraseEnum#is%20the%20date%20of%20occurrence%20for> ;
    cosmos_sdtm:object "FTTESTCD" ;
    cosmos_sdtm:predicateTerm <https://www.cdisc.org/cosmos/sdtm_v1.0/PredicateTermEnum#IS_TIMING_FOR> ;
    cosmos_sdtm:subject "FTDTC" .

<https://w3id.org/cdisc/cosmos/dss/FT/SIXMW102/FTORRES/relationship> a cosmos_sdtm:RelationShip ;
    cosmos_sdtm:linkingPhrase <https://www.cdisc.org/cosmos/sdtm_v1.0/LinkingPhraseEnum#is%20the%20result%20of%20the%20test%20in> ;
    cosmos_sdtm:object "FTTESTCD" ;
    cosmos_sdtm:predicateTerm <https://www.cdisc.org/cosmos/sdtm_v1.0/PredicateTermEnum#IS_RESULT_OF> ;
    cosmos_sdtm:subject "FTORRES" .

<https://w3id.org/cdisc/cosmos/dss/FT/SIXMW102/FTORRESU/assignedTerm> a cosmos_sdtm:AssignedTerm ;
    cosmos_sdtm:conceptId NCIT:C41139 ;
    cosmos_sdtm:value "m" .

<https://w3id.org/cdisc/cosmos/dss/FT/SIXMW102/FTORRESU/relationship> a cosmos_sdtm:RelationShip ;
    cosmos_sdtm:linkingPhrase <https://www.cdisc.org/cosmos/sdtm_v1.0/LinkingPhraseEnum#is%20the%20unit%20for%20the%20value%20in> ;
    cosmos_sdtm:object "FTORRES" ;
    cosmos_sdtm:predicateTerm <https://www.cdisc.org/cosmos/sdtm_v1.0/PredicateTermEnum#IS_UNIT_FOR> ;
    cosmos_sdtm:subject "FTORRESU" .

<https://w3id.org/cdisc/cosmos/dss/FT/SIXMW102/FTSTRESC/relationship> a cosmos_sdtm:RelationShip ;
    cosmos_sdtm:linkingPhrase <https://www.cdisc.org/cosmos/sdtm_v1.0/LinkingPhraseEnum#is%20the%20result%20of%20the%20test%20in> ;
    cosmos_sdtm:object "FTTESTCD" ;
    cosmos_sdtm:predicateTerm <https://www.cdisc.org/cosmos/sdtm_v1.0/PredicateTermEnum#IS_RESULT_OF> ;
    cosmos_sdtm:subject "FTSTRESC" .

<https://w3id.org/cdisc/cosmos/dss/FT/SIXMW102/FTSTRESN/relationship> a cosmos_sdtm:RelationShip ;
    cosmos_sdtm:linkingPhrase <https://www.cdisc.org/cosmos/sdtm_v1.0/LinkingPhraseEnum#is%20the%20result%20of%20the%20test%20in> ;
    cosmos_sdtm:object "FTTESTCD" ;
    cosmos_sdtm:predicateTerm <https://www.cdisc.org/cosmos/sdtm_v1.0/PredicateTermEnum#IS_RESULT_OF> ;
    cosmos_sdtm:subject "FTSTRESN" .

<https://w3id.org/cdisc/cosmos/dss/FT/SIXMW102/FTSTRESU/assignedTerm> a cosmos_sdtm:AssignedTerm ;
    cosmos_sdtm:conceptId NCIT:C41139 ;
    cosmos_sdtm:value "m" .

<https://w3id.org/cdisc/cosmos/dss/FT/SIXMW102/FTSTRESU/relationship> a cosmos_sdtm:RelationShip ;
    cosmos_sdtm:linkingPhrase <https://www.cdisc.org/cosmos/sdtm_v1.0/LinkingPhraseEnum#is%20the%20unit%20for%20the%20value%20in> ;
    cosmos_sdtm:object "FTSTRESN" ;
    cosmos_sdtm:predicateTerm <https://www.cdisc.org/cosmos/sdtm_v1.0/PredicateTermEnum#IS_UNIT_FOR> ;
    cosmos_sdtm:subject "FTSTRESU" .

<https://w3id.org/cdisc/cosmos/dss/FT/SIXMW102/FTTEST/assignedTerm> a cosmos_sdtm:AssignedTerm ;
    cosmos_sdtm:conceptId NCIT:C115801 ;
    cosmos_sdtm:value "SIXMW1-Distance at 2 Minutes" .

<https://w3id.org/cdisc/cosmos/dss/FT/SIXMW102/FTTEST/relationship> a cosmos_sdtm:RelationShip ;
    cosmos_sdtm:linkingPhrase <https://www.cdisc.org/cosmos/sdtm_v1.0/LinkingPhraseEnum#decodes%20the%20value%20in> ;
    cosmos_sdtm:object "FTTESTCD" ;
    cosmos_sdtm:predicateTerm <https://www.cdisc.org/cosmos/sdtm_v1.0/PredicateTermEnum#DECODES> ;
    cosmos_sdtm:subject "FTTEST" .

<https://w3id.org/cdisc/cosmos/dss/FT/SIXMW102/FTTESTCD/assignedTerm> a cosmos_sdtm:AssignedTerm ;
    cosmos_sdtm:conceptId NCIT:C115801 ;
    cosmos_sdtm:value "SIXMW102" .

<https://w3id.org/cdisc/cosmos/dss/FT/SIXMW102/FTTESTCD/relationship> a cosmos_sdtm:RelationShip ;
    cosmos_sdtm:linkingPhrase <https://www.cdisc.org/cosmos/sdtm_v1.0/LinkingPhraseEnum#is%20the%20code%20for%20the%20value%20in> ;
    cosmos_sdtm:object "FTTEST" ;
    cosmos_sdtm:predicateTerm <https://www.cdisc.org/cosmos/sdtm_v1.0/PredicateTermEnum#IS_DECODED_BY> ;
    cosmos_sdtm:subject "FTTESTCD" .

<https://w3id.org/cdisc/cosmos/dss/FT/SIXMW103/FTCAT/assignedTerm> a cosmos_sdtm:AssignedTerm ;
    cosmos_sdtm:conceptId NCIT:C115789 ;
    cosmos_sdtm:value "SIX MINUTE WALK" .

<https://w3id.org/cdisc/cosmos/dss/FT/SIXMW103/FTCAT/relationship> a cosmos_sdtm:RelationShip ;
    cosmos_sdtm:linkingPhrase <https://www.cdisc.org/cosmos/sdtm_v1.0/LinkingPhraseEnum#groups%20values%20in> ;
    cosmos_sdtm:object "FTTESTCD" ;
    cosmos_sdtm:predicateTerm <https://www.cdisc.org/cosmos/sdtm_v1.0/PredicateTermEnum#GROUPS> ;
    cosmos_sdtm:subject "FTCAT" .

<https://w3id.org/cdisc/cosmos/dss/FT/SIXMW103/FTDTC/relationship> a cosmos_sdtm:RelationShip ;
    cosmos_sdtm:linkingPhrase <https://www.cdisc.org/cosmos/sdtm_v1.0/LinkingPhraseEnum#is%20the%20date%20of%20occurrence%20for> ;
    cosmos_sdtm:object "FTTESTCD" ;
    cosmos_sdtm:predicateTerm <https://www.cdisc.org/cosmos/sdtm_v1.0/PredicateTermEnum#IS_TIMING_FOR> ;
    cosmos_sdtm:subject "FTDTC" .

<https://w3id.org/cdisc/cosmos/dss/FT/SIXMW103/FTORRES/relationship> a cosmos_sdtm:RelationShip ;
    cosmos_sdtm:linkingPhrase <https://www.cdisc.org/cosmos/sdtm_v1.0/LinkingPhraseEnum#is%20the%20result%20of%20the%20test%20in> ;
    cosmos_sdtm:object "FTTESTCD" ;
    cosmos_sdtm:predicateTerm <https://www.cdisc.org/cosmos/sdtm_v1.0/PredicateTermEnum#IS_RESULT_OF> ;
    cosmos_sdtm:subject "FTORRES" .

<https://w3id.org/cdisc/cosmos/dss/FT/SIXMW103/FTORRESU/assignedTerm> a cosmos_sdtm:AssignedTerm ;
    cosmos_sdtm:conceptId NCIT:C41139 ;
    cosmos_sdtm:value "m" .

<https://w3id.org/cdisc/cosmos/dss/FT/SIXMW103/FTORRESU/relationship> a cosmos_sdtm:RelationShip ;
    cosmos_sdtm:linkingPhrase <https://www.cdisc.org/cosmos/sdtm_v1.0/LinkingPhraseEnum#is%20the%20unit%20for%20the%20value%20in> ;
    cosmos_sdtm:object "FTORRES" ;
    cosmos_sdtm:predicateTerm <https://www.cdisc.org/cosmos/sdtm_v1.0/PredicateTermEnum#IS_UNIT_FOR> ;
    cosmos_sdtm:subject "FTORRESU" .

<https://w3id.org/cdisc/cosmos/dss/FT/SIXMW103/FTSTRESC/relationship> a cosmos_sdtm:RelationShip ;
    cosmos_sdtm:linkingPhrase <https://www.cdisc.org/cosmos/sdtm_v1.0/LinkingPhraseEnum#is%20the%20result%20of%20the%20test%20in> ;
    cosmos_sdtm:object "FTTESTCD" ;
    cosmos_sdtm:predicateTerm <https://www.cdisc.org/cosmos/sdtm_v1.0/PredicateTermEnum#IS_RESULT_OF> ;
    cosmos_sdtm:subject "FTSTRESC" .

<https://w3id.org/cdisc/cosmos/dss/FT/SIXMW103/FTSTRESN/relationship> a cosmos_sdtm:RelationShip ;
    cosmos_sdtm:linkingPhrase <https://www.cdisc.org/cosmos/sdtm_v1.0/LinkingPhraseEnum#is%20the%20result%20of%20the%20test%20in> ;
    cosmos_sdtm:object "FTTESTCD" ;
    cosmos_sdtm:predicateTerm <https://www.cdisc.org/cosmos/sdtm_v1.0/PredicateTermEnum#IS_RESULT_OF> ;
    cosmos_sdtm:subject "FTSTRESN" .

<https://w3id.org/cdisc/cosmos/dss/FT/SIXMW103/FTSTRESU/assignedTerm> a cosmos_sdtm:AssignedTerm ;
    cosmos_sdtm:conceptId NCIT:C41139 ;
    cosmos_sdtm:value "m" .

<https://w3id.org/cdisc/cosmos/dss/FT/SIXMW103/FTSTRESU/relationship> a cosmos_sdtm:RelationShip ;
    cosmos_sdtm:linkingPhrase <https://www.cdisc.org/cosmos/sdtm_v1.0/LinkingPhraseEnum#is%20the%20unit%20for%20the%20value%20in> ;
    cosmos_sdtm:object "FTSTRESN" ;
    cosmos_sdtm:predicateTerm <https://www.cdisc.org/cosmos/sdtm_v1.0/PredicateTermEnum#IS_UNIT_FOR> ;
    cosmos_sdtm:subject "FTSTRESU" .

<https://w3id.org/cdisc/cosmos/dss/FT/SIXMW103/FTTEST/assignedTerm> a cosmos_sdtm:AssignedTerm ;
    cosmos_sdtm:conceptId NCIT:C115802 ;
    cosmos_sdtm:value "SIXMW1-Distance at 3 Minutes" .

<https://w3id.org/cdisc/cosmos/dss/FT/SIXMW103/FTTEST/relationship> a cosmos_sdtm:RelationShip ;
    cosmos_sdtm:linkingPhrase <https://www.cdisc.org/cosmos/sdtm_v1.0/LinkingPhraseEnum#decodes%20the%20value%20in> ;
    cosmos_sdtm:object "FTTESTCD" ;
    cosmos_sdtm:predicateTerm <https://www.cdisc.org/cosmos/sdtm_v1.0/PredicateTermEnum#DECODES> ;
    cosmos_sdtm:subject "FTTEST" .

<https://w3id.org/cdisc/cosmos/dss/FT/SIXMW103/FTTESTCD/assignedTerm> a cosmos_sdtm:AssignedTerm ;
    cosmos_sdtm:conceptId NCIT:C115802 ;
    cosmos_sdtm:value "SIXMW103" .

<https://w3id.org/cdisc/cosmos/dss/FT/SIXMW103/FTTESTCD/relationship> a cosmos_sdtm:RelationShip ;
    cosmos_sdtm:linkingPhrase <https://www.cdisc.org/cosmos/sdtm_v1.0/LinkingPhraseEnum#is%20the%20code%20for%20the%20value%20in> ;
    cosmos_sdtm:object "FTTEST" ;
    cosmos_sdtm:predicateTerm <https://www.cdisc.org/cosmos/sdtm_v1.0/PredicateTermEnum#IS_DECODED_BY> ;
    cosmos_sdtm:subject "FTTESTCD" .

<https://w3id.org/cdisc/cosmos/dss/FT/SIXMW104/FTCAT/assignedTerm> a cosmos_sdtm:AssignedTerm ;
    cosmos_sdtm:conceptId NCIT:C115789 ;
    cosmos_sdtm:value "SIX MINUTE WALK" .

<https://w3id.org/cdisc/cosmos/dss/FT/SIXMW104/FTCAT/relationship> a cosmos_sdtm:RelationShip ;
    cosmos_sdtm:linkingPhrase <https://www.cdisc.org/cosmos/sdtm_v1.0/LinkingPhraseEnum#groups%20values%20in> ;
    cosmos_sdtm:object "FTTESTCD" ;
    cosmos_sdtm:predicateTerm <https://www.cdisc.org/cosmos/sdtm_v1.0/PredicateTermEnum#GROUPS> ;
    cosmos_sdtm:subject "FTCAT" .

<https://w3id.org/cdisc/cosmos/dss/FT/SIXMW104/FTDTC/relationship> a cosmos_sdtm:RelationShip ;
    cosmos_sdtm:linkingPhrase <https://www.cdisc.org/cosmos/sdtm_v1.0/LinkingPhraseEnum#is%20the%20date%20of%20occurrence%20for> ;
    cosmos_sdtm:object "FTTESTCD" ;
    cosmos_sdtm:predicateTerm <https://www.cdisc.org/cosmos/sdtm_v1.0/PredicateTermEnum#IS_TIMING_FOR> ;
    cosmos_sdtm:subject "FTDTC" .

<https://w3id.org/cdisc/cosmos/dss/FT/SIXMW104/FTORRES/relationship> a cosmos_sdtm:RelationShip ;
    cosmos_sdtm:linkingPhrase <https://www.cdisc.org/cosmos/sdtm_v1.0/LinkingPhraseEnum#is%20the%20result%20of%20the%20test%20in> ;
    cosmos_sdtm:object "FTTESTCD" ;
    cosmos_sdtm:predicateTerm <https://www.cdisc.org/cosmos/sdtm_v1.0/PredicateTermEnum#IS_RESULT_OF> ;
    cosmos_sdtm:subject "FTORRES" .

<https://w3id.org/cdisc/cosmos/dss/FT/SIXMW104/FTORRESU/assignedTerm> a cosmos_sdtm:AssignedTerm ;
    cosmos_sdtm:conceptId NCIT:C41139 ;
    cosmos_sdtm:value "m" .

<https://w3id.org/cdisc/cosmos/dss/FT/SIXMW104/FTORRESU/relationship> a cosmos_sdtm:RelationShip ;
    cosmos_sdtm:linkingPhrase <https://www.cdisc.org/cosmos/sdtm_v1.0/LinkingPhraseEnum#is%20the%20unit%20for%20the%20value%20in> ;
    cosmos_sdtm:object "FTORRES" ;
    cosmos_sdtm:predicateTerm <https://www.cdisc.org/cosmos/sdtm_v1.0/PredicateTermEnum#IS_UNIT_FOR> ;
    cosmos_sdtm:subject "FTORRESU" .

<https://w3id.org/cdisc/cosmos/dss/FT/SIXMW104/FTSTRESC/relationship> a cosmos_sdtm:RelationShip ;
    cosmos_sdtm:linkingPhrase <https://www.cdisc.org/cosmos/sdtm_v1.0/LinkingPhraseEnum#is%20the%20result%20of%20the%20test%20in> ;
    cosmos_sdtm:object "FTTESTCD" ;
    cosmos_sdtm:predicateTerm <https://www.cdisc.org/cosmos/sdtm_v1.0/PredicateTermEnum#IS_RESULT_OF> ;
    cosmos_sdtm:subject "FTSTRESC" .

<https://w3id.org/cdisc/cosmos/dss/FT/SIXMW104/FTSTRESN/relationship> a cosmos_sdtm:RelationShip ;
    cosmos_sdtm:linkingPhrase <https://www.cdisc.org/cosmos/sdtm_v1.0/LinkingPhraseEnum#is%20the%20result%20of%20the%20test%20in> ;
    cosmos_sdtm:object "FTTESTCD" ;
    cosmos_sdtm:predicateTerm <https://www.cdisc.org/cosmos/sdtm_v1.0/PredicateTermEnum#IS_RESULT_OF> ;
    cosmos_sdtm:subject "FTSTRESN" .

<https://w3id.org/cdisc/cosmos/dss/FT/SIXMW104/FTSTRESU/assignedTerm> a cosmos_sdtm:AssignedTerm ;
    cosmos_sdtm:conceptId NCIT:C41139 ;
    cosmos_sdtm:value "m" .

<https://w3id.org/cdisc/cosmos/dss/FT/SIXMW104/FTSTRESU/relationship> a cosmos_sdtm:RelationShip ;
    cosmos_sdtm:linkingPhrase <https://www.cdisc.org/cosmos/sdtm_v1.0/LinkingPhraseEnum#is%20the%20unit%20for%20the%20value%20in> ;
    cosmos_sdtm:object "FTSTRESN" ;
    cosmos_sdtm:predicateTerm <https://www.cdisc.org/cosmos/sdtm_v1.0/PredicateTermEnum#IS_UNIT_FOR> ;
    cosmos_sdtm:subject "FTSTRESU" .

<https://w3id.org/cdisc/cosmos/dss/FT/SIXMW104/FTTEST/assignedTerm> a cosmos_sdtm:AssignedTerm ;
    cosmos_sdtm:conceptId NCIT:C115803 ;
    cosmos_sdtm:value "SIXMW1-Distance at 4 Minutes" .

<https://w3id.org/cdisc/cosmos/dss/FT/SIXMW104/FTTEST/relationship> a cosmos_sdtm:RelationShip ;
    cosmos_sdtm:linkingPhrase <https://www.cdisc.org/cosmos/sdtm_v1.0/LinkingPhraseEnum#decodes%20the%20value%20in> ;
    cosmos_sdtm:object "FTTESTCD" ;
    cosmos_sdtm:predicateTerm <https://www.cdisc.org/cosmos/sdtm_v1.0/PredicateTermEnum#DECODES> ;
    cosmos_sdtm:subject "FTTEST" .

<https://w3id.org/cdisc/cosmos/dss/FT/SIXMW104/FTTESTCD/assignedTerm> a cosmos_sdtm:AssignedTerm ;
    cosmos_sdtm:conceptId NCIT:C115803 ;
    cosmos_sdtm:value "SIXMW104" .

<https://w3id.org/cdisc/cosmos/dss/FT/SIXMW104/FTTESTCD/relationship> a cosmos_sdtm:RelationShip ;
    cosmos_sdtm:linkingPhrase <https://www.cdisc.org/cosmos/sdtm_v1.0/LinkingPhraseEnum#is%20the%20code%20for%20the%20value%20in> ;
    cosmos_sdtm:object "FTTEST" ;
    cosmos_sdtm:predicateTerm <https://www.cdisc.org/cosmos/sdtm_v1.0/PredicateTermEnum#IS_DECODED_BY> ;
    cosmos_sdtm:subject "FTTESTCD" .

<https://w3id.org/cdisc/cosmos/dss/FT/SIXMW105/FTCAT/assignedTerm> a cosmos_sdtm:AssignedTerm ;
    cosmos_sdtm:conceptId NCIT:C115789 ;
    cosmos_sdtm:value "SIX MINUTE WALK" .

<https://w3id.org/cdisc/cosmos/dss/FT/SIXMW105/FTCAT/relationship> a cosmos_sdtm:RelationShip ;
    cosmos_sdtm:linkingPhrase <https://www.cdisc.org/cosmos/sdtm_v1.0/LinkingPhraseEnum#groups%20values%20in> ;
    cosmos_sdtm:object "FTTESTCD" ;
    cosmos_sdtm:predicateTerm <https://www.cdisc.org/cosmos/sdtm_v1.0/PredicateTermEnum#GROUPS> ;
    cosmos_sdtm:subject "FTCAT" .

<https://w3id.org/cdisc/cosmos/dss/FT/SIXMW105/FTDTC/relationship> a cosmos_sdtm:RelationShip ;
    cosmos_sdtm:linkingPhrase <https://www.cdisc.org/cosmos/sdtm_v1.0/LinkingPhraseEnum#is%20the%20date%20of%20occurrence%20for> ;
    cosmos_sdtm:object "FTTESTCD" ;
    cosmos_sdtm:predicateTerm <https://www.cdisc.org/cosmos/sdtm_v1.0/PredicateTermEnum#IS_TIMING_FOR> ;
    cosmos_sdtm:subject "FTDTC" .

<https://w3id.org/cdisc/cosmos/dss/FT/SIXMW105/FTORRES/relationship> a cosmos_sdtm:RelationShip ;
    cosmos_sdtm:linkingPhrase <https://www.cdisc.org/cosmos/sdtm_v1.0/LinkingPhraseEnum#is%20the%20result%20of%20the%20test%20in> ;
    cosmos_sdtm:object "FTTESTCD" ;
    cosmos_sdtm:predicateTerm <https://www.cdisc.org/cosmos/sdtm_v1.0/PredicateTermEnum#IS_RESULT_OF> ;
    cosmos_sdtm:subject "FTORRES" .

<https://w3id.org/cdisc/cosmos/dss/FT/SIXMW105/FTORRESU/assignedTerm> a cosmos_sdtm:AssignedTerm ;
    cosmos_sdtm:conceptId NCIT:C41139 ;
    cosmos_sdtm:value "m" .

<https://w3id.org/cdisc/cosmos/dss/FT/SIXMW105/FTORRESU/relationship> a cosmos_sdtm:RelationShip ;
    cosmos_sdtm:linkingPhrase <https://www.cdisc.org/cosmos/sdtm_v1.0/LinkingPhraseEnum#is%20the%20unit%20for%20the%20value%20in> ;
    cosmos_sdtm:object "FTORRES" ;
    cosmos_sdtm:predicateTerm <https://www.cdisc.org/cosmos/sdtm_v1.0/PredicateTermEnum#IS_UNIT_FOR> ;
    cosmos_sdtm:subject "FTORRESU" .

<https://w3id.org/cdisc/cosmos/dss/FT/SIXMW105/FTSTRESC/relationship> a cosmos_sdtm:RelationShip ;
    cosmos_sdtm:linkingPhrase <https://www.cdisc.org/cosmos/sdtm_v1.0/LinkingPhraseEnum#is%20the%20result%20of%20the%20test%20in> ;
    cosmos_sdtm:object "FTTESTCD" ;
    cosmos_sdtm:predicateTerm <https://www.cdisc.org/cosmos/sdtm_v1.0/PredicateTermEnum#IS_RESULT_OF> ;
    cosmos_sdtm:subject "FTSTRESC" .

<https://w3id.org/cdisc/cosmos/dss/FT/SIXMW105/FTSTRESN/relationship> a cosmos_sdtm:RelationShip ;
    cosmos_sdtm:linkingPhrase <https://www.cdisc.org/cosmos/sdtm_v1.0/LinkingPhraseEnum#is%20the%20result%20of%20the%20test%20in> ;
    cosmos_sdtm:object "FTTESTCD" ;
    cosmos_sdtm:predicateTerm <https://www.cdisc.org/cosmos/sdtm_v1.0/PredicateTermEnum#IS_RESULT_OF> ;
    cosmos_sdtm:subject "FTSTRESN" .

<https://w3id.org/cdisc/cosmos/dss/FT/SIXMW105/FTSTRESU/assignedTerm> a cosmos_sdtm:AssignedTerm ;
    cosmos_sdtm:conceptId NCIT:C41139 ;
    cosmos_sdtm:value "m" .

<https://w3id.org/cdisc/cosmos/dss/FT/SIXMW105/FTSTRESU/relationship> a cosmos_sdtm:RelationShip ;
    cosmos_sdtm:linkingPhrase <https://www.cdisc.org/cosmos/sdtm_v1.0/LinkingPhraseEnum#is%20the%20unit%20for%20the%20value%20in> ;
    cosmos_sdtm:object "FTSTRESN" ;
    cosmos_sdtm:predicateTerm <https://www.cdisc.org/cosmos/sdtm_v1.0/PredicateTermEnum#IS_UNIT_FOR> ;
    cosmos_sdtm:subject "FTSTRESU" .

<https://w3id.org/cdisc/cosmos/dss/FT/SIXMW105/FTTEST/assignedTerm> a cosmos_sdtm:AssignedTerm ;
    cosmos_sdtm:conceptId NCIT:C115804 ;
    cosmos_sdtm:value "SIXMW1-Distance at 5 Minutes" .

<https://w3id.org/cdisc/cosmos/dss/FT/SIXMW105/FTTEST/relationship> a cosmos_sdtm:RelationShip ;
    cosmos_sdtm:linkingPhrase <https://www.cdisc.org/cosmos/sdtm_v1.0/LinkingPhraseEnum#decodes%20the%20value%20in> ;
    cosmos_sdtm:object "FTTESTCD" ;
    cosmos_sdtm:predicateTerm <https://www.cdisc.org/cosmos/sdtm_v1.0/PredicateTermEnum#DECODES> ;
    cosmos_sdtm:subject "FTTEST" .

<https://w3id.org/cdisc/cosmos/dss/FT/SIXMW105/FTTESTCD/assignedTerm> a cosmos_sdtm:AssignedTerm ;
    cosmos_sdtm:conceptId NCIT:C115804 ;
    cosmos_sdtm:value "SIXMW105" .

<https://w3id.org/cdisc/cosmos/dss/FT/SIXMW105/FTTESTCD/relationship> a cosmos_sdtm:RelationShip ;
    cosmos_sdtm:linkingPhrase <https://www.cdisc.org/cosmos/sdtm_v1.0/LinkingPhraseEnum#is%20the%20code%20for%20the%20value%20in> ;
    cosmos_sdtm:object "FTTEST" ;
    cosmos_sdtm:predicateTerm <https://www.cdisc.org/cosmos/sdtm_v1.0/PredicateTermEnum#IS_DECODED_BY> ;
    cosmos_sdtm:subject "FTTESTCD" .

<https://w3id.org/cdisc/cosmos/dss/FT/SIXMW106/FTCAT/assignedTerm> a cosmos_sdtm:AssignedTerm ;
    cosmos_sdtm:conceptId NCIT:C115789 ;
    cosmos_sdtm:value "SIX MINUTE WALK" .

<https://w3id.org/cdisc/cosmos/dss/FT/SIXMW106/FTCAT/relationship> a cosmos_sdtm:RelationShip ;
    cosmos_sdtm:linkingPhrase <https://www.cdisc.org/cosmos/sdtm_v1.0/LinkingPhraseEnum#groups%20values%20in> ;
    cosmos_sdtm:object "FTTESTCD" ;
    cosmos_sdtm:predicateTerm <https://www.cdisc.org/cosmos/sdtm_v1.0/PredicateTermEnum#GROUPS> ;
    cosmos_sdtm:subject "FTCAT" .

<https://w3id.org/cdisc/cosmos/dss/FT/SIXMW106/FTDTC/relationship> a cosmos_sdtm:RelationShip ;
    cosmos_sdtm:linkingPhrase <https://www.cdisc.org/cosmos/sdtm_v1.0/LinkingPhraseEnum#is%20the%20date%20of%20occurrence%20for> ;
    cosmos_sdtm:object "FTTESTCD" ;
    cosmos_sdtm:predicateTerm <https://www.cdisc.org/cosmos/sdtm_v1.0/PredicateTermEnum#IS_TIMING_FOR> ;
    cosmos_sdtm:subject "FTDTC" .

<https://w3id.org/cdisc/cosmos/dss/FT/SIXMW106/FTORRES/relationship> a cosmos_sdtm:RelationShip ;
    cosmos_sdtm:linkingPhrase <https://www.cdisc.org/cosmos/sdtm_v1.0/LinkingPhraseEnum#is%20the%20result%20of%20the%20test%20in> ;
    cosmos_sdtm:object "FTTESTCD" ;
    cosmos_sdtm:predicateTerm <https://www.cdisc.org/cosmos/sdtm_v1.0/PredicateTermEnum#IS_RESULT_OF> ;
    cosmos_sdtm:subject "FTORRES" .

<https://w3id.org/cdisc/cosmos/dss/FT/SIXMW106/FTORRESU/assignedTerm> a cosmos_sdtm:AssignedTerm ;
    cosmos_sdtm:conceptId NCIT:C41139 ;
    cosmos_sdtm:value "m" .

<https://w3id.org/cdisc/cosmos/dss/FT/SIXMW106/FTORRESU/relationship> a cosmos_sdtm:RelationShip ;
    cosmos_sdtm:linkingPhrase <https://www.cdisc.org/cosmos/sdtm_v1.0/LinkingPhraseEnum#is%20the%20unit%20for%20the%20value%20in> ;
    cosmos_sdtm:object "FTORRES" ;
    cosmos_sdtm:predicateTerm <https://www.cdisc.org/cosmos/sdtm_v1.0/PredicateTermEnum#IS_UNIT_FOR> ;
    cosmos_sdtm:subject "FTORRESU" .

<https://w3id.org/cdisc/cosmos/dss/FT/SIXMW106/FTSTRESC/relationship> a cosmos_sdtm:RelationShip ;
    cosmos_sdtm:linkingPhrase <https://www.cdisc.org/cosmos/sdtm_v1.0/LinkingPhraseEnum#is%20the%20result%20of%20the%20test%20in> ;
    cosmos_sdtm:object "FTTESTCD" ;
    cosmos_sdtm:predicateTerm <https://www.cdisc.org/cosmos/sdtm_v1.0/PredicateTermEnum#IS_RESULT_OF> ;
    cosmos_sdtm:subject "FTSTRESC" .

<https://w3id.org/cdisc/cosmos/dss/FT/SIXMW106/FTSTRESN/relationship> a cosmos_sdtm:RelationShip ;
    cosmos_sdtm:linkingPhrase <https://www.cdisc.org/cosmos/sdtm_v1.0/LinkingPhraseEnum#is%20the%20result%20of%20the%20test%20in> ;
    cosmos_sdtm:object "FTTESTCD" ;
    cosmos_sdtm:predicateTerm <https://www.cdisc.org/cosmos/sdtm_v1.0/PredicateTermEnum#IS_RESULT_OF> ;
    cosmos_sdtm:subject "FTSTRESN" .

<https://w3id.org/cdisc/cosmos/dss/FT/SIXMW106/FTSTRESU/assignedTerm> a cosmos_sdtm:AssignedTerm ;
    cosmos_sdtm:conceptId NCIT:C41139 ;
    cosmos_sdtm:value "m" .

<https://w3id.org/cdisc/cosmos/dss/FT/SIXMW106/FTSTRESU/relationship> a cosmos_sdtm:RelationShip ;
    cosmos_sdtm:linkingPhrase <https://www.cdisc.org/cosmos/sdtm_v1.0/LinkingPhraseEnum#is%20the%20unit%20for%20the%20value%20in> ;
    cosmos_sdtm:object "FTSTRESN" ;
    cosmos_sdtm:predicateTerm <https://www.cdisc.org/cosmos/sdtm_v1.0/PredicateTermEnum#IS_UNIT_FOR> ;
    cosmos_sdtm:subject "FTSTRESU" .

<https://w3id.org/cdisc/cosmos/dss/FT/SIXMW106/FTTEST/assignedTerm> a cosmos_sdtm:AssignedTerm ;
    cosmos_sdtm:conceptId NCIT:C115805 ;
    cosmos_sdtm:value "SIXMW1-Distance at 6 Minutes" .

<https://w3id.org/cdisc/cosmos/dss/FT/SIXMW106/FTTEST/relationship> a cosmos_sdtm:RelationShip ;
    cosmos_sdtm:linkingPhrase <https://www.cdisc.org/cosmos/sdtm_v1.0/LinkingPhraseEnum#decodes%20the%20value%20in> ;
    cosmos_sdtm:object "FTTESTCD" ;
    cosmos_sdtm:predicateTerm <https://www.cdisc.org/cosmos/sdtm_v1.0/PredicateTermEnum#DECODES> ;
    cosmos_sdtm:subject "FTTEST" .

<https://w3id.org/cdisc/cosmos/dss/FT/SIXMW106/FTTESTCD/assignedTerm> a cosmos_sdtm:AssignedTerm ;
    cosmos_sdtm:conceptId NCIT:C115805 ;
    cosmos_sdtm:value "SIXMW106" .

<https://w3id.org/cdisc/cosmos/dss/FT/SIXMW106/FTTESTCD/relationship> a cosmos_sdtm:RelationShip ;
    cosmos_sdtm:linkingPhrase <https://www.cdisc.org/cosmos/sdtm_v1.0/LinkingPhraseEnum#is%20the%20code%20for%20the%20value%20in> ;
    cosmos_sdtm:object "FTTEST" ;
    cosmos_sdtm:predicateTerm <https://www.cdisc.org/cosmos/sdtm_v1.0/PredicateTermEnum#IS_DECODED_BY> ;
    cosmos_sdtm:subject "FTTESTCD" .

<https://w3id.org/cdisc/cosmos/dss/FT/ADCCMD/FTCAT> a cosmos_sdtm:SDTMVariable ;
    cosmos_sdtm:assignedTerm <https://w3id.org/cdisc/cosmos/dss/FT/ADCCMD/FTCAT/assignedTerm> ;
    cosmos_sdtm:codelist NCIT:C115304 ;
    cosmos_sdtm:comparator <https://www.cdisc.org/cosmos/sdtm_v1.0/ComparatorEnum#EQ> ;
    cosmos_sdtm:dataElementConceptId NCIT:C25372 ;
    cosmos_sdtm:isNonStandard false ;
    cosmos_sdtm:mandatoryValue true ;
    cosmos_sdtm:mandatoryVariable true ;
    cosmos_sdtm:name "FTCAT" ;
    cosmos_sdtm:relationship <https://w3id.org/cdisc/cosmos/dss/FT/ADCCMD/FTCAT/relationship> ;
    cosmos_sdtm:role <https://www.cdisc.org/cosmos/sdtm_v1.0/RoleEnum#Qualifier> .

<https://w3id.org/cdisc/cosmos/dss/FT/ADCCMD/FTDTC> a cosmos_sdtm:SDTMVariable ;
    cosmos_sdtm:dataElementConceptId NCIT:C82515 ;
    cosmos_sdtm:isNonStandard false ;
    cosmos_sdtm:mandatoryValue false ;
    cosmos_sdtm:mandatoryVariable true ;
    cosmos_sdtm:name "FTDTC" ;
    cosmos_sdtm:relationship <https://w3id.org/cdisc/cosmos/dss/FT/ADCCMD/FTDTC/relationship> ;
    cosmos_sdtm:role <https://www.cdisc.org/cosmos/sdtm_v1.0/RoleEnum#Timing> .

<https://w3id.org/cdisc/cosmos/dss/FT/ADCCMD/FTORRES> a cosmos_sdtm:SDTMVariable ;
    cosmos_sdtm:dataElementConceptId NCIT:C91106 ;
    cosmos_sdtm:dataType <https://www.cdisc.org/cosmos/sdtm_v1.0/SDTMVariableDataTypeEnum#float> ;
    cosmos_sdtm:format "5.2" ;
    cosmos_sdtm:isNonStandard false ;
    cosmos_sdtm:length 4 ;
    cosmos_sdtm:mandatoryValue false ;
    cosmos_sdtm:mandatoryVariable true ;
    cosmos_sdtm:name "FTORRES" ;
    cosmos_sdtm:originSource NCIT:C25936 ;
    cosmos_sdtm:originType NCIT:C170548 ;
    cosmos_sdtm:relationship <https://w3id.org/cdisc/cosmos/dss/FT/ADCCMD/FTORRES/relationship> ;
    cosmos_sdtm:role <https://www.cdisc.org/cosmos/sdtm_v1.0/RoleEnum#Qualifier> ;
    cosmos_sdtm:significantDigits 2 ;
    cosmos_sdtm:valueList "1 command incorrect",
        "2 commands incorrect",
        "3 commands incorrect",
        "4 commands incorrect",
        "all 5 commands incorrect",
        "all commands correct" ;
    cosmos_sdtm:vlmTarget true .

<https://w3id.org/cdisc/cosmos/dss/FT/ADCCMD/FTREASND> a cosmos_sdtm:SDTMVariable ;
    cosmos_sdtm:dataElementConceptId NCIT:C82556 ;
    cosmos_sdtm:isNonStandard false ;
    cosmos_sdtm:mandatoryValue false ;
    cosmos_sdtm:mandatoryVariable false ;
    cosmos_sdtm:name "FTREASND" ;
    cosmos_sdtm:role <https://www.cdisc.org/cosmos/sdtm_v1.0/RoleEnum#Qualifier> ;
    cosmos_sdtm:valueList "Not Done for reason other than above - explain",
        "Subject refused",
        "Subject too cognitively impaired to complete",
        "Subject was unable to complete for physical reasons" .

<https://w3id.org/cdisc/cosmos/dss/FT/ADCCMD/FTSCAT> a cosmos_sdtm:SDTMVariable ;
    cosmos_sdtm:assignedTerm <https://w3id.org/cdisc/cosmos/dss/FT/ADCCMD/FTSCAT/assignedTerm> ;
    cosmos_sdtm:comparator <https://www.cdisc.org/cosmos/sdtm_v1.0/ComparatorEnum#EQ> ;
    cosmos_sdtm:dataElementConceptId NCIT:C25692 ;
    cosmos_sdtm:isNonStandard false ;
    cosmos_sdtm:mandatoryValue false ;
    cosmos_sdtm:mandatoryVariable false ;
    cosmos_sdtm:name "FTSCAT" ;
    cosmos_sdtm:relationship <https://w3id.org/cdisc/cosmos/dss/FT/ADCCMD/FTSCAT/relationship> ;
    cosmos_sdtm:role <https://www.cdisc.org/cosmos/sdtm_v1.0/RoleEnum#Qualifier> .

<https://w3id.org/cdisc/cosmos/dss/FT/ADCCMD/FTSTAT> a cosmos_sdtm:SDTMVariable ;
    cosmos_sdtm:codelist NCIT:C66789 ;
    cosmos_sdtm:dataElementConceptId NCIT:C41202 ;
    cosmos_sdtm:isNonStandard false ;
    cosmos_sdtm:mandatoryValue false ;
    cosmos_sdtm:mandatoryVariable false ;
    cosmos_sdtm:name "FTSTAT" ;
    cosmos_sdtm:role <https://www.cdisc.org/cosmos/sdtm_v1.0/RoleEnum#Qualifier> ;
    cosmos_sdtm:valueList "NOT DONE" .

<https://w3id.org/cdisc/cosmos/dss/FT/ADCCMD/FTSTRESC> a cosmos_sdtm:SDTMVariable ;
    cosmos_sdtm:dataElementConceptId NCIT:C46126 ;
    cosmos_sdtm:dataType <https://www.cdisc.org/cosmos/sdtm_v1.0/SDTMVariableDataTypeEnum#float> ;
    cosmos_sdtm:format "5.2" ;
    cosmos_sdtm:isNonStandard false ;
    cosmos_sdtm:length 4 ;
    cosmos_sdtm:mandatoryValue false ;
    cosmos_sdtm:mandatoryVariable true ;
    cosmos_sdtm:name "FTSTRESC" ;
    cosmos_sdtm:originSource NCIT:C70793 ;
    cosmos_sdtm:originType NCIT:C170549 ;
    cosmos_sdtm:relationship <https://w3id.org/cdisc/cosmos/dss/FT/ADCCMD/FTSTRESC/relationship> ;
    cosmos_sdtm:role <https://www.cdisc.org/cosmos/sdtm_v1.0/RoleEnum#Qualifier> ;
    cosmos_sdtm:significantDigits 2 ;
    cosmos_sdtm:valueList "0",
        "1",
        "2",
        "3",
        "4",
        "5" ;
    cosmos_sdtm:vlmTarget true .

<https://w3id.org/cdisc/cosmos/dss/FT/ADCCMD/FTSTRESN> a cosmos_sdtm:SDTMVariable ;
    cosmos_sdtm:dataElementConceptId NCIT:C46126 ;
    cosmos_sdtm:dataType <https://www.cdisc.org/cosmos/sdtm_v1.0/SDTMVariableDataTypeEnum#float> ;
    cosmos_sdtm:format "5.2" ;
    cosmos_sdtm:isNonStandard false ;
    cosmos_sdtm:length 4 ;
    cosmos_sdtm:mandatoryValue false ;
    cosmos_sdtm:mandatoryVariable true ;
    cosmos_sdtm:name "FTSTRESN" ;
    cosmos_sdtm:originSource NCIT:C70793 ;
    cosmos_sdtm:originType NCIT:C170549 ;
    cosmos_sdtm:relationship <https://w3id.org/cdisc/cosmos/dss/FT/ADCCMD/FTSTRESN/relationship> ;
    cosmos_sdtm:role <https://www.cdisc.org/cosmos/sdtm_v1.0/RoleEnum#Qualifier> ;
    cosmos_sdtm:significantDigits 2 ;
    cosmos_sdtm:valueList "0",
        "1",
        "2",
        "3",
        "4",
        "5" ;
    cosmos_sdtm:vlmTarget true .

<https://w3id.org/cdisc/cosmos/dss/FT/ADCCMD/FTTEST> a cosmos_sdtm:SDTMVariable ;
    cosmos_sdtm:assignedTerm <https://w3id.org/cdisc/cosmos/dss/FT/ADCCMD/FTTEST/assignedTerm> ;
    cosmos_sdtm:isNonStandard false ;
    cosmos_sdtm:mandatoryValue true ;
    cosmos_sdtm:mandatoryVariable true ;
    cosmos_sdtm:name "FTTEST" ;
    cosmos_sdtm:originSource NCIT:C70793 ;
    cosmos_sdtm:originType NCIT:C170547 ;
    cosmos_sdtm:relationship <https://w3id.org/cdisc/cosmos/dss/FT/ADCCMD/FTTEST/relationship> ;
    cosmos_sdtm:role <https://www.cdisc.org/cosmos/sdtm_v1.0/RoleEnum#Qualifier> .

<https://w3id.org/cdisc/cosmos/dss/FT/ADCCMD/FTTESTCD> a cosmos_sdtm:SDTMVariable ;
    cosmos_sdtm:assignedTerm <https://w3id.org/cdisc/cosmos/dss/FT/ADCCMD/FTTESTCD/assignedTerm> ;
    cosmos_sdtm:comparator <https://www.cdisc.org/cosmos/sdtm_v1.0/ComparatorEnum#EQ> ;
    cosmos_sdtm:isNonStandard false ;
    cosmos_sdtm:mandatoryValue true ;
    cosmos_sdtm:mandatoryVariable true ;
    cosmos_sdtm:name "FTTESTCD" ;
    cosmos_sdtm:originSource NCIT:C70793 ;
    cosmos_sdtm:originType NCIT:C170547 ;
    cosmos_sdtm:relationship <https://w3id.org/cdisc/cosmos/dss/FT/ADCCMD/FTTESTCD/relationship> ;
    cosmos_sdtm:role <https://www.cdisc.org/cosmos/sdtm_v1.0/RoleEnum#Topic> .

<https://w3id.org/cdisc/cosmos/dss/FT/ADCCMP/FTCAT> a cosmos_sdtm:SDTMVariable ;
    cosmos_sdtm:assignedTerm <https://w3id.org/cdisc/cosmos/dss/FT/ADCCMP/FTCAT/assignedTerm> ;
    cosmos_sdtm:codelist NCIT:C115304 ;
    cosmos_sdtm:comparator <https://www.cdisc.org/cosmos/sdtm_v1.0/ComparatorEnum#EQ> ;
    cosmos_sdtm:dataElementConceptId NCIT:C25372 ;
    cosmos_sdtm:isNonStandard false ;
    cosmos_sdtm:mandatoryValue true ;
    cosmos_sdtm:mandatoryVariable true ;
    cosmos_sdtm:name "FTCAT" ;
    cosmos_sdtm:relationship <https://w3id.org/cdisc/cosmos/dss/FT/ADCCMP/FTCAT/relationship> ;
    cosmos_sdtm:role <https://www.cdisc.org/cosmos/sdtm_v1.0/RoleEnum#Qualifier> .

<https://w3id.org/cdisc/cosmos/dss/FT/ADCCMP/FTDTC> a cosmos_sdtm:SDTMVariable ;
    cosmos_sdtm:dataElementConceptId NCIT:C82515 ;
    cosmos_sdtm:isNonStandard false ;
    cosmos_sdtm:mandatoryValue false ;
    cosmos_sdtm:mandatoryVariable true ;
    cosmos_sdtm:name "FTDTC" ;
    cosmos_sdtm:relationship <https://w3id.org/cdisc/cosmos/dss/FT/ADCCMP/FTDTC/relationship> ;
    cosmos_sdtm:role <https://www.cdisc.org/cosmos/sdtm_v1.0/RoleEnum#Timing> .

<https://w3id.org/cdisc/cosmos/dss/FT/ADCCMP/FTORRES> a cosmos_sdtm:SDTMVariable ;
    cosmos_sdtm:dataElementConceptId NCIT:C91106 ;
    cosmos_sdtm:dataType <https://www.cdisc.org/cosmos/sdtm_v1.0/SDTMVariableDataTypeEnum#float> ;
    cosmos_sdtm:format "5.2" ;
    cosmos_sdtm:isNonStandard false ;
    cosmos_sdtm:length 4 ;
    cosmos_sdtm:mandatoryValue false ;
    cosmos_sdtm:mandatoryVariable true ;
    cosmos_sdtm:name "FTORRES" ;
    cosmos_sdtm:originSource NCIT:C25936 ;
    cosmos_sdtm:originType NCIT:C170548 ;
    cosmos_sdtm:relationship <https://w3id.org/cdisc/cosmos/dss/FT/ADCCMP/FTORRES/relationship> ;
    cosmos_sdtm:role <https://www.cdisc.org/cosmos/sdtm_v1.0/RoleEnum#Qualifier> ;
    cosmos_sdtm:significantDigits 2 ;
    cosmos_sdtm:valueList "Mild - 3-5 instances of misunderstanding",
        "Moderate - requires several repetitions and rephrasings",
        "Moderately severe - patient only occasionally responds correctly (i.e., yes/no questions)",
        "No evidence of poor comprehension",
        "Severe - patient rarely responds to questions appropriately, not due to poverty of speech",
        "Very mild - 1 or 2 instances of misunderstanding" ;
    cosmos_sdtm:vlmTarget true .

<https://w3id.org/cdisc/cosmos/dss/FT/ADCCMP/FTREASND> a cosmos_sdtm:SDTMVariable ;
    cosmos_sdtm:dataElementConceptId NCIT:C82556 ;
    cosmos_sdtm:isNonStandard false ;
    cosmos_sdtm:mandatoryValue false ;
    cosmos_sdtm:mandatoryVariable false ;
    cosmos_sdtm:name "FTREASND" ;
    cosmos_sdtm:role <https://www.cdisc.org/cosmos/sdtm_v1.0/RoleEnum#Qualifier> .

<https://w3id.org/cdisc/cosmos/dss/FT/ADCCMP/FTSCAT> a cosmos_sdtm:SDTMVariable ;
    cosmos_sdtm:dataElementConceptId NCIT:C25692 ;
    cosmos_sdtm:isNonStandard false ;
    cosmos_sdtm:mandatoryValue false ;
    cosmos_sdtm:mandatoryVariable false ;
    cosmos_sdtm:name "FTSCAT" ;
    cosmos_sdtm:relationship <https://w3id.org/cdisc/cosmos/dss/FT/ADCCMP/FTSCAT/relationship> ;
    cosmos_sdtm:role <https://www.cdisc.org/cosmos/sdtm_v1.0/RoleEnum#Qualifier> .

<https://w3id.org/cdisc/cosmos/dss/FT/ADCCMP/FTSTAT> a cosmos_sdtm:SDTMVariable ;
    cosmos_sdtm:codelist NCIT:C66789 ;
    cosmos_sdtm:dataElementConceptId NCIT:C41202 ;
    cosmos_sdtm:isNonStandard false ;
    cosmos_sdtm:mandatoryValue false ;
    cosmos_sdtm:mandatoryVariable false ;
    cosmos_sdtm:name "FTSTAT" ;
    cosmos_sdtm:role <https://www.cdisc.org/cosmos/sdtm_v1.0/RoleEnum#Qualifier> ;
    cosmos_sdtm:valueList "NOT DONE" .

<https://w3id.org/cdisc/cosmos/dss/FT/ADCCMP/FTSTRESC> a cosmos_sdtm:SDTMVariable ;
    cosmos_sdtm:dataElementConceptId NCIT:C46126 ;
    cosmos_sdtm:dataType <https://www.cdisc.org/cosmos/sdtm_v1.0/SDTMVariableDataTypeEnum#float> ;
    cosmos_sdtm:format "5.2" ;
    cosmos_sdtm:isNonStandard false ;
    cosmos_sdtm:length 4 ;
    cosmos_sdtm:mandatoryValue false ;
    cosmos_sdtm:mandatoryVariable true ;
    cosmos_sdtm:name "FTSTRESC" ;
    cosmos_sdtm:originSource NCIT:C70793 ;
    cosmos_sdtm:originType NCIT:C170549 ;
    cosmos_sdtm:relationship <https://w3id.org/cdisc/cosmos/dss/FT/ADCCMP/FTSTRESC/relationship> ;
    cosmos_sdtm:role <https://www.cdisc.org/cosmos/sdtm_v1.0/RoleEnum#Qualifier> ;
    cosmos_sdtm:significantDigits 2 ;
    cosmos_sdtm:valueList "0",
        "1",
        "2",
        "3",
        "4",
        "5" ;
    cosmos_sdtm:vlmTarget true .

<https://w3id.org/cdisc/cosmos/dss/FT/ADCCMP/FTSTRESN> a cosmos_sdtm:SDTMVariable ;
    cosmos_sdtm:dataElementConceptId NCIT:C46126 ;
    cosmos_sdtm:dataType <https://www.cdisc.org/cosmos/sdtm_v1.0/SDTMVariableDataTypeEnum#float> ;
    cosmos_sdtm:format "5.2" ;
    cosmos_sdtm:isNonStandard false ;
    cosmos_sdtm:length 4 ;
    cosmos_sdtm:mandatoryValue false ;
    cosmos_sdtm:mandatoryVariable true ;
    cosmos_sdtm:name "FTSTRESN" ;
    cosmos_sdtm:originSource NCIT:C70793 ;
    cosmos_sdtm:originType NCIT:C170549 ;
    cosmos_sdtm:relationship <https://w3id.org/cdisc/cosmos/dss/FT/ADCCMP/FTSTRESN/relationship> ;
    cosmos_sdtm:role <https://www.cdisc.org/cosmos/sdtm_v1.0/RoleEnum#Qualifier> ;
    cosmos_sdtm:significantDigits 2 ;
    cosmos_sdtm:valueList "0",
        "1",
        "2",
        "3",
        "4",
        "5" ;
    cosmos_sdtm:vlmTarget true .

<https://w3id.org/cdisc/cosmos/dss/FT/ADCCMP/FTTEST> a cosmos_sdtm:SDTMVariable ;
    cosmos_sdtm:assignedTerm <https://w3id.org/cdisc/cosmos/dss/FT/ADCCMP/FTTEST/assignedTerm> ;
    cosmos_sdtm:codelist NCIT:C100131 ;
    cosmos_sdtm:isNonStandard false ;
    cosmos_sdtm:mandatoryValue true ;
    cosmos_sdtm:mandatoryVariable true ;
    cosmos_sdtm:name "FTTEST" ;
    cosmos_sdtm:originSource NCIT:C70793 ;
    cosmos_sdtm:originType NCIT:C170547 ;
    cosmos_sdtm:relationship <https://w3id.org/cdisc/cosmos/dss/FT/ADCCMP/FTTEST/relationship> ;
    cosmos_sdtm:role <https://www.cdisc.org/cosmos/sdtm_v1.0/RoleEnum#Qualifier> .

<https://w3id.org/cdisc/cosmos/dss/FT/ADCCMP/FTTESTCD> a cosmos_sdtm:SDTMVariable ;
    cosmos_sdtm:assignedTerm <https://w3id.org/cdisc/cosmos/dss/FT/ADCCMP/FTTESTCD/assignedTerm> ;
    cosmos_sdtm:codelist NCIT:C100132 ;
    cosmos_sdtm:comparator <https://www.cdisc.org/cosmos/sdtm_v1.0/ComparatorEnum#EQ> ;
    cosmos_sdtm:isNonStandard false ;
    cosmos_sdtm:mandatoryValue true ;
    cosmos_sdtm:mandatoryVariable true ;
    cosmos_sdtm:name "FTTESTCD" ;
    cosmos_sdtm:originSource NCIT:C70793 ;
    cosmos_sdtm:originType NCIT:C170547 ;
    cosmos_sdtm:relationship <https://w3id.org/cdisc/cosmos/dss/FT/ADCCMP/FTTESTCD/relationship> ;
    cosmos_sdtm:role <https://www.cdisc.org/cosmos/sdtm_v1.0/RoleEnum#Topic> .

<https://w3id.org/cdisc/cosmos/dss/FT/ADCCON/FTCAT> a cosmos_sdtm:SDTMVariable ;
    cosmos_sdtm:assignedTerm <https://w3id.org/cdisc/cosmos/dss/FT/ADCCON/FTCAT/assignedTerm> ;
    cosmos_sdtm:codelist NCIT:C115304 ;
    cosmos_sdtm:comparator <https://www.cdisc.org/cosmos/sdtm_v1.0/ComparatorEnum#EQ> ;
    cosmos_sdtm:dataElementConceptId NCIT:C25372 ;
    cosmos_sdtm:isNonStandard false ;
    cosmos_sdtm:mandatoryValue true ;
    cosmos_sdtm:mandatoryVariable true ;
    cosmos_sdtm:name "FTCAT" ;
    cosmos_sdtm:relationship <https://w3id.org/cdisc/cosmos/dss/FT/ADCCON/FTCAT/relationship> ;
    cosmos_sdtm:role <https://www.cdisc.org/cosmos/sdtm_v1.0/RoleEnum#Qualifier> .

<https://w3id.org/cdisc/cosmos/dss/FT/ADCCON/FTDTC> a cosmos_sdtm:SDTMVariable ;
    cosmos_sdtm:dataElementConceptId NCIT:C82515 ;
    cosmos_sdtm:isNonStandard false ;
    cosmos_sdtm:mandatoryValue false ;
    cosmos_sdtm:mandatoryVariable true ;
    cosmos_sdtm:name "FTDTC" ;
    cosmos_sdtm:relationship <https://w3id.org/cdisc/cosmos/dss/FT/ADCCON/FTDTC/relationship> ;
    cosmos_sdtm:role <https://www.cdisc.org/cosmos/sdtm_v1.0/RoleEnum#Timing> .

<https://w3id.org/cdisc/cosmos/dss/FT/ADCCON/FTORRES> a cosmos_sdtm:SDTMVariable ;
    cosmos_sdtm:dataElementConceptId NCIT:C91106 ;
    cosmos_sdtm:dataType <https://www.cdisc.org/cosmos/sdtm_v1.0/SDTMVariableDataTypeEnum#float> ;
    cosmos_sdtm:format "5.2" ;
    cosmos_sdtm:isNonStandard false ;
    cosmos_sdtm:length 4 ;
    cosmos_sdtm:mandatoryValue false ;
    cosmos_sdtm:mandatoryVariable true ;
    cosmos_sdtm:name "FTORRES" ;
    cosmos_sdtm:originSource NCIT:C25936 ;
    cosmos_sdtm:originType NCIT:C170548 ;
    cosmos_sdtm:relationship <https://w3id.org/cdisc/cosmos/dss/FT/ADCCON/FTORRES/relationship> ;
    cosmos_sdtm:role <https://www.cdisc.org/cosmos/sdtm_v1.0/RoleEnum#Qualifier> ;
    cosmos_sdtm:significantDigits 2 ;
    cosmos_sdtm:valueList "Mild - 2-3 instances of poor concentration/distractibility, signs of restlessness and inattentiveness",
        "Moderate - 4-5 instances during interview",
        "Moderately severe - poor concentration/distractibility throughout much of interview",
        "No evidence of poor concentration or distractibility",
        "Severe - extreme difficulty in concentration and extremely distractible, unable to complete tasks",
        "Very mild - one instance of poor concentration" ;
    cosmos_sdtm:vlmTarget true .

<https://w3id.org/cdisc/cosmos/dss/FT/ADCCON/FTREASND> a cosmos_sdtm:SDTMVariable ;
    cosmos_sdtm:dataElementConceptId NCIT:C82556 ;
    cosmos_sdtm:isNonStandard false ;
    cosmos_sdtm:mandatoryValue false ;
    cosmos_sdtm:mandatoryVariable false ;
    cosmos_sdtm:name "FTREASND" ;
    cosmos_sdtm:role <https://www.cdisc.org/cosmos/sdtm_v1.0/RoleEnum#Qualifier> .

<https://w3id.org/cdisc/cosmos/dss/FT/ADCCON/FTSCAT> a cosmos_sdtm:SDTMVariable ;
    cosmos_sdtm:dataElementConceptId NCIT:C25692 ;
    cosmos_sdtm:isNonStandard false ;
    cosmos_sdtm:mandatoryValue false ;
    cosmos_sdtm:mandatoryVariable false ;
    cosmos_sdtm:name "FTSCAT" ;
    cosmos_sdtm:relationship <https://w3id.org/cdisc/cosmos/dss/FT/ADCCON/FTSCAT/relationship> ;
    cosmos_sdtm:role <https://www.cdisc.org/cosmos/sdtm_v1.0/RoleEnum#Qualifier> .

<https://w3id.org/cdisc/cosmos/dss/FT/ADCCON/FTSTAT> a cosmos_sdtm:SDTMVariable ;
    cosmos_sdtm:codelist NCIT:C66789 ;
    cosmos_sdtm:dataElementConceptId NCIT:C41202 ;
    cosmos_sdtm:isNonStandard false ;
    cosmos_sdtm:mandatoryValue false ;
    cosmos_sdtm:mandatoryVariable false ;
    cosmos_sdtm:name "FTSTAT" ;
    cosmos_sdtm:role <https://www.cdisc.org/cosmos/sdtm_v1.0/RoleEnum#Qualifier> ;
    cosmos_sdtm:valueList "NOT DONE" .

<https://w3id.org/cdisc/cosmos/dss/FT/ADCCON/FTSTRESC> a cosmos_sdtm:SDTMVariable ;
    cosmos_sdtm:dataElementConceptId NCIT:C46126 ;
    cosmos_sdtm:dataType <https://www.cdisc.org/cosmos/sdtm_v1.0/SDTMVariableDataTypeEnum#float> ;
    cosmos_sdtm:format "5.2" ;
    cosmos_sdtm:isNonStandard false ;
    cosmos_sdtm:length 4 ;
    cosmos_sdtm:mandatoryValue false ;
    cosmos_sdtm:mandatoryVariable true ;
    cosmos_sdtm:name "FTSTRESC" ;
    cosmos_sdtm:originSource NCIT:C70793 ;
    cosmos_sdtm:originType NCIT:C170549 ;
    cosmos_sdtm:relationship <https://w3id.org/cdisc/cosmos/dss/FT/ADCCON/FTSTRESC/relationship> ;
    cosmos_sdtm:role <https://www.cdisc.org/cosmos/sdtm_v1.0/RoleEnum#Qualifier> ;
    cosmos_sdtm:significantDigits 2 ;
    cosmos_sdtm:valueList "0",
        "1",
        "2",
        "3",
        "4",
        "5" ;
    cosmos_sdtm:vlmTarget true .

<https://w3id.org/cdisc/cosmos/dss/FT/ADCCON/FTSTRESN> a cosmos_sdtm:SDTMVariable ;
    cosmos_sdtm:dataElementConceptId NCIT:C46126 ;
    cosmos_sdtm:dataType <https://www.cdisc.org/cosmos/sdtm_v1.0/SDTMVariableDataTypeEnum#float> ;
    cosmos_sdtm:format "5.2" ;
    cosmos_sdtm:isNonStandard false ;
    cosmos_sdtm:length 4 ;
    cosmos_sdtm:mandatoryValue false ;
    cosmos_sdtm:mandatoryVariable true ;
    cosmos_sdtm:name "FTSTRESN" ;
    cosmos_sdtm:originSource NCIT:C70793 ;
    cosmos_sdtm:originType NCIT:C170549 ;
    cosmos_sdtm:relationship <https://w3id.org/cdisc/cosmos/dss/FT/ADCCON/FTSTRESN/relationship> ;
    cosmos_sdtm:role <https://www.cdisc.org/cosmos/sdtm_v1.0/RoleEnum#Qualifier> ;
    cosmos_sdtm:significantDigits 2 ;
    cosmos_sdtm:valueList "0",
        "1",
        "2",
        "3",
        "4",
        "5" ;
    cosmos_sdtm:vlmTarget true .

<https://w3id.org/cdisc/cosmos/dss/FT/ADCCON/FTTEST> a cosmos_sdtm:SDTMVariable ;
    cosmos_sdtm:assignedTerm <https://w3id.org/cdisc/cosmos/dss/FT/ADCCON/FTTEST/assignedTerm> ;
    cosmos_sdtm:codelist NCIT:C100131 ;
    cosmos_sdtm:isNonStandard false ;
    cosmos_sdtm:mandatoryValue true ;
    cosmos_sdtm:mandatoryVariable true ;
    cosmos_sdtm:name "FTTEST" ;
    cosmos_sdtm:originSource NCIT:C70793 ;
    cosmos_sdtm:originType NCIT:C170547 ;
    cosmos_sdtm:relationship <https://w3id.org/cdisc/cosmos/dss/FT/ADCCON/FTTEST/relationship> ;
    cosmos_sdtm:role <https://www.cdisc.org/cosmos/sdtm_v1.0/RoleEnum#Qualifier> .

<https://w3id.org/cdisc/cosmos/dss/FT/ADCCON/FTTESTCD> a cosmos_sdtm:SDTMVariable ;
    cosmos_sdtm:assignedTerm <https://w3id.org/cdisc/cosmos/dss/FT/ADCCON/FTTESTCD/assignedTerm> ;
    cosmos_sdtm:codelist NCIT:C100132 ;
    cosmos_sdtm:comparator <https://www.cdisc.org/cosmos/sdtm_v1.0/ComparatorEnum#EQ> ;
    cosmos_sdtm:isNonStandard false ;
    cosmos_sdtm:mandatoryValue true ;
    cosmos_sdtm:mandatoryVariable true ;
    cosmos_sdtm:name "FTTESTCD" ;
    cosmos_sdtm:originSource NCIT:C70793 ;
    cosmos_sdtm:originType NCIT:C170547 ;
    cosmos_sdtm:relationship <https://w3id.org/cdisc/cosmos/dss/FT/ADCCON/FTTESTCD/relationship> ;
    cosmos_sdtm:role <https://www.cdisc.org/cosmos/sdtm_v1.0/RoleEnum#Topic> .

<https://w3id.org/cdisc/cosmos/dss/FT/ADCCP/FTCAT> a cosmos_sdtm:SDTMVariable ;
    cosmos_sdtm:assignedTerm <https://w3id.org/cdisc/cosmos/dss/FT/ADCCP/FTCAT/assignedTerm> ;
    cosmos_sdtm:codelist NCIT:C115304 ;
    cosmos_sdtm:comparator <https://www.cdisc.org/cosmos/sdtm_v1.0/ComparatorEnum#EQ> ;
    cosmos_sdtm:dataElementConceptId NCIT:C25372 ;
    cosmos_sdtm:isNonStandard false ;
    cosmos_sdtm:mandatoryValue true ;
    cosmos_sdtm:mandatoryVariable true ;
    cosmos_sdtm:name "FTCAT" ;
    cosmos_sdtm:relationship <https://w3id.org/cdisc/cosmos/dss/FT/ADCCP/FTCAT/relationship> ;
    cosmos_sdtm:role <https://www.cdisc.org/cosmos/sdtm_v1.0/RoleEnum#Qualifier> .

<https://w3id.org/cdisc/cosmos/dss/FT/ADCCP/FTDTC> a cosmos_sdtm:SDTMVariable ;
    cosmos_sdtm:dataElementConceptId NCIT:C82515 ;
    cosmos_sdtm:isNonStandard false ;
    cosmos_sdtm:mandatoryValue false ;
    cosmos_sdtm:mandatoryVariable true ;
    cosmos_sdtm:name "FTDTC" ;
    cosmos_sdtm:relationship <https://w3id.org/cdisc/cosmos/dss/FT/ADCCP/FTDTC/relationship> ;
    cosmos_sdtm:role <https://www.cdisc.org/cosmos/sdtm_v1.0/RoleEnum#Timing> .

<https://w3id.org/cdisc/cosmos/dss/FT/ADCCP/FTORRES> a cosmos_sdtm:SDTMVariable ;
    cosmos_sdtm:dataElementConceptId NCIT:C91106 ;
    cosmos_sdtm:dataType <https://www.cdisc.org/cosmos/sdtm_v1.0/SDTMVariableDataTypeEnum#float> ;
    cosmos_sdtm:format "5.2" ;
    cosmos_sdtm:isNonStandard false ;
    cosmos_sdtm:length 4 ;
    cosmos_sdtm:mandatoryValue false ;
    cosmos_sdtm:mandatoryVariable true ;
    cosmos_sdtm:name "FTORRES" ;
    cosmos_sdtm:originSource NCIT:C25936 ;
    cosmos_sdtm:originType NCIT:C170548 ;
    cosmos_sdtm:relationship <https://w3id.org/cdisc/cosmos/dss/FT/ADCCP/FTORRES/relationship> ;
    cosmos_sdtm:role <https://www.cdisc.org/cosmos/sdtm_v1.0/RoleEnum#Qualifier> ;
    cosmos_sdtm:significantDigits 2 ;
    cosmos_sdtm:valueList "1 form drawn incorrectly",
        "2 forms drawn incorrectly",
        "3 forms drawn incorrectly",
        "4 forms drawn incorrectly (but one or more side/section of at least one shape drawn)",
        "No figures drawn, no recognizable attempt at drawing any side/section of any figure",
        "all 4 drawings correct" ;
    cosmos_sdtm:vlmTarget true .

<https://w3id.org/cdisc/cosmos/dss/FT/ADCCP/FTREASND> a cosmos_sdtm:SDTMVariable ;
    cosmos_sdtm:dataElementConceptId NCIT:C82556 ;
    cosmos_sdtm:isNonStandard false ;
    cosmos_sdtm:mandatoryValue false ;
    cosmos_sdtm:mandatoryVariable false ;
    cosmos_sdtm:name "FTREASND" ;
    cosmos_sdtm:role <https://www.cdisc.org/cosmos/sdtm_v1.0/RoleEnum#Qualifier> ;
    cosmos_sdtm:valueList "Not Done for reason other than above - explain",
        "Subject refused",
        "Subject too cognitively impaired to complete",
        "Subject was unable to complete for physical reasons" .

<https://w3id.org/cdisc/cosmos/dss/FT/ADCCP/FTSCAT> a cosmos_sdtm:SDTMVariable ;
    cosmos_sdtm:assignedTerm <https://w3id.org/cdisc/cosmos/dss/FT/ADCCP/FTSCAT/assignedTerm> ;
    cosmos_sdtm:comparator <https://www.cdisc.org/cosmos/sdtm_v1.0/ComparatorEnum#EQ> ;
    cosmos_sdtm:dataElementConceptId NCIT:C25692 ;
    cosmos_sdtm:isNonStandard false ;
    cosmos_sdtm:mandatoryValue false ;
    cosmos_sdtm:mandatoryVariable false ;
    cosmos_sdtm:name "FTSCAT" ;
    cosmos_sdtm:relationship <https://w3id.org/cdisc/cosmos/dss/FT/ADCCP/FTSCAT/relationship> ;
    cosmos_sdtm:role <https://www.cdisc.org/cosmos/sdtm_v1.0/RoleEnum#Qualifier> .

<https://w3id.org/cdisc/cosmos/dss/FT/ADCCP/FTSTAT> a cosmos_sdtm:SDTMVariable ;
    cosmos_sdtm:codelist NCIT:C66789 ;
    cosmos_sdtm:dataElementConceptId NCIT:C41202 ;
    cosmos_sdtm:isNonStandard false ;
    cosmos_sdtm:mandatoryValue false ;
    cosmos_sdtm:mandatoryVariable false ;
    cosmos_sdtm:name "FTSTAT" ;
    cosmos_sdtm:role <https://www.cdisc.org/cosmos/sdtm_v1.0/RoleEnum#Qualifier> ;
    cosmos_sdtm:valueList "NOT DONE" .

<https://w3id.org/cdisc/cosmos/dss/FT/ADCCP/FTSTRESC> a cosmos_sdtm:SDTMVariable ;
    cosmos_sdtm:dataElementConceptId NCIT:C46126 ;
    cosmos_sdtm:dataType <https://www.cdisc.org/cosmos/sdtm_v1.0/SDTMVariableDataTypeEnum#float> ;
    cosmos_sdtm:format "5.2" ;
    cosmos_sdtm:isNonStandard false ;
    cosmos_sdtm:length 4 ;
    cosmos_sdtm:mandatoryValue false ;
    cosmos_sdtm:mandatoryVariable true ;
    cosmos_sdtm:name "FTSTRESC" ;
    cosmos_sdtm:originSource NCIT:C70793 ;
    cosmos_sdtm:originType NCIT:C170549 ;
    cosmos_sdtm:relationship <https://w3id.org/cdisc/cosmos/dss/FT/ADCCP/FTSTRESC/relationship> ;
    cosmos_sdtm:role <https://www.cdisc.org/cosmos/sdtm_v1.0/RoleEnum#Qualifier> ;
    cosmos_sdtm:significantDigits 2 ;
    cosmos_sdtm:valueList "0",
        "1",
        "2",
        "3",
        "4",
        "5" ;
    cosmos_sdtm:vlmTarget true .

<https://w3id.org/cdisc/cosmos/dss/FT/ADCCP/FTSTRESN> a cosmos_sdtm:SDTMVariable ;
    cosmos_sdtm:dataElementConceptId NCIT:C46126 ;
    cosmos_sdtm:dataType <https://www.cdisc.org/cosmos/sdtm_v1.0/SDTMVariableDataTypeEnum#float> ;
    cosmos_sdtm:format "5.2" ;
    cosmos_sdtm:isNonStandard false ;
    cosmos_sdtm:length 4 ;
    cosmos_sdtm:mandatoryValue false ;
    cosmos_sdtm:mandatoryVariable true ;
    cosmos_sdtm:name "FTSTRESN" ;
    cosmos_sdtm:originSource NCIT:C70793 ;
    cosmos_sdtm:originType NCIT:C170549 ;
    cosmos_sdtm:relationship <https://w3id.org/cdisc/cosmos/dss/FT/ADCCP/FTSTRESN/relationship> ;
    cosmos_sdtm:role <https://www.cdisc.org/cosmos/sdtm_v1.0/RoleEnum#Qualifier> ;
    cosmos_sdtm:significantDigits 2 ;
    cosmos_sdtm:valueList "0",
        "1",
        "2",
        "3",
        "4",
        "5" ;
    cosmos_sdtm:vlmTarget true .

<https://w3id.org/cdisc/cosmos/dss/FT/ADCCP/FTTEST> a cosmos_sdtm:SDTMVariable ;
    cosmos_sdtm:assignedTerm <https://w3id.org/cdisc/cosmos/dss/FT/ADCCP/FTTEST/assignedTerm> ;
    cosmos_sdtm:codelist NCIT:C100131 ;
    cosmos_sdtm:isNonStandard false ;
    cosmos_sdtm:mandatoryValue true ;
    cosmos_sdtm:mandatoryVariable true ;
    cosmos_sdtm:name "FTTEST" ;
    cosmos_sdtm:originSource NCIT:C70793 ;
    cosmos_sdtm:originType NCIT:C170547 ;
    cosmos_sdtm:relationship <https://w3id.org/cdisc/cosmos/dss/FT/ADCCP/FTTEST/relationship> ;
    cosmos_sdtm:role <https://www.cdisc.org/cosmos/sdtm_v1.0/RoleEnum#Qualifier> .

<https://w3id.org/cdisc/cosmos/dss/FT/ADCCP/FTTESTCD> a cosmos_sdtm:SDTMVariable ;
    cosmos_sdtm:assignedTerm <https://w3id.org/cdisc/cosmos/dss/FT/ADCCP/FTTESTCD/assignedTerm> ;
    cosmos_sdtm:codelist NCIT:C100132 ;
    cosmos_sdtm:comparator <https://www.cdisc.org/cosmos/sdtm_v1.0/ComparatorEnum#EQ> ;
    cosmos_sdtm:isNonStandard false ;
    cosmos_sdtm:mandatoryValue true ;
    cosmos_sdtm:mandatoryVariable true ;
    cosmos_sdtm:name "FTTESTCD" ;
    cosmos_sdtm:originSource NCIT:C70793 ;
    cosmos_sdtm:originType NCIT:C170547 ;
    cosmos_sdtm:relationship <https://w3id.org/cdisc/cosmos/dss/FT/ADCCP/FTTESTCD/relationship> ;
    cosmos_sdtm:role <https://www.cdisc.org/cosmos/sdtm_v1.0/RoleEnum#Topic> .

<https://w3id.org/cdisc/cosmos/dss/FT/ADCDIF/FTCAT> a cosmos_sdtm:SDTMVariable ;
    cosmos_sdtm:assignedTerm <https://w3id.org/cdisc/cosmos/dss/FT/ADCDIF/FTCAT/assignedTerm> ;
    cosmos_sdtm:codelist NCIT:C115304 ;
    cosmos_sdtm:comparator <https://www.cdisc.org/cosmos/sdtm_v1.0/ComparatorEnum#EQ> ;
    cosmos_sdtm:dataElementConceptId NCIT:C25372 ;
    cosmos_sdtm:isNonStandard false ;
    cosmos_sdtm:mandatoryValue true ;
    cosmos_sdtm:mandatoryVariable true ;
    cosmos_sdtm:name "FTCAT" ;
    cosmos_sdtm:relationship <https://w3id.org/cdisc/cosmos/dss/FT/ADCDIF/FTCAT/relationship> ;
    cosmos_sdtm:role <https://www.cdisc.org/cosmos/sdtm_v1.0/RoleEnum#Qualifier> .

<https://w3id.org/cdisc/cosmos/dss/FT/ADCDIF/FTDTC> a cosmos_sdtm:SDTMVariable ;
    cosmos_sdtm:dataElementConceptId NCIT:C82515 ;
    cosmos_sdtm:isNonStandard false ;
    cosmos_sdtm:mandatoryValue false ;
    cosmos_sdtm:mandatoryVariable true ;
    cosmos_sdtm:name "FTDTC" ;
    cosmos_sdtm:relationship <https://w3id.org/cdisc/cosmos/dss/FT/ADCDIF/FTDTC/relationship> ;
    cosmos_sdtm:role <https://www.cdisc.org/cosmos/sdtm_v1.0/RoleEnum#Timing> .

<https://w3id.org/cdisc/cosmos/dss/FT/ADCDIF/FTORRES> a cosmos_sdtm:SDTMVariable ;
    cosmos_sdtm:dataElementConceptId NCIT:C91106 ;
    cosmos_sdtm:dataType <https://www.cdisc.org/cosmos/sdtm_v1.0/SDTMVariableDataTypeEnum#float> ;
    cosmos_sdtm:format "5.2" ;
    cosmos_sdtm:isNonStandard false ;
    cosmos_sdtm:length 4 ;
    cosmos_sdtm:mandatoryValue false ;
    cosmos_sdtm:mandatoryVariable true ;
    cosmos_sdtm:name "FTORRES" ;
    cosmos_sdtm:originSource NCIT:C25936 ;
    cosmos_sdtm:originType NCIT:C170548 ;
    cosmos_sdtm:relationship <https://w3id.org/cdisc/cosmos/dss/FT/ADCDIF/FTORRES/relationship> ;
    cosmos_sdtm:role <https://www.cdisc.org/cosmos/sdtm_v1.0/RoleEnum#Qualifier> ;
    cosmos_sdtm:significantDigits 2 ;
    cosmos_sdtm:valueList "Mild - noticeable circumlocution or synonym substitution",
        "Moderate - loss of words without compensation on occasion",
        "Moderately severe - frequent loss of words without compensation",
        "No evidence of word finding difficulty in spontaneous speech",
        "Severe - nearly total loss of content of words, speech sounds empty, 1-2 word utterances",
        "Very mild - 1 or 2 instances, not clinically significant" ;
    cosmos_sdtm:vlmTarget true .

<https://w3id.org/cdisc/cosmos/dss/FT/ADCDIF/FTREASND> a cosmos_sdtm:SDTMVariable ;
    cosmos_sdtm:dataElementConceptId NCIT:C82556 ;
    cosmos_sdtm:isNonStandard false ;
    cosmos_sdtm:mandatoryValue false ;
    cosmos_sdtm:mandatoryVariable false ;
    cosmos_sdtm:name "FTREASND" ;
    cosmos_sdtm:role <https://www.cdisc.org/cosmos/sdtm_v1.0/RoleEnum#Qualifier> .

<https://w3id.org/cdisc/cosmos/dss/FT/ADCDIF/FTSCAT> a cosmos_sdtm:SDTMVariable ;
    cosmos_sdtm:dataElementConceptId NCIT:C25692 ;
    cosmos_sdtm:isNonStandard false ;
    cosmos_sdtm:mandatoryValue false ;
    cosmos_sdtm:mandatoryVariable false ;
    cosmos_sdtm:name "FTSCAT" ;
    cosmos_sdtm:relationship <https://w3id.org/cdisc/cosmos/dss/FT/ADCDIF/FTSCAT/relationship> ;
    cosmos_sdtm:role <https://www.cdisc.org/cosmos/sdtm_v1.0/RoleEnum#Qualifier> .

<https://w3id.org/cdisc/cosmos/dss/FT/ADCDIF/FTSTAT> a cosmos_sdtm:SDTMVariable ;
    cosmos_sdtm:codelist NCIT:C66789 ;
    cosmos_sdtm:dataElementConceptId NCIT:C41202 ;
    cosmos_sdtm:isNonStandard false ;
    cosmos_sdtm:mandatoryValue false ;
    cosmos_sdtm:mandatoryVariable false ;
    cosmos_sdtm:name "FTSTAT" ;
    cosmos_sdtm:role <https://www.cdisc.org/cosmos/sdtm_v1.0/RoleEnum#Qualifier> ;
    cosmos_sdtm:valueList "NOT DONE" .

<https://w3id.org/cdisc/cosmos/dss/FT/ADCDIF/FTSTRESC> a cosmos_sdtm:SDTMVariable ;
    cosmos_sdtm:dataElementConceptId NCIT:C46126 ;
    cosmos_sdtm:dataType <https://www.cdisc.org/cosmos/sdtm_v1.0/SDTMVariableDataTypeEnum#float> ;
    cosmos_sdtm:format "5.2" ;
    cosmos_sdtm:isNonStandard false ;
    cosmos_sdtm:length 4 ;
    cosmos_sdtm:mandatoryValue false ;
    cosmos_sdtm:mandatoryVariable true ;
    cosmos_sdtm:name "FTSTRESC" ;
    cosmos_sdtm:originSource NCIT:C70793 ;
    cosmos_sdtm:originType NCIT:C170549 ;
    cosmos_sdtm:relationship <https://w3id.org/cdisc/cosmos/dss/FT/ADCDIF/FTSTRESC/relationship> ;
    cosmos_sdtm:role <https://www.cdisc.org/cosmos/sdtm_v1.0/RoleEnum#Qualifier> ;
    cosmos_sdtm:significantDigits 2 ;
    cosmos_sdtm:valueList "0",
        "1",
        "2",
        "3",
        "4",
        "5" ;
    cosmos_sdtm:vlmTarget true .

<https://w3id.org/cdisc/cosmos/dss/FT/ADCDIF/FTSTRESN> a cosmos_sdtm:SDTMVariable ;
    cosmos_sdtm:dataElementConceptId NCIT:C46126 ;
    cosmos_sdtm:dataType <https://www.cdisc.org/cosmos/sdtm_v1.0/SDTMVariableDataTypeEnum#float> ;
    cosmos_sdtm:format "5.2" ;
    cosmos_sdtm:isNonStandard false ;
    cosmos_sdtm:length 4 ;
    cosmos_sdtm:mandatoryValue false ;
    cosmos_sdtm:mandatoryVariable true ;
    cosmos_sdtm:name "FTSTRESN" ;
    cosmos_sdtm:originSource NCIT:C70793 ;
    cosmos_sdtm:originType NCIT:C170549 ;
    cosmos_sdtm:relationship <https://w3id.org/cdisc/cosmos/dss/FT/ADCDIF/FTSTRESN/relationship> ;
    cosmos_sdtm:role <https://www.cdisc.org/cosmos/sdtm_v1.0/RoleEnum#Qualifier> ;
    cosmos_sdtm:significantDigits 2 ;
    cosmos_sdtm:valueList "0",
        "1",
        "2",
        "3",
        "4",
        "5" ;
    cosmos_sdtm:vlmTarget true .

<https://w3id.org/cdisc/cosmos/dss/FT/ADCDIF/FTTEST> a cosmos_sdtm:SDTMVariable ;
    cosmos_sdtm:assignedTerm <https://w3id.org/cdisc/cosmos/dss/FT/ADCDIF/FTTEST/assignedTerm> ;
    cosmos_sdtm:codelist NCIT:C100131 ;
    cosmos_sdtm:isNonStandard false ;
    cosmos_sdtm:mandatoryValue true ;
    cosmos_sdtm:mandatoryVariable true ;
    cosmos_sdtm:name "FTTEST" ;
    cosmos_sdtm:originSource NCIT:C70793 ;
    cosmos_sdtm:originType NCIT:C170547 ;
    cosmos_sdtm:relationship <https://w3id.org/cdisc/cosmos/dss/FT/ADCDIF/FTTEST/relationship> ;
    cosmos_sdtm:role <https://www.cdisc.org/cosmos/sdtm_v1.0/RoleEnum#Qualifier> .

<https://w3id.org/cdisc/cosmos/dss/FT/ADCDIF/FTTESTCD> a cosmos_sdtm:SDTMVariable ;
    cosmos_sdtm:assignedTerm <https://w3id.org/cdisc/cosmos/dss/FT/ADCDIF/FTTESTCD/assignedTerm> ;
    cosmos_sdtm:codelist NCIT:C100132 ;
    cosmos_sdtm:comparator <https://www.cdisc.org/cosmos/sdtm_v1.0/ComparatorEnum#EQ> ;
    cosmos_sdtm:isNonStandard false ;
    cosmos_sdtm:mandatoryValue true ;
    cosmos_sdtm:mandatoryVariable true ;
    cosmos_sdtm:name "FTTESTCD" ;
    cosmos_sdtm:originSource NCIT:C70793 ;
    cosmos_sdtm:originType NCIT:C170547 ;
    cosmos_sdtm:relationship <https://w3id.org/cdisc/cosmos/dss/FT/ADCDIF/FTTESTCD/relationship> ;
    cosmos_sdtm:role <https://www.cdisc.org/cosmos/sdtm_v1.0/RoleEnum#Topic> .

<https://w3id.org/cdisc/cosmos/dss/FT/ADCDRL/FTCAT> a cosmos_sdtm:SDTMVariable ;
    cosmos_sdtm:assignedTerm <https://w3id.org/cdisc/cosmos/dss/FT/ADCDRL/FTCAT/assignedTerm> ;
    cosmos_sdtm:codelist NCIT:C115304 ;
    cosmos_sdtm:comparator <https://www.cdisc.org/cosmos/sdtm_v1.0/ComparatorEnum#EQ> ;
    cosmos_sdtm:dataElementConceptId NCIT:C25372 ;
    cosmos_sdtm:isNonStandard false ;
    cosmos_sdtm:mandatoryValue true ;
    cosmos_sdtm:mandatoryVariable true ;
    cosmos_sdtm:name "FTCAT" ;
    cosmos_sdtm:relationship <https://w3id.org/cdisc/cosmos/dss/FT/ADCDRL/FTCAT/relationship> ;
    cosmos_sdtm:role <https://www.cdisc.org/cosmos/sdtm_v1.0/RoleEnum#Qualifier> .

<https://w3id.org/cdisc/cosmos/dss/FT/ADCDRL/FTDTC> a cosmos_sdtm:SDTMVariable ;
    cosmos_sdtm:dataElementConceptId NCIT:C82515 ;
    cosmos_sdtm:isNonStandard false ;
    cosmos_sdtm:mandatoryValue false ;
    cosmos_sdtm:mandatoryVariable true ;
    cosmos_sdtm:name "FTDTC" ;
    cosmos_sdtm:relationship <https://w3id.org/cdisc/cosmos/dss/FT/ADCDRL/FTDTC/relationship> ;
    cosmos_sdtm:role <https://www.cdisc.org/cosmos/sdtm_v1.0/RoleEnum#Timing> .

<https://w3id.org/cdisc/cosmos/dss/FT/ADCDRL/FTORRES> a cosmos_sdtm:SDTMVariable ;
    cosmos_sdtm:dataElementConceptId NCIT:C91106 ;
    cosmos_sdtm:dataType <https://www.cdisc.org/cosmos/sdtm_v1.0/SDTMVariableDataTypeEnum#float> ;
    cosmos_sdtm:format "5.2" ;
    cosmos_sdtm:isNonStandard false ;
    cosmos_sdtm:length 4 ;
    cosmos_sdtm:mandatoryValue false ;
    cosmos_sdtm:mandatoryVariable true ;
    cosmos_sdtm:name "FTORRES" ;
    cosmos_sdtm:originSource NCIT:C25936 ;
    cosmos_sdtm:originType NCIT:C170548 ;
    cosmos_sdtm:relationship <https://w3id.org/cdisc/cosmos/dss/FT/ADCDRL/FTORRES/relationship> ;
    cosmos_sdtm:role <https://www.cdisc.org/cosmos/sdtm_v1.0/RoleEnum#Qualifier> ;
    cosmos_sdtm:significantDigits 2 ;
    cosmos_sdtm:valueList "0",
        "1",
        "10",
        "2",
        "3",
        "4",
        "5",
        "6",
        "7",
        "8",
        "9" ;
    cosmos_sdtm:vlmTarget true .

<https://w3id.org/cdisc/cosmos/dss/FT/ADCDRL/FTREASND> a cosmos_sdtm:SDTMVariable ;
    cosmos_sdtm:dataElementConceptId NCIT:C82556 ;
    cosmos_sdtm:isNonStandard false ;
    cosmos_sdtm:mandatoryValue false ;
    cosmos_sdtm:mandatoryVariable false ;
    cosmos_sdtm:name "FTREASND" ;
    cosmos_sdtm:role <https://www.cdisc.org/cosmos/sdtm_v1.0/RoleEnum#Qualifier> ;
    cosmos_sdtm:valueList "Not Done for reason other than above - explain",
        "Subject refused",
        "Subject too cognitively impaired to complete",
        "Subject was unable to complete for physical reasons" .

<https://w3id.org/cdisc/cosmos/dss/FT/ADCDRL/FTSCAT> a cosmos_sdtm:SDTMVariable ;
    cosmos_sdtm:assignedTerm <https://w3id.org/cdisc/cosmos/dss/FT/ADCDRL/FTSCAT/assignedTerm> ;
    cosmos_sdtm:comparator <https://www.cdisc.org/cosmos/sdtm_v1.0/ComparatorEnum#EQ> ;
    cosmos_sdtm:dataElementConceptId NCIT:C25692 ;
    cosmos_sdtm:isNonStandard false ;
    cosmos_sdtm:mandatoryValue false ;
    cosmos_sdtm:mandatoryVariable false ;
    cosmos_sdtm:name "FTSCAT" ;
    cosmos_sdtm:relationship <https://w3id.org/cdisc/cosmos/dss/FT/ADCDRL/FTSCAT/relationship> ;
    cosmos_sdtm:role <https://www.cdisc.org/cosmos/sdtm_v1.0/RoleEnum#Qualifier> .

<https://w3id.org/cdisc/cosmos/dss/FT/ADCDRL/FTSTAT> a cosmos_sdtm:SDTMVariable ;
    cosmos_sdtm:codelist NCIT:C66789 ;
    cosmos_sdtm:dataElementConceptId NCIT:C41202 ;
    cosmos_sdtm:isNonStandard false ;
    cosmos_sdtm:mandatoryValue false ;
    cosmos_sdtm:mandatoryVariable false ;
    cosmos_sdtm:name "FTSTAT" ;
    cosmos_sdtm:role <https://www.cdisc.org/cosmos/sdtm_v1.0/RoleEnum#Qualifier> ;
    cosmos_sdtm:valueList "NOT DONE" .

<https://w3id.org/cdisc/cosmos/dss/FT/ADCDRL/FTSTRESC> a cosmos_sdtm:SDTMVariable ;
    cosmos_sdtm:dataElementConceptId NCIT:C46126 ;
    cosmos_sdtm:dataType <https://www.cdisc.org/cosmos/sdtm_v1.0/SDTMVariableDataTypeEnum#float> ;
    cosmos_sdtm:format "5.2" ;
    cosmos_sdtm:isNonStandard false ;
    cosmos_sdtm:length 4 ;
    cosmos_sdtm:mandatoryValue false ;
    cosmos_sdtm:mandatoryVariable true ;
    cosmos_sdtm:name "FTSTRESC" ;
    cosmos_sdtm:originSource NCIT:C70793 ;
    cosmos_sdtm:originType NCIT:C170549 ;
    cosmos_sdtm:relationship <https://w3id.org/cdisc/cosmos/dss/FT/ADCDRL/FTSTRESC/relationship> ;
    cosmos_sdtm:role <https://www.cdisc.org/cosmos/sdtm_v1.0/RoleEnum#Qualifier> ;
    cosmos_sdtm:significantDigits 2 ;
    cosmos_sdtm:valueList "0",
        "1",
        "10",
        "2",
        "3",
        "4",
        "5",
        "6",
        "7",
        "8",
        "9" ;
    cosmos_sdtm:vlmTarget true .

<https://w3id.org/cdisc/cosmos/dss/FT/ADCDRL/FTSTRESN> a cosmos_sdtm:SDTMVariable ;
    cosmos_sdtm:dataElementConceptId NCIT:C46126 ;
    cosmos_sdtm:dataType <https://www.cdisc.org/cosmos/sdtm_v1.0/SDTMVariableDataTypeEnum#float> ;
    cosmos_sdtm:format "5.2" ;
    cosmos_sdtm:isNonStandard false ;
    cosmos_sdtm:length 4 ;
    cosmos_sdtm:mandatoryValue false ;
    cosmos_sdtm:mandatoryVariable true ;
    cosmos_sdtm:name "FTSTRESN" ;
    cosmos_sdtm:originSource NCIT:C70793 ;
    cosmos_sdtm:originType NCIT:C170549 ;
    cosmos_sdtm:relationship <https://w3id.org/cdisc/cosmos/dss/FT/ADCDRL/FTSTRESN/relationship> ;
    cosmos_sdtm:role <https://www.cdisc.org/cosmos/sdtm_v1.0/RoleEnum#Qualifier> ;
    cosmos_sdtm:significantDigits 2 ;
    cosmos_sdtm:valueList "0",
        "1",
        "10",
        "2",
        "3",
        "4",
        "5",
        "6",
        "7",
        "8",
        "9" ;
    cosmos_sdtm:vlmTarget true .

<https://w3id.org/cdisc/cosmos/dss/FT/ADCDRL/FTTEST> a cosmos_sdtm:SDTMVariable ;
    cosmos_sdtm:assignedTerm <https://w3id.org/cdisc/cosmos/dss/FT/ADCDRL/FTTEST/assignedTerm> ;
    cosmos_sdtm:codelist NCIT:C100131 ;
    cosmos_sdtm:isNonStandard false ;
    cosmos_sdtm:mandatoryValue true ;
    cosmos_sdtm:mandatoryVariable true ;
    cosmos_sdtm:name "FTTEST" ;
    cosmos_sdtm:originSource NCIT:C70793 ;
    cosmos_sdtm:originType NCIT:C170547 ;
    cosmos_sdtm:relationship <https://w3id.org/cdisc/cosmos/dss/FT/ADCDRL/FTTEST/relationship> ;
    cosmos_sdtm:role <https://www.cdisc.org/cosmos/sdtm_v1.0/RoleEnum#Qualifier> .

<https://w3id.org/cdisc/cosmos/dss/FT/ADCDRL/FTTESTCD> a cosmos_sdtm:SDTMVariable ;
    cosmos_sdtm:assignedTerm <https://w3id.org/cdisc/cosmos/dss/FT/ADCDRL/FTTESTCD/assignedTerm> ;
    cosmos_sdtm:codelist NCIT:C100132 ;
    cosmos_sdtm:comparator <https://www.cdisc.org/cosmos/sdtm_v1.0/ComparatorEnum#EQ> ;
    cosmos_sdtm:isNonStandard false ;
    cosmos_sdtm:mandatoryValue true ;
    cosmos_sdtm:mandatoryVariable true ;
    cosmos_sdtm:name "FTTESTCD" ;
    cosmos_sdtm:originSource NCIT:C70793 ;
    cosmos_sdtm:originType NCIT:C170547 ;
    cosmos_sdtm:relationship <https://w3id.org/cdisc/cosmos/dss/FT/ADCDRL/FTTESTCD/relationship> ;
    cosmos_sdtm:role <https://www.cdisc.org/cosmos/sdtm_v1.0/RoleEnum#Topic> .

<https://w3id.org/cdisc/cosmos/dss/FT/ADCIP/FTCAT> a cosmos_sdtm:SDTMVariable ;
    cosmos_sdtm:assignedTerm <https://w3id.org/cdisc/cosmos/dss/FT/ADCIP/FTCAT/assignedTerm> ;
    cosmos_sdtm:codelist NCIT:C115304 ;
    cosmos_sdtm:comparator <https://www.cdisc.org/cosmos/sdtm_v1.0/ComparatorEnum#EQ> ;
    cosmos_sdtm:dataElementConceptId NCIT:C25372 ;
    cosmos_sdtm:isNonStandard false ;
    cosmos_sdtm:mandatoryValue true ;
    cosmos_sdtm:mandatoryVariable true ;
    cosmos_sdtm:name "FTCAT" ;
    cosmos_sdtm:relationship <https://w3id.org/cdisc/cosmos/dss/FT/ADCIP/FTCAT/relationship> ;
    cosmos_sdtm:role <https://www.cdisc.org/cosmos/sdtm_v1.0/RoleEnum#Qualifier> .

<https://w3id.org/cdisc/cosmos/dss/FT/ADCIP/FTDTC> a cosmos_sdtm:SDTMVariable ;
    cosmos_sdtm:dataElementConceptId NCIT:C82515 ;
    cosmos_sdtm:isNonStandard false ;
    cosmos_sdtm:mandatoryValue false ;
    cosmos_sdtm:mandatoryVariable true ;
    cosmos_sdtm:name "FTDTC" ;
    cosmos_sdtm:relationship <https://w3id.org/cdisc/cosmos/dss/FT/ADCIP/FTDTC/relationship> ;
    cosmos_sdtm:role <https://www.cdisc.org/cosmos/sdtm_v1.0/RoleEnum#Timing> .

<https://w3id.org/cdisc/cosmos/dss/FT/ADCIP/FTORRES> a cosmos_sdtm:SDTMVariable ;
    cosmos_sdtm:dataElementConceptId NCIT:C91106 ;
    cosmos_sdtm:dataType <https://www.cdisc.org/cosmos/sdtm_v1.0/SDTMVariableDataTypeEnum#float> ;
    cosmos_sdtm:format "5.2" ;
    cosmos_sdtm:isNonStandard false ;
    cosmos_sdtm:length 4 ;
    cosmos_sdtm:mandatoryValue false ;
    cosmos_sdtm:mandatoryVariable true ;
    cosmos_sdtm:name "FTORRES" ;
    cosmos_sdtm:originSource NCIT:C25936 ;
    cosmos_sdtm:originType NCIT:C170548 ;
    cosmos_sdtm:relationship <https://w3id.org/cdisc/cosmos/dss/FT/ADCIP/FTORRES/relationship> ;
    cosmos_sdtm:role <https://www.cdisc.org/cosmos/sdtm_v1.0/RoleEnum#Qualifier> ;
    cosmos_sdtm:significantDigits 2 ;
    cosmos_sdtm:valueList "all components performed correctly",
        "failure to perform 1 component",
        "failure to perform 2 components",
        "failure to perform 3 components",
        "failure to perform 4 components",
        "failure to perform 5 components" ;
    cosmos_sdtm:vlmTarget true .

<https://w3id.org/cdisc/cosmos/dss/FT/ADCIP/FTREASND> a cosmos_sdtm:SDTMVariable ;
    cosmos_sdtm:dataElementConceptId NCIT:C82556 ;
    cosmos_sdtm:isNonStandard false ;
    cosmos_sdtm:mandatoryValue false ;
    cosmos_sdtm:mandatoryVariable false ;
    cosmos_sdtm:name "FTREASND" ;
    cosmos_sdtm:role <https://www.cdisc.org/cosmos/sdtm_v1.0/RoleEnum#Qualifier> ;
    cosmos_sdtm:valueList "Not Done for reason other than above - explain",
        "Subject refused",
        "Subject too cognitively impaired to complete",
        "Subject was unable to complete for physical reasons" .

<https://w3id.org/cdisc/cosmos/dss/FT/ADCIP/FTSCAT> a cosmos_sdtm:SDTMVariable ;
    cosmos_sdtm:assignedTerm <https://w3id.org/cdisc/cosmos/dss/FT/ADCIP/FTSCAT/assignedTerm> ;
    cosmos_sdtm:comparator <https://www.cdisc.org/cosmos/sdtm_v1.0/ComparatorEnum#EQ> ;
    cosmos_sdtm:dataElementConceptId NCIT:C25692 ;
    cosmos_sdtm:isNonStandard false ;
    cosmos_sdtm:mandatoryValue false ;
    cosmos_sdtm:mandatoryVariable false ;
    cosmos_sdtm:name "FTSCAT" ;
    cosmos_sdtm:relationship <https://w3id.org/cdisc/cosmos/dss/FT/ADCIP/FTSCAT/relationship> ;
    cosmos_sdtm:role <https://www.cdisc.org/cosmos/sdtm_v1.0/RoleEnum#Qualifier> .

<https://w3id.org/cdisc/cosmos/dss/FT/ADCIP/FTSTAT> a cosmos_sdtm:SDTMVariable ;
    cosmos_sdtm:codelist NCIT:C66789 ;
    cosmos_sdtm:dataElementConceptId NCIT:C41202 ;
    cosmos_sdtm:isNonStandard false ;
    cosmos_sdtm:mandatoryValue false ;
    cosmos_sdtm:mandatoryVariable false ;
    cosmos_sdtm:name "FTSTAT" ;
    cosmos_sdtm:role <https://www.cdisc.org/cosmos/sdtm_v1.0/RoleEnum#Qualifier> ;
    cosmos_sdtm:valueList "NOT DONE" .

<https://w3id.org/cdisc/cosmos/dss/FT/ADCIP/FTSTRESC> a cosmos_sdtm:SDTMVariable ;
    cosmos_sdtm:dataElementConceptId NCIT:C46126 ;
    cosmos_sdtm:dataType <https://www.cdisc.org/cosmos/sdtm_v1.0/SDTMVariableDataTypeEnum#float> ;
    cosmos_sdtm:format "5.2" ;
    cosmos_sdtm:isNonStandard false ;
    cosmos_sdtm:length 4 ;
    cosmos_sdtm:mandatoryValue false ;
    cosmos_sdtm:mandatoryVariable true ;
    cosmos_sdtm:name "FTSTRESC" ;
    cosmos_sdtm:originSource NCIT:C70793 ;
    cosmos_sdtm:originType NCIT:C170549 ;
    cosmos_sdtm:relationship <https://w3id.org/cdisc/cosmos/dss/FT/ADCIP/FTSTRESC/relationship> ;
    cosmos_sdtm:role <https://www.cdisc.org/cosmos/sdtm_v1.0/RoleEnum#Qualifier> ;
    cosmos_sdtm:significantDigits 2 ;
    cosmos_sdtm:valueList "0",
        "1",
        "2",
        "3",
        "4",
        "5" ;
    cosmos_sdtm:vlmTarget true .

<https://w3id.org/cdisc/cosmos/dss/FT/ADCIP/FTSTRESN> a cosmos_sdtm:SDTMVariable ;
    cosmos_sdtm:dataElementConceptId NCIT:C46126 ;
    cosmos_sdtm:dataType <https://www.cdisc.org/cosmos/sdtm_v1.0/SDTMVariableDataTypeEnum#float> ;
    cosmos_sdtm:format "5.2" ;
    cosmos_sdtm:isNonStandard false ;
    cosmos_sdtm:length 4 ;
    cosmos_sdtm:mandatoryValue false ;
    cosmos_sdtm:mandatoryVariable true ;
    cosmos_sdtm:name "FTSTRESN" ;
    cosmos_sdtm:originSource NCIT:C70793 ;
    cosmos_sdtm:originType NCIT:C170549 ;
    cosmos_sdtm:relationship <https://w3id.org/cdisc/cosmos/dss/FT/ADCIP/FTSTRESN/relationship> ;
    cosmos_sdtm:role <https://www.cdisc.org/cosmos/sdtm_v1.0/RoleEnum#Qualifier> ;
    cosmos_sdtm:significantDigits 2 ;
    cosmos_sdtm:valueList "0",
        "1",
        "2",
        "3",
        "4",
        "5" ;
    cosmos_sdtm:vlmTarget true .

<https://w3id.org/cdisc/cosmos/dss/FT/ADCIP/FTTEST> a cosmos_sdtm:SDTMVariable ;
    cosmos_sdtm:assignedTerm <https://w3id.org/cdisc/cosmos/dss/FT/ADCIP/FTTEST/assignedTerm> ;
    cosmos_sdtm:codelist NCIT:C100131 ;
    cosmos_sdtm:isNonStandard false ;
    cosmos_sdtm:mandatoryValue true ;
    cosmos_sdtm:mandatoryVariable true ;
    cosmos_sdtm:name "FTTEST" ;
    cosmos_sdtm:originSource NCIT:C70793 ;
    cosmos_sdtm:originType NCIT:C170547 ;
    cosmos_sdtm:relationship <https://w3id.org/cdisc/cosmos/dss/FT/ADCIP/FTTEST/relationship> ;
    cosmos_sdtm:role <https://www.cdisc.org/cosmos/sdtm_v1.0/RoleEnum#Qualifier> .

<https://w3id.org/cdisc/cosmos/dss/FT/ADCIP/FTTESTCD> a cosmos_sdtm:SDTMVariable ;
    cosmos_sdtm:assignedTerm <https://w3id.org/cdisc/cosmos/dss/FT/ADCIP/FTTESTCD/assignedTerm> ;
    cosmos_sdtm:codelist NCIT:C100132 ;
    cosmos_sdtm:comparator <https://www.cdisc.org/cosmos/sdtm_v1.0/ComparatorEnum#EQ> ;
    cosmos_sdtm:isNonStandard false ;
    cosmos_sdtm:mandatoryValue true ;
    cosmos_sdtm:mandatoryVariable true ;
    cosmos_sdtm:name "FTTESTCD" ;
    cosmos_sdtm:originSource NCIT:C70793 ;
    cosmos_sdtm:originType NCIT:C170547 ;
    cosmos_sdtm:relationship <https://w3id.org/cdisc/cosmos/dss/FT/ADCIP/FTTESTCD/relationship> ;
    cosmos_sdtm:role <https://www.cdisc.org/cosmos/sdtm_v1.0/RoleEnum#Topic> .

<https://w3id.org/cdisc/cosmos/dss/FT/ADCMZ01/FTCAT> a cosmos_sdtm:SDTMVariable ;
    cosmos_sdtm:assignedTerm <https://w3id.org/cdisc/cosmos/dss/FT/ADCMZ01/FTCAT/assignedTerm> ;
    cosmos_sdtm:codelist NCIT:C115304 ;
    cosmos_sdtm:comparator <https://www.cdisc.org/cosmos/sdtm_v1.0/ComparatorEnum#EQ> ;
    cosmos_sdtm:dataElementConceptId NCIT:C25372 ;
    cosmos_sdtm:isNonStandard false ;
    cosmos_sdtm:mandatoryValue true ;
    cosmos_sdtm:mandatoryVariable true ;
    cosmos_sdtm:name "FTCAT" ;
    cosmos_sdtm:relationship <https://w3id.org/cdisc/cosmos/dss/FT/ADCMZ01/FTCAT/relationship> ;
    cosmos_sdtm:role <https://www.cdisc.org/cosmos/sdtm_v1.0/RoleEnum#Qualifier> .

<https://w3id.org/cdisc/cosmos/dss/FT/ADCMZ01/FTDTC> a cosmos_sdtm:SDTMVariable ;
    cosmos_sdtm:dataElementConceptId NCIT:C82515 ;
    cosmos_sdtm:isNonStandard false ;
    cosmos_sdtm:mandatoryValue false ;
    cosmos_sdtm:mandatoryVariable true ;
    cosmos_sdtm:name "FTDTC" ;
    cosmos_sdtm:relationship <https://w3id.org/cdisc/cosmos/dss/FT/ADCMZ01/FTDTC/relationship> ;
    cosmos_sdtm:role <https://www.cdisc.org/cosmos/sdtm_v1.0/RoleEnum#Timing> .

<https://w3id.org/cdisc/cosmos/dss/FT/ADCMZ01/FTORRES> a cosmos_sdtm:SDTMVariable ;
    cosmos_sdtm:dataElementConceptId NCIT:C91106 ;
    cosmos_sdtm:dataType <https://www.cdisc.org/cosmos/sdtm_v1.0/SDTMVariableDataTypeEnum#float> ;
    cosmos_sdtm:format "5.2" ;
    cosmos_sdtm:isNonStandard false ;
    cosmos_sdtm:length 4 ;
    cosmos_sdtm:mandatoryValue false ;
    cosmos_sdtm:mandatoryVariable true ;
    cosmos_sdtm:name "FTORRES" ;
    cosmos_sdtm:originSource NCIT:C25936 ;
    cosmos_sdtm:originType NCIT:C170548 ;
    cosmos_sdtm:relationship <https://w3id.org/cdisc/cosmos/dss/FT/ADCMZ01/FTORRES/relationship> ;
    cosmos_sdtm:role <https://www.cdisc.org/cosmos/sdtm_v1.0/RoleEnum#Qualifier> ;
    cosmos_sdtm:significantDigits 2 ;
    cosmos_sdtm:valueList "0",
        "1",
        "2" ;
    cosmos_sdtm:vlmTarget true .

<https://w3id.org/cdisc/cosmos/dss/FT/ADCMZ01/FTREASND> a cosmos_sdtm:SDTMVariable ;
    cosmos_sdtm:dataElementConceptId NCIT:C82556 ;
    cosmos_sdtm:isNonStandard false ;
    cosmos_sdtm:mandatoryValue false ;
    cosmos_sdtm:mandatoryVariable false ;
    cosmos_sdtm:name "FTREASND" ;
    cosmos_sdtm:role <https://www.cdisc.org/cosmos/sdtm_v1.0/RoleEnum#Qualifier> ;
    cosmos_sdtm:valueList "Not Done for reason other than above - explain",
        "Subject refused",
        "Subject too cognitively impaired to complete",
        "Subject was unable to complete for physical reasons" .

<https://w3id.org/cdisc/cosmos/dss/FT/ADCMZ01/FTSCAT> a cosmos_sdtm:SDTMVariable ;
    cosmos_sdtm:assignedTerm <https://w3id.org/cdisc/cosmos/dss/FT/ADCMZ01/FTSCAT/assignedTerm> ;
    cosmos_sdtm:comparator <https://www.cdisc.org/cosmos/sdtm_v1.0/ComparatorEnum#EQ> ;
    cosmos_sdtm:dataElementConceptId NCIT:C25692 ;
    cosmos_sdtm:isNonStandard false ;
    cosmos_sdtm:mandatoryValue false ;
    cosmos_sdtm:mandatoryVariable false ;
    cosmos_sdtm:name "FTSCAT" ;
    cosmos_sdtm:relationship <https://w3id.org/cdisc/cosmos/dss/FT/ADCMZ01/FTSCAT/relationship> ;
    cosmos_sdtm:role <https://www.cdisc.org/cosmos/sdtm_v1.0/RoleEnum#Qualifier> .

<https://w3id.org/cdisc/cosmos/dss/FT/ADCMZ01/FTSTAT> a cosmos_sdtm:SDTMVariable ;
    cosmos_sdtm:codelist NCIT:C66789 ;
    cosmos_sdtm:dataElementConceptId NCIT:C41202 ;
    cosmos_sdtm:isNonStandard false ;
    cosmos_sdtm:mandatoryValue false ;
    cosmos_sdtm:mandatoryVariable false ;
    cosmos_sdtm:name "FTSTAT" ;
    cosmos_sdtm:role <https://www.cdisc.org/cosmos/sdtm_v1.0/RoleEnum#Qualifier> ;
    cosmos_sdtm:valueList "NOT DONE" .

<https://w3id.org/cdisc/cosmos/dss/FT/ADCMZ01/FTSTRESC> a cosmos_sdtm:SDTMVariable ;
    cosmos_sdtm:dataElementConceptId NCIT:C46126 ;
    cosmos_sdtm:dataType <https://www.cdisc.org/cosmos/sdtm_v1.0/SDTMVariableDataTypeEnum#float> ;
    cosmos_sdtm:format "5.2" ;
    cosmos_sdtm:isNonStandard false ;
    cosmos_sdtm:length 4 ;
    cosmos_sdtm:mandatoryValue false ;
    cosmos_sdtm:mandatoryVariable true ;
    cosmos_sdtm:name "FTSTRESC" ;
    cosmos_sdtm:originSource NCIT:C70793 ;
    cosmos_sdtm:originType NCIT:C170549 ;
    cosmos_sdtm:relationship <https://w3id.org/cdisc/cosmos/dss/FT/ADCMZ01/FTSTRESC/relationship> ;
    cosmos_sdtm:role <https://www.cdisc.org/cosmos/sdtm_v1.0/RoleEnum#Qualifier> ;
    cosmos_sdtm:significantDigits 2 ;
    cosmos_sdtm:valueList "0",
        "1",
        "2" ;
    cosmos_sdtm:vlmTarget true .

<https://w3id.org/cdisc/cosmos/dss/FT/ADCMZ01/FTSTRESN> a cosmos_sdtm:SDTMVariable ;
    cosmos_sdtm:dataElementConceptId NCIT:C46126 ;
    cosmos_sdtm:dataType <https://www.cdisc.org/cosmos/sdtm_v1.0/SDTMVariableDataTypeEnum#float> ;
    cosmos_sdtm:format "5.2" ;
    cosmos_sdtm:isNonStandard false ;
    cosmos_sdtm:length 4 ;
    cosmos_sdtm:mandatoryValue false ;
    cosmos_sdtm:mandatoryVariable true ;
    cosmos_sdtm:name "FTSTRESN" ;
    cosmos_sdtm:originSource NCIT:C70793 ;
    cosmos_sdtm:originType NCIT:C170549 ;
    cosmos_sdtm:relationship <https://w3id.org/cdisc/cosmos/dss/FT/ADCMZ01/FTSTRESN/relationship> ;
    cosmos_sdtm:role <https://www.cdisc.org/cosmos/sdtm_v1.0/RoleEnum#Qualifier> ;
    cosmos_sdtm:significantDigits 2 ;
    cosmos_sdtm:valueList "0",
        "1",
        "2" ;
    cosmos_sdtm:vlmTarget true .

<https://w3id.org/cdisc/cosmos/dss/FT/ADCMZ01/FTTEST> a cosmos_sdtm:SDTMVariable ;
    cosmos_sdtm:assignedTerm <https://w3id.org/cdisc/cosmos/dss/FT/ADCMZ01/FTTEST/assignedTerm> ;
    cosmos_sdtm:codelist NCIT:C100131 ;
    cosmos_sdtm:isNonStandard false ;
    cosmos_sdtm:mandatoryValue true ;
    cosmos_sdtm:mandatoryVariable true ;
    cosmos_sdtm:name "FTTEST" ;
    cosmos_sdtm:originSource NCIT:C70793 ;
    cosmos_sdtm:originType NCIT:C170547 ;
    cosmos_sdtm:relationship <https://w3id.org/cdisc/cosmos/dss/FT/ADCMZ01/FTTEST/relationship> ;
    cosmos_sdtm:role <https://www.cdisc.org/cosmos/sdtm_v1.0/RoleEnum#Qualifier> .

<https://w3id.org/cdisc/cosmos/dss/FT/ADCMZ01/FTTESTCD> a cosmos_sdtm:SDTMVariable ;
    cosmos_sdtm:assignedTerm <https://w3id.org/cdisc/cosmos/dss/FT/ADCMZ01/FTTESTCD/assignedTerm> ;
    cosmos_sdtm:codelist NCIT:C100132 ;
    cosmos_sdtm:comparator <https://www.cdisc.org/cosmos/sdtm_v1.0/ComparatorEnum#EQ> ;
    cosmos_sdtm:isNonStandard false ;
    cosmos_sdtm:mandatoryValue true ;
    cosmos_sdtm:mandatoryVariable true ;
    cosmos_sdtm:name "FTTESTCD" ;
    cosmos_sdtm:originSource NCIT:C70793 ;
    cosmos_sdtm:originType NCIT:C170547 ;
    cosmos_sdtm:relationship <https://w3id.org/cdisc/cosmos/dss/FT/ADCMZ01/FTTESTCD/relationship> ;
    cosmos_sdtm:role <https://www.cdisc.org/cosmos/sdtm_v1.0/RoleEnum#Topic> .

<https://w3id.org/cdisc/cosmos/dss/FT/ADCMZ02/FTCAT> a cosmos_sdtm:SDTMVariable ;
    cosmos_sdtm:assignedTerm <https://w3id.org/cdisc/cosmos/dss/FT/ADCMZ02/FTCAT/assignedTerm> ;
    cosmos_sdtm:codelist NCIT:C115304 ;
    cosmos_sdtm:comparator <https://www.cdisc.org/cosmos/sdtm_v1.0/ComparatorEnum#EQ> ;
    cosmos_sdtm:dataElementConceptId NCIT:C25372 ;
    cosmos_sdtm:isNonStandard false ;
    cosmos_sdtm:mandatoryValue true ;
    cosmos_sdtm:mandatoryVariable true ;
    cosmos_sdtm:name "FTCAT" ;
    cosmos_sdtm:relationship <https://w3id.org/cdisc/cosmos/dss/FT/ADCMZ02/FTCAT/relationship> ;
    cosmos_sdtm:role <https://www.cdisc.org/cosmos/sdtm_v1.0/RoleEnum#Qualifier> .

<https://w3id.org/cdisc/cosmos/dss/FT/ADCMZ02/FTDTC> a cosmos_sdtm:SDTMVariable ;
    cosmos_sdtm:dataElementConceptId NCIT:C82515 ;
    cosmos_sdtm:isNonStandard false ;
    cosmos_sdtm:mandatoryValue false ;
    cosmos_sdtm:mandatoryVariable true ;
    cosmos_sdtm:name "FTDTC" ;
    cosmos_sdtm:relationship <https://w3id.org/cdisc/cosmos/dss/FT/ADCMZ02/FTDTC/relationship> ;
    cosmos_sdtm:role <https://www.cdisc.org/cosmos/sdtm_v1.0/RoleEnum#Timing> .

<https://w3id.org/cdisc/cosmos/dss/FT/ADCMZ02/FTORRES> a cosmos_sdtm:SDTMVariable ;
    cosmos_sdtm:dataElementConceptId NCIT:C91106 ;
    cosmos_sdtm:dataType <https://www.cdisc.org/cosmos/sdtm_v1.0/SDTMVariableDataTypeEnum#float> ;
    cosmos_sdtm:format "5.2" ;
    cosmos_sdtm:isNonStandard false ;
    cosmos_sdtm:length 4 ;
    cosmos_sdtm:mandatoryValue false ;
    cosmos_sdtm:mandatoryVariable true ;
    cosmos_sdtm:name "FTORRES" ;
    cosmos_sdtm:originSource NCIT:C25936 ;
    cosmos_sdtm:originType NCIT:C170548 ;
    cosmos_sdtm:relationship <https://w3id.org/cdisc/cosmos/dss/FT/ADCMZ02/FTORRES/relationship> ;
    cosmos_sdtm:role <https://www.cdisc.org/cosmos/sdtm_v1.0/RoleEnum#Qualifier> ;
    cosmos_sdtm:significantDigits 2 ;
    cosmos_sdtm:valueList "0",
        "1",
        "10",
        "100",
        "101",
        "102",
        "103",
        "104",
        "105",
        "106",
        "107",
        "108",
        "109",
        "11",
        "110",
        "111",
        "112",
        "113",
        "114",
        "115",
        "116",
        "117",
        "118",
        "119",
        "12",
        "120",
        "121",
        "122",
        "123",
        "124",
        "125",
        "126",
        "127",
        "128",
        "129",
        "13",
        "130",
        "131",
        "132",
        "133",
        "134",
        "135",
        "136",
        "137",
        "138",
        "139",
        "14",
        "140",
        "141",
        "142",
        "143",
        "144",
        "145",
        "146",
        "147",
        "148",
        "149",
        "15",
        "150",
        "151",
        "152",
        "153",
        "154",
        "155",
        "156",
        "157",
        "158",
        "159",
        "16",
        "160",
        "161",
        "162",
        "163",
        "164",
        "165",
        "166",
        "167",
        "168",
        "169",
        "17",
        "170",
        "171",
        "172",
        "173",
        "174",
        "175",
        "176",
        "177",
        "178",
        "179",
        "18",
        "180",
        "181",
        "182",
        "183",
        "184",
        "185",
        "186",
        "187",
        "188",
        "189",
        "19",
        "190",
        "191",
        "192",
        "193",
        "194",
        "195",
        "196",
        "197",
        "198",
        "199",
        "2",
        "20",
        "200",
        "201",
        "202",
        "203",
        "204",
        "205",
        "206",
        "207",
        "208",
        "209",
        "21",
        "210",
        "211",
        "212",
        "213",
        "214",
        "215",
        "216",
        "217",
        "218",
        "219",
        "22",
        "220",
        "221",
        "222",
        "223",
        "224",
        "225",
        "226",
        "227",
        "228",
        "229",
        "23",
        "230",
        "231",
        "232",
        "233",
        "234",
        "235",
        "236",
        "237",
        "238",
        "239",
        "24",
        "240",
        "25",
        "26",
        "27",
        "28",
        "29",
        "3",
        "30",
        "31",
        "32",
        "33",
        "34",
        "35",
        "36",
        "37",
        "38",
        "39",
        "4",
        "40",
        "41",
        "42",
        "43",
        "44",
        "45",
        "46",
        "47",
        "48",
        "49",
        "5",
        "50",
        "51",
        "52",
        "53",
        "54",
        "55",
        "56",
        "57",
        "58",
        "59",
        "6",
        "60",
        "61",
        "62",
        "63",
        "64",
        "65",
        "66",
        "67",
        "68",
        "69",
        "7",
        "70",
        "71",
        "72",
        "73",
        "74",
        "75",
        "76",
        "77",
        "78",
        "79",
        "8",
        "80",
        "81",
        "82",
        "83",
        "84",
        "85",
        "86",
        "87",
        "88",
        "89",
        "9",
        "90",
        "91",
        "92",
        "93",
        "94",
        "95",
        "96",
        "97",
        "98",
        "99" ;
    cosmos_sdtm:vlmTarget true .

<https://w3id.org/cdisc/cosmos/dss/FT/ADCMZ02/FTORRESU> a cosmos_sdtm:SDTMVariable ;
    cosmos_sdtm:assignedTerm <https://w3id.org/cdisc/cosmos/dss/FT/ADCMZ02/FTORRESU/assignedTerm> ;
    cosmos_sdtm:dataElementConceptId NCIT:C42574 ;
    cosmos_sdtm:dataType <https://www.cdisc.org/cosmos/sdtm_v1.0/SDTMVariableDataTypeEnum#text> ;
    cosmos_sdtm:isNonStandard false ;
    cosmos_sdtm:length 1 ;
    cosmos_sdtm:mandatoryValue false ;
    cosmos_sdtm:mandatoryVariable true ;
    cosmos_sdtm:name "FTORRESU" ;
    cosmos_sdtm:originSource NCIT:C25936 ;
    cosmos_sdtm:originType NCIT:C170548 ;
    cosmos_sdtm:relationship <https://w3id.org/cdisc/cosmos/dss/FT/ADCMZ02/FTORRESU/relationship> ;
    cosmos_sdtm:role <https://www.cdisc.org/cosmos/sdtm_v1.0/RoleEnum#Qualifier> ;
    cosmos_sdtm:vlmTarget true .

<https://w3id.org/cdisc/cosmos/dss/FT/ADCMZ02/FTREASND> a cosmos_sdtm:SDTMVariable ;
    cosmos_sdtm:dataElementConceptId NCIT:C82556 ;
    cosmos_sdtm:isNonStandard false ;
    cosmos_sdtm:mandatoryValue false ;
    cosmos_sdtm:mandatoryVariable false ;
    cosmos_sdtm:name "FTREASND" ;
    cosmos_sdtm:role <https://www.cdisc.org/cosmos/sdtm_v1.0/RoleEnum#Qualifier> ;
    cosmos_sdtm:valueList "Not Done for reason other than above - explain",
        "Subject refused",
        "Subject too cognitively impaired to complete",
        "Subject was unable to complete for physical reasons" .

<https://w3id.org/cdisc/cosmos/dss/FT/ADCMZ02/FTSCAT> a cosmos_sdtm:SDTMVariable ;
    cosmos_sdtm:assignedTerm <https://w3id.org/cdisc/cosmos/dss/FT/ADCMZ02/FTSCAT/assignedTerm> ;
    cosmos_sdtm:comparator <https://www.cdisc.org/cosmos/sdtm_v1.0/ComparatorEnum#EQ> ;
    cosmos_sdtm:dataElementConceptId NCIT:C25692 ;
    cosmos_sdtm:isNonStandard false ;
    cosmos_sdtm:mandatoryValue false ;
    cosmos_sdtm:mandatoryVariable false ;
    cosmos_sdtm:name "FTSCAT" ;
    cosmos_sdtm:relationship <https://w3id.org/cdisc/cosmos/dss/FT/ADCMZ02/FTSCAT/relationship> ;
    cosmos_sdtm:role <https://www.cdisc.org/cosmos/sdtm_v1.0/RoleEnum#Qualifier> .

<https://w3id.org/cdisc/cosmos/dss/FT/ADCMZ02/FTSTAT> a cosmos_sdtm:SDTMVariable ;
    cosmos_sdtm:codelist NCIT:C66789 ;
    cosmos_sdtm:dataElementConceptId NCIT:C41202 ;
    cosmos_sdtm:isNonStandard false ;
    cosmos_sdtm:mandatoryValue false ;
    cosmos_sdtm:mandatoryVariable false ;
    cosmos_sdtm:name "FTSTAT" ;
    cosmos_sdtm:role <https://www.cdisc.org/cosmos/sdtm_v1.0/RoleEnum#Qualifier> ;
    cosmos_sdtm:valueList "NOT DONE" .

<https://w3id.org/cdisc/cosmos/dss/FT/ADCMZ02/FTSTRESC> a cosmos_sdtm:SDTMVariable ;
    cosmos_sdtm:dataElementConceptId NCIT:C46126 ;
    cosmos_sdtm:dataType <https://www.cdisc.org/cosmos/sdtm_v1.0/SDTMVariableDataTypeEnum#float> ;
    cosmos_sdtm:format "5.2" ;
    cosmos_sdtm:isNonStandard false ;
    cosmos_sdtm:length 4 ;
    cosmos_sdtm:mandatoryValue false ;
    cosmos_sdtm:mandatoryVariable true ;
    cosmos_sdtm:name "FTSTRESC" ;
    cosmos_sdtm:originSource NCIT:C70793 ;
    cosmos_sdtm:originType NCIT:C170549 ;
    cosmos_sdtm:relationship <https://w3id.org/cdisc/cosmos/dss/FT/ADCMZ02/FTSTRESC/relationship> ;
    cosmos_sdtm:role <https://www.cdisc.org/cosmos/sdtm_v1.0/RoleEnum#Qualifier> ;
    cosmos_sdtm:significantDigits 2 ;
    cosmos_sdtm:valueList "0",
        "1",
        "10",
        "100",
        "101",
        "102",
        "103",
        "104",
        "105",
        "106",
        "107",
        "108",
        "109",
        "11",
        "110",
        "111",
        "112",
        "113",
        "114",
        "115",
        "116",
        "117",
        "118",
        "119",
        "12",
        "120",
        "121",
        "122",
        "123",
        "124",
        "125",
        "126",
        "127",
        "128",
        "129",
        "13",
        "130",
