@prefix NCIT: <http://purl.obolibrary.org/obo/NCIT_> .
@prefix cosmos_sdtm: <https://www.cdisc.org/cosmos/sdtm_v1.0/> .
@prefix dcterms: <http://purl.org/dc/terms/> .
@prefix owl: <http://www.w3.org/2002/07/owl#> .
@prefix rdf: <http://www.w3.org/1999/02/22-rdf-syntax-ns#> .
@prefix rdfs: <http://www.w3.org/2000/01/rdf-schema#> .
@prefix skos: <http://www.w3.org/2004/02/skos/core#> .
@prefix xsd: <http://www.w3.org/2001/XMLSchema#> .

<https://w3id.org/cdisc/cosmos/dss/CM> a owl:Ontology ;
    rdfs:label "CDISC COSMoS Dataset Specializations, CM (instances)" ;
    dcterms:identifier "2026-07-14" ;
    dcterms:source <https://raw.githubusercontent.com/cdisc-org/COSMoS/031429b1d14823721991cd23ee88a11616686ce3/export/cdisc_sdtm_dataset_specializations_latest.csv> ;
    rdfs:comment "Dataset Specialization instances for domain CM, rendered from the pinned COSMoS export. Variable order is the export's row order, carried as rdf:_n membership beside the variables edges. length and significantDigits are cast from the export's decimal form to integer; packageType is not in the export and is set to the enum's single value. A biomedicalConceptId or dataElementConceptId that resolves to no node is carried as the published string. The concept nodes those edges reach are declared in the Biomedical Concept instance graph, which is not imported. Draft - not a normative CDISC artifact." ;
    owl:imports <https://w3id.org/cdisc/cosmos/sdtm/> ;
    owl:versionIRI <https://w3id.org/cdisc/cosmos/dss/CM/0.4.0> ;
    owl:versionInfo "v0.4.0" .

<https://w3id.org/cdisc/cosmos/dss/CM/CMFREE> a cosmos_sdtm:SDTMGroup ;
    dcterms:identifier "CMFREE" ;
    rdf:_1 <https://w3id.org/cdisc/cosmos/dss/CM/CMFREE/CMTRT> ;
    rdf:_10 <https://w3id.org/cdisc/cosmos/dss/CM/CMFREE/CMDOSU> ;
    rdf:_11 <https://w3id.org/cdisc/cosmos/dss/CM/CMFREE/CMDOSFRM> ;
    rdf:_12 <https://w3id.org/cdisc/cosmos/dss/CM/CMFREE/CMDOSFRQ> ;
    rdf:_13 <https://w3id.org/cdisc/cosmos/dss/CM/CMFREE/CMROUTE> ;
    rdf:_14 <https://w3id.org/cdisc/cosmos/dss/CM/CMFREE/CMSTDTC> ;
    rdf:_15 <https://w3id.org/cdisc/cosmos/dss/CM/CMFREE/CMENDTC> ;
    rdf:_16 <https://w3id.org/cdisc/cosmos/dss/CM/CMFREE/CMSTRF> ;
    rdf:_17 <https://w3id.org/cdisc/cosmos/dss/CM/CMFREE/CMSTRTPT> ;
    rdf:_18 <https://w3id.org/cdisc/cosmos/dss/CM/CMFREE/CMSTTPT> ;
    rdf:_19 <https://w3id.org/cdisc/cosmos/dss/CM/CMFREE/CMENRF> ;
    rdf:_2 <https://w3id.org/cdisc/cosmos/dss/CM/CMFREE/CMDECOD> ;
    rdf:_20 <https://w3id.org/cdisc/cosmos/dss/CM/CMFREE/CMENRTPT> ;
    rdf:_21 <https://w3id.org/cdisc/cosmos/dss/CM/CMFREE/CMENTPT> ;
    rdf:_3 <https://w3id.org/cdisc/cosmos/dss/CM/CMFREE/CMCAT> ;
    rdf:_4 <https://w3id.org/cdisc/cosmos/dss/CM/CMFREE/CMSCAT> ;
    rdf:_5 <https://w3id.org/cdisc/cosmos/dss/CM/CMFREE/CMCLAS> ;
    rdf:_6 <https://w3id.org/cdisc/cosmos/dss/CM/CMFREE/CMCLASCD> ;
    rdf:_7 <https://w3id.org/cdisc/cosmos/dss/CM/CMFREE/CMINDC> ;
    rdf:_8 <https://w3id.org/cdisc/cosmos/dss/CM/CMFREE/CMDOSE> ;
    rdf:_9 <https://w3id.org/cdisc/cosmos/dss/CM/CMFREE/CMDOSTXT> ;
    cosmos_sdtm:biomedicalConceptId NCIT:C53630 ;
    cosmos_sdtm:domain "CM" ;
    cosmos_sdtm:packageDate "2025-07-01"^^xsd:date ;
    cosmos_sdtm:packageType <https://www.cdisc.org/cosmos/sdtm_v1.0/PackageTypeEnum#sdtm> ;
    cosmos_sdtm:sdtmigStartVersion "3-2" ;
    cosmos_sdtm:shortName "Concomitant Medication Free Text Format" ;
    cosmos_sdtm:source "CM.CMTRT" ;
    cosmos_sdtm:variables <https://w3id.org/cdisc/cosmos/dss/CM/CMFREE/CMCAT>,
        <https://w3id.org/cdisc/cosmos/dss/CM/CMFREE/CMCLAS>,
        <https://w3id.org/cdisc/cosmos/dss/CM/CMFREE/CMCLASCD>,
        <https://w3id.org/cdisc/cosmos/dss/CM/CMFREE/CMDECOD>,
        <https://w3id.org/cdisc/cosmos/dss/CM/CMFREE/CMDOSE>,
        <https://w3id.org/cdisc/cosmos/dss/CM/CMFREE/CMDOSFRM>,
        <https://w3id.org/cdisc/cosmos/dss/CM/CMFREE/CMDOSFRQ>,
        <https://w3id.org/cdisc/cosmos/dss/CM/CMFREE/CMDOSTXT>,
        <https://w3id.org/cdisc/cosmos/dss/CM/CMFREE/CMDOSU>,
        <https://w3id.org/cdisc/cosmos/dss/CM/CMFREE/CMENDTC>,
        <https://w3id.org/cdisc/cosmos/dss/CM/CMFREE/CMENRF>,
        <https://w3id.org/cdisc/cosmos/dss/CM/CMFREE/CMENRTPT>,
        <https://w3id.org/cdisc/cosmos/dss/CM/CMFREE/CMENTPT>,
        <https://w3id.org/cdisc/cosmos/dss/CM/CMFREE/CMINDC>,
        <https://w3id.org/cdisc/cosmos/dss/CM/CMFREE/CMROUTE>,
        <https://w3id.org/cdisc/cosmos/dss/CM/CMFREE/CMSCAT>,
        <https://w3id.org/cdisc/cosmos/dss/CM/CMFREE/CMSTDTC>,
        <https://w3id.org/cdisc/cosmos/dss/CM/CMFREE/CMSTRF>,
        <https://w3id.org/cdisc/cosmos/dss/CM/CMFREE/CMSTRTPT>,
        <https://w3id.org/cdisc/cosmos/dss/CM/CMFREE/CMSTTPT>,
        <https://w3id.org/cdisc/cosmos/dss/CM/CMFREE/CMTRT> .

<https://w3id.org/cdisc/cosmos/dss/CM/CMPRESP> a cosmos_sdtm:SDTMGroup ;
    dcterms:identifier "CMPRESP" ;
    rdf:_1 <https://w3id.org/cdisc/cosmos/dss/CM/CMPRESP/CMTRT> ;
    rdf:_10 <https://w3id.org/cdisc/cosmos/dss/CM/CMPRESP/CMDOSTXT> ;
    rdf:_11 <https://w3id.org/cdisc/cosmos/dss/CM/CMPRESP/CMDOSU> ;
    rdf:_12 <https://w3id.org/cdisc/cosmos/dss/CM/CMPRESP/CMDOSFRM> ;
    rdf:_13 <https://w3id.org/cdisc/cosmos/dss/CM/CMPRESP/CMDOSFRQ> ;
    rdf:_14 <https://w3id.org/cdisc/cosmos/dss/CM/CMPRESP/CMROUTE> ;
    rdf:_15 <https://w3id.org/cdisc/cosmos/dss/CM/CMPRESP/CMSTDTC> ;
    rdf:_16 <https://w3id.org/cdisc/cosmos/dss/CM/CMPRESP/CMENDTC> ;
    rdf:_17 <https://w3id.org/cdisc/cosmos/dss/CM/CMPRESP/CMSTRF> ;
    rdf:_18 <https://w3id.org/cdisc/cosmos/dss/CM/CMPRESP/CMSTRTPT> ;
    rdf:_19 <https://w3id.org/cdisc/cosmos/dss/CM/CMPRESP/CMSTTPT> ;
    rdf:_2 <https://w3id.org/cdisc/cosmos/dss/CM/CMPRESP/CMDECOD> ;
    rdf:_20 <https://w3id.org/cdisc/cosmos/dss/CM/CMPRESP/CMENRF> ;
    rdf:_21 <https://w3id.org/cdisc/cosmos/dss/CM/CMPRESP/CMENRTPT> ;
    rdf:_22 <https://w3id.org/cdisc/cosmos/dss/CM/CMPRESP/CMENTPT> ;
    rdf:_3 <https://w3id.org/cdisc/cosmos/dss/CM/CMPRESP/CMCAT> ;
    rdf:_4 <https://w3id.org/cdisc/cosmos/dss/CM/CMPRESP/CMSCAT> ;
    rdf:_5 <https://w3id.org/cdisc/cosmos/dss/CM/CMPRESP/CMCLAS> ;
    rdf:_6 <https://w3id.org/cdisc/cosmos/dss/CM/CMPRESP/CMCLASCD> ;
    rdf:_7 <https://w3id.org/cdisc/cosmos/dss/CM/CMPRESP/CMPRESP> ;
    rdf:_8 <https://w3id.org/cdisc/cosmos/dss/CM/CMPRESP/CMINDC> ;
    rdf:_9 <https://w3id.org/cdisc/cosmos/dss/CM/CMPRESP/CMDOSE> ;
    cosmos_sdtm:biomedicalConceptId NCIT:C53630 ;
    cosmos_sdtm:domain "CM" ;
    cosmos_sdtm:packageDate "2025-07-01"^^xsd:date ;
    cosmos_sdtm:packageType <https://www.cdisc.org/cosmos/sdtm_v1.0/PackageTypeEnum#sdtm> ;
    cosmos_sdtm:sdtmigStartVersion "3-2" ;
    cosmos_sdtm:shortName "Concomitant Medication Prespecified" ;
    cosmos_sdtm:source "CM.CMTRT" ;
    cosmos_sdtm:variables <https://w3id.org/cdisc/cosmos/dss/CM/CMPRESP/CMCAT>,
        <https://w3id.org/cdisc/cosmos/dss/CM/CMPRESP/CMCLAS>,
        <https://w3id.org/cdisc/cosmos/dss/CM/CMPRESP/CMCLASCD>,
        <https://w3id.org/cdisc/cosmos/dss/CM/CMPRESP/CMDECOD>,
        <https://w3id.org/cdisc/cosmos/dss/CM/CMPRESP/CMDOSE>,
        <https://w3id.org/cdisc/cosmos/dss/CM/CMPRESP/CMDOSFRM>,
        <https://w3id.org/cdisc/cosmos/dss/CM/CMPRESP/CMDOSFRQ>,
        <https://w3id.org/cdisc/cosmos/dss/CM/CMPRESP/CMDOSTXT>,
        <https://w3id.org/cdisc/cosmos/dss/CM/CMPRESP/CMDOSU>,
        <https://w3id.org/cdisc/cosmos/dss/CM/CMPRESP/CMENDTC>,
        <https://w3id.org/cdisc/cosmos/dss/CM/CMPRESP/CMENRF>,
        <https://w3id.org/cdisc/cosmos/dss/CM/CMPRESP/CMENRTPT>,
        <https://w3id.org/cdisc/cosmos/dss/CM/CMPRESP/CMENTPT>,
        <https://w3id.org/cdisc/cosmos/dss/CM/CMPRESP/CMINDC>,
        <https://w3id.org/cdisc/cosmos/dss/CM/CMPRESP/CMPRESP>,
        <https://w3id.org/cdisc/cosmos/dss/CM/CMPRESP/CMROUTE>,
        <https://w3id.org/cdisc/cosmos/dss/CM/CMPRESP/CMSCAT>,
        <https://w3id.org/cdisc/cosmos/dss/CM/CMPRESP/CMSTDTC>,
        <https://w3id.org/cdisc/cosmos/dss/CM/CMPRESP/CMSTRF>,
        <https://w3id.org/cdisc/cosmos/dss/CM/CMPRESP/CMSTRTPT>,
        <https://w3id.org/cdisc/cosmos/dss/CM/CMPRESP/CMSTTPT>,
        <https://w3id.org/cdisc/cosmos/dss/CM/CMPRESP/CMTRT> .

<https://w3id.org/cdisc/cosmos/dss/CM/CMPRIORBREASTCANCER> a cosmos_sdtm:SDTMGroup ;
    dcterms:identifier "CMPRIORBREASTCANCER" ;
    rdf:_1 <https://w3id.org/cdisc/cosmos/dss/CM/CMPRIORBREASTCANCER/CMGRPID> ;
    rdf:_10 <https://w3id.org/cdisc/cosmos/dss/CM/CMPRIORBREASTCANCER/CMINDC> ;
    rdf:_11 <https://w3id.org/cdisc/cosmos/dss/CM/CMPRIORBREASTCANCER/CMDOSE> ;
    rdf:_12 <https://w3id.org/cdisc/cosmos/dss/CM/CMPRIORBREASTCANCER/CMDOSU> ;
    rdf:_13 <https://w3id.org/cdisc/cosmos/dss/CM/CMPRIORBREASTCANCER/CMDOSFRM> ;
    rdf:_14 <https://w3id.org/cdisc/cosmos/dss/CM/CMPRIORBREASTCANCER/CMDOSFRQ> ;
    rdf:_15 <https://w3id.org/cdisc/cosmos/dss/CM/CMPRIORBREASTCANCER/CMDOSRGM> ;
    rdf:_16 <https://w3id.org/cdisc/cosmos/dss/CM/CMPRIORBREASTCANCER/CMROUTE> ;
    rdf:_17 <https://w3id.org/cdisc/cosmos/dss/CM/CMPRIORBREASTCANCER/CMRSDISC> ;
    rdf:_18 <https://w3id.org/cdisc/cosmos/dss/CM/CMPRIORBREASTCANCER/CMSTDTC> ;
    rdf:_19 <https://w3id.org/cdisc/cosmos/dss/CM/CMPRIORBREASTCANCER/CMENDTC> ;
    rdf:_2 <https://w3id.org/cdisc/cosmos/dss/CM/CMPRIORBREASTCANCER/CMTRT> ;
    rdf:_20 <https://w3id.org/cdisc/cosmos/dss/CM/CMPRIORBREASTCANCER/CMENRF> ;
    rdf:_21 <https://w3id.org/cdisc/cosmos/dss/CM/CMPRIORBREASTCANCER/CMENTPT> ;
    rdf:_22 <https://w3id.org/cdisc/cosmos/dss/CM/CMPRIORBREASTCANCER/CMENRTPT> ;
    rdf:_23 <https://w3id.org/cdisc/cosmos/dss/CM/CMPRIORBREASTCANCER/CMTRTSTT> ;
    rdf:_24 <https://w3id.org/cdisc/cosmos/dss/CM/CMPRIORBREASTCANCER/CMTRTINT> ;
    rdf:_3 <https://w3id.org/cdisc/cosmos/dss/CM/CMPRIORBREASTCANCER/CMDECOD> ;
    rdf:_4 <https://w3id.org/cdisc/cosmos/dss/CM/CMPRIORBREASTCANCER/CMCAT> ;
    rdf:_5 <https://w3id.org/cdisc/cosmos/dss/CM/CMPRIORBREASTCANCER/CMSCAT> ;
    rdf:_6 <https://w3id.org/cdisc/cosmos/dss/CM/CMPRIORBREASTCANCER/CMPRESP> ;
    rdf:_7 <https://w3id.org/cdisc/cosmos/dss/CM/CMPRIORBREASTCANCER/CMOCCUR> ;
    rdf:_8 <https://w3id.org/cdisc/cosmos/dss/CM/CMPRIORBREASTCANCER/CMCLAS> ;
    rdf:_9 <https://w3id.org/cdisc/cosmos/dss/CM/CMPRIORBREASTCANCER/CMCLASCD> ;
    cosmos_sdtm:biomedicalConceptId NCIT:C53630 ;
    cosmos_sdtm:domain "CM" ;
    cosmos_sdtm:packageDate "2025-12-16"^^xsd:date ;
    cosmos_sdtm:packageType <https://www.cdisc.org/cosmos/sdtm_v1.0/PackageTypeEnum#sdtm> ;
    cosmos_sdtm:sdtmigStartVersion "3-2" ;
    cosmos_sdtm:shortName "Concomitant Therapy Breast Cancer Prior Treatment" ;
    cosmos_sdtm:source "CM.CMTRT" ;
    cosmos_sdtm:variables <https://w3id.org/cdisc/cosmos/dss/CM/CMPRIORBREASTCANCER/CMCAT>,
        <https://w3id.org/cdisc/cosmos/dss/CM/CMPRIORBREASTCANCER/CMCLAS>,
        <https://w3id.org/cdisc/cosmos/dss/CM/CMPRIORBREASTCANCER/CMCLASCD>,
        <https://w3id.org/cdisc/cosmos/dss/CM/CMPRIORBREASTCANCER/CMDECOD>,
        <https://w3id.org/cdisc/cosmos/dss/CM/CMPRIORBREASTCANCER/CMDOSE>,
        <https://w3id.org/cdisc/cosmos/dss/CM/CMPRIORBREASTCANCER/CMDOSFRM>,
        <https://w3id.org/cdisc/cosmos/dss/CM/CMPRIORBREASTCANCER/CMDOSFRQ>,
        <https://w3id.org/cdisc/cosmos/dss/CM/CMPRIORBREASTCANCER/CMDOSRGM>,
        <https://w3id.org/cdisc/cosmos/dss/CM/CMPRIORBREASTCANCER/CMDOSU>,
        <https://w3id.org/cdisc/cosmos/dss/CM/CMPRIORBREASTCANCER/CMENDTC>,
        <https://w3id.org/cdisc/cosmos/dss/CM/CMPRIORBREASTCANCER/CMENRF>,
        <https://w3id.org/cdisc/cosmos/dss/CM/CMPRIORBREASTCANCER/CMENRTPT>,
        <https://w3id.org/cdisc/cosmos/dss/CM/CMPRIORBREASTCANCER/CMENTPT>,
        <https://w3id.org/cdisc/cosmos/dss/CM/CMPRIORBREASTCANCER/CMGRPID>,
        <https://w3id.org/cdisc/cosmos/dss/CM/CMPRIORBREASTCANCER/CMINDC>,
        <https://w3id.org/cdisc/cosmos/dss/CM/CMPRIORBREASTCANCER/CMOCCUR>,
        <https://w3id.org/cdisc/cosmos/dss/CM/CMPRIORBREASTCANCER/CMPRESP>,
        <https://w3id.org/cdisc/cosmos/dss/CM/CMPRIORBREASTCANCER/CMROUTE>,
        <https://w3id.org/cdisc/cosmos/dss/CM/CMPRIORBREASTCANCER/CMRSDISC>,
        <https://w3id.org/cdisc/cosmos/dss/CM/CMPRIORBREASTCANCER/CMSCAT>,
        <https://w3id.org/cdisc/cosmos/dss/CM/CMPRIORBREASTCANCER/CMSTDTC>,
        <https://w3id.org/cdisc/cosmos/dss/CM/CMPRIORBREASTCANCER/CMTRT>,
        <https://w3id.org/cdisc/cosmos/dss/CM/CMPRIORBREASTCANCER/CMTRTINT>,
        <https://w3id.org/cdisc/cosmos/dss/CM/CMPRIORBREASTCANCER/CMTRTSTT> .

<https://w3id.org/cdisc/cosmos/dss/CM/CMPRIORCANCER> a cosmos_sdtm:SDTMGroup ;
    dcterms:identifier "CMPRIORCANCER" ;
    rdf:_1 <https://w3id.org/cdisc/cosmos/dss/CM/CMPRIORCANCER/CMGRPID> ;
    rdf:_10 <https://w3id.org/cdisc/cosmos/dss/CM/CMPRIORCANCER/CMINDC> ;
    rdf:_11 <https://w3id.org/cdisc/cosmos/dss/CM/CMPRIORCANCER/CMDOSE> ;
    rdf:_12 <https://w3id.org/cdisc/cosmos/dss/CM/CMPRIORCANCER/CMDOSU> ;
    rdf:_13 <https://w3id.org/cdisc/cosmos/dss/CM/CMPRIORCANCER/CMDOSFRM> ;
    rdf:_14 <https://w3id.org/cdisc/cosmos/dss/CM/CMPRIORCANCER/CMDOSFRQ> ;
    rdf:_15 <https://w3id.org/cdisc/cosmos/dss/CM/CMPRIORCANCER/CMDOSRGM> ;
    rdf:_16 <https://w3id.org/cdisc/cosmos/dss/CM/CMPRIORCANCER/CMROUTE> ;
    rdf:_17 <https://w3id.org/cdisc/cosmos/dss/CM/CMPRIORCANCER/CMRSDISC> ;
    rdf:_18 <https://w3id.org/cdisc/cosmos/dss/CM/CMPRIORCANCER/CMSTDTC> ;
    rdf:_19 <https://w3id.org/cdisc/cosmos/dss/CM/CMPRIORCANCER/CMENDTC> ;
    rdf:_2 <https://w3id.org/cdisc/cosmos/dss/CM/CMPRIORCANCER/CMTRT> ;
    rdf:_20 <https://w3id.org/cdisc/cosmos/dss/CM/CMPRIORCANCER/CMENRF> ;
    rdf:_21 <https://w3id.org/cdisc/cosmos/dss/CM/CMPRIORCANCER/CMENTPT> ;
    rdf:_22 <https://w3id.org/cdisc/cosmos/dss/CM/CMPRIORCANCER/CMENRTPT> ;
    rdf:_23 <https://w3id.org/cdisc/cosmos/dss/CM/CMPRIORCANCER/CMTRTSTT> ;
    rdf:_24 <https://w3id.org/cdisc/cosmos/dss/CM/CMPRIORCANCER/CMTRTINT> ;
    rdf:_3 <https://w3id.org/cdisc/cosmos/dss/CM/CMPRIORCANCER/CMDECOD> ;
    rdf:_4 <https://w3id.org/cdisc/cosmos/dss/CM/CMPRIORCANCER/CMCAT> ;
    rdf:_5 <https://w3id.org/cdisc/cosmos/dss/CM/CMPRIORCANCER/CMSCAT> ;
    rdf:_6 <https://w3id.org/cdisc/cosmos/dss/CM/CMPRIORCANCER/CMPRESP> ;
    rdf:_7 <https://w3id.org/cdisc/cosmos/dss/CM/CMPRIORCANCER/CMOCCUR> ;
    rdf:_8 <https://w3id.org/cdisc/cosmos/dss/CM/CMPRIORCANCER/CMCLAS> ;
    rdf:_9 <https://w3id.org/cdisc/cosmos/dss/CM/CMPRIORCANCER/CMCLASCD> ;
    cosmos_sdtm:biomedicalConceptId NCIT:C53630 ;
    cosmos_sdtm:domain "CM" ;
    cosmos_sdtm:packageDate "2026-07-14"^^xsd:date ;
    cosmos_sdtm:packageType <https://www.cdisc.org/cosmos/sdtm_v1.0/PackageTypeEnum#sdtm> ;
    cosmos_sdtm:sdtmigStartVersion "3-2" ;
    cosmos_sdtm:shortName "Prior Anti-Cancer Therapy" ;
    cosmos_sdtm:source "CM.CMTRT" ;
    cosmos_sdtm:variables <https://w3id.org/cdisc/cosmos/dss/CM/CMPRIORCANCER/CMCAT>,
        <https://w3id.org/cdisc/cosmos/dss/CM/CMPRIORCANCER/CMCLAS>,
        <https://w3id.org/cdisc/cosmos/dss/CM/CMPRIORCANCER/CMCLASCD>,
        <https://w3id.org/cdisc/cosmos/dss/CM/CMPRIORCANCER/CMDECOD>,
        <https://w3id.org/cdisc/cosmos/dss/CM/CMPRIORCANCER/CMDOSE>,
        <https://w3id.org/cdisc/cosmos/dss/CM/CMPRIORCANCER/CMDOSFRM>,
        <https://w3id.org/cdisc/cosmos/dss/CM/CMPRIORCANCER/CMDOSFRQ>,
        <https://w3id.org/cdisc/cosmos/dss/CM/CMPRIORCANCER/CMDOSRGM>,
        <https://w3id.org/cdisc/cosmos/dss/CM/CMPRIORCANCER/CMDOSU>,
        <https://w3id.org/cdisc/cosmos/dss/CM/CMPRIORCANCER/CMENDTC>,
        <https://w3id.org/cdisc/cosmos/dss/CM/CMPRIORCANCER/CMENRF>,
        <https://w3id.org/cdisc/cosmos/dss/CM/CMPRIORCANCER/CMENRTPT>,
        <https://w3id.org/cdisc/cosmos/dss/CM/CMPRIORCANCER/CMENTPT>,
        <https://w3id.org/cdisc/cosmos/dss/CM/CMPRIORCANCER/CMGRPID>,
        <https://w3id.org/cdisc/cosmos/dss/CM/CMPRIORCANCER/CMINDC>,
        <https://w3id.org/cdisc/cosmos/dss/CM/CMPRIORCANCER/CMOCCUR>,
        <https://w3id.org/cdisc/cosmos/dss/CM/CMPRIORCANCER/CMPRESP>,
        <https://w3id.org/cdisc/cosmos/dss/CM/CMPRIORCANCER/CMROUTE>,
        <https://w3id.org/cdisc/cosmos/dss/CM/CMPRIORCANCER/CMRSDISC>,
        <https://w3id.org/cdisc/cosmos/dss/CM/CMPRIORCANCER/CMSCAT>,
        <https://w3id.org/cdisc/cosmos/dss/CM/CMPRIORCANCER/CMSTDTC>,
        <https://w3id.org/cdisc/cosmos/dss/CM/CMPRIORCANCER/CMTRT>,
        <https://w3id.org/cdisc/cosmos/dss/CM/CMPRIORCANCER/CMTRTINT>,
        <https://w3id.org/cdisc/cosmos/dss/CM/CMPRIORCANCER/CMTRTSTT> .

<https://w3id.org/cdisc/cosmos/dss/CM/CMFREE/CMCLAS/relationship> a cosmos_sdtm:RelationShip ;
    cosmos_sdtm:linkingPhrase <https://www.cdisc.org/cosmos/sdtm_v1.0/LinkingPhraseEnum#is%20a%20dictionary-derived%20class%20name%20for%20the%20value%20in> ;
    cosmos_sdtm:object "CMTRT" ;
    cosmos_sdtm:predicateTerm <https://www.cdisc.org/cosmos/sdtm_v1.0/PredicateTermEnum#IS_DERIVED_FROM> ;
    cosmos_sdtm:subject "CMCLAS" .

<https://w3id.org/cdisc/cosmos/dss/CM/CMFREE/CMCLASCD/relationship> a cosmos_sdtm:RelationShip ;
    cosmos_sdtm:linkingPhrase <https://www.cdisc.org/cosmos/sdtm_v1.0/LinkingPhraseEnum#is%20a%20dictionary-derived%20class%20code%20for%20the%20value%20in> ;
    cosmos_sdtm:object "CMTRT" ;
    cosmos_sdtm:predicateTerm <https://www.cdisc.org/cosmos/sdtm_v1.0/PredicateTermEnum#IS_DECODED_BY> ;
    cosmos_sdtm:subject "CMCLASCD" .

<https://w3id.org/cdisc/cosmos/dss/CM/CMFREE/CMDECOD/relationship> a cosmos_sdtm:RelationShip ;
    cosmos_sdtm:linkingPhrase <https://www.cdisc.org/cosmos/sdtm_v1.0/LinkingPhraseEnum#is%20the%20dictionary-derived%20term%20for%20the%20value%20in> ;
    cosmos_sdtm:object "CMTRT" ;
    cosmos_sdtm:predicateTerm <https://www.cdisc.org/cosmos/sdtm_v1.0/PredicateTermEnum#DECODES> ;
    cosmos_sdtm:subject "CMDECOD" .

<https://w3id.org/cdisc/cosmos/dss/CM/CMFREE/CMDOSE/relationship> a cosmos_sdtm:RelationShip ;
    cosmos_sdtm:linkingPhrase <https://www.cdisc.org/cosmos/sdtm_v1.0/LinkingPhraseEnum#is%20the%20administered%20amount%20of%20the%20treatment%20in> ;
    cosmos_sdtm:object "CMTRT" ;
    cosmos_sdtm:predicateTerm <https://www.cdisc.org/cosmos/sdtm_v1.0/PredicateTermEnum#IS_ATTRIBUTE_FOR> ;
    cosmos_sdtm:subject "CMDOSE" .

<https://w3id.org/cdisc/cosmos/dss/CM/CMFREE/CMDOSFRM/relationship> a cosmos_sdtm:RelationShip ;
    cosmos_sdtm:linkingPhrase <https://www.cdisc.org/cosmos/sdtm_v1.0/LinkingPhraseEnum#is%20the%20physical%20form%20of%20the%20product%20in> ;
    cosmos_sdtm:object "CMTRT" ;
    cosmos_sdtm:predicateTerm <https://www.cdisc.org/cosmos/sdtm_v1.0/PredicateTermEnum#IS_ATTRIBUTE_FOR> ;
    cosmos_sdtm:subject "CMDOSFRM" .

<https://w3id.org/cdisc/cosmos/dss/CM/CMFREE/CMDOSFRQ/relationship> a cosmos_sdtm:RelationShip ;
    cosmos_sdtm:linkingPhrase <https://www.cdisc.org/cosmos/sdtm_v1.0/LinkingPhraseEnum#is%20the%20frequency%20of%20administration%20of%20the%20amount%20in> ;
    cosmos_sdtm:object "CMDOSE" ;
    cosmos_sdtm:predicateTerm <https://www.cdisc.org/cosmos/sdtm_v1.0/PredicateTermEnum#SPECIFIES> ;
    cosmos_sdtm:subject "CMDOSFRQ" .

<https://w3id.org/cdisc/cosmos/dss/CM/CMFREE/CMDOSTXT/relationship> a cosmos_sdtm:RelationShip ;
    cosmos_sdtm:linkingPhrase <https://www.cdisc.org/cosmos/sdtm_v1.0/LinkingPhraseEnum#is%20the%20administered%20amount%20of%20the%20treatment%20in> ;
    cosmos_sdtm:object "CMTRT" ;
    cosmos_sdtm:predicateTerm <https://www.cdisc.org/cosmos/sdtm_v1.0/PredicateTermEnum#IS_ATTRIBUTE_FOR> ;
    cosmos_sdtm:subject "CMDOSTXT" .

<https://w3id.org/cdisc/cosmos/dss/CM/CMFREE/CMDOSU/relationship> a cosmos_sdtm:RelationShip ;
    cosmos_sdtm:linkingPhrase <https://www.cdisc.org/cosmos/sdtm_v1.0/LinkingPhraseEnum#is%20the%20unit%20for> ;
    cosmos_sdtm:object "CMDOSE" ;
    cosmos_sdtm:predicateTerm <https://www.cdisc.org/cosmos/sdtm_v1.0/PredicateTermEnum#IS_UNIT_FOR> ;
    cosmos_sdtm:subject "CMDOSU" .

<https://w3id.org/cdisc/cosmos/dss/CM/CMFREE/CMENDTC/relationship> a cosmos_sdtm:RelationShip ;
    cosmos_sdtm:linkingPhrase <https://www.cdisc.org/cosmos/sdtm_v1.0/LinkingPhraseEnum#is%20the%20end%20date%20for> ;
    cosmos_sdtm:object "CMTRT" ;
    cosmos_sdtm:predicateTerm <https://www.cdisc.org/cosmos/sdtm_v1.0/PredicateTermEnum#IS_TIMING_FOR> ;
    cosmos_sdtm:subject "CMENDTC" .

<https://w3id.org/cdisc/cosmos/dss/CM/CMFREE/CMINDC/relationship> a cosmos_sdtm:RelationShip ;
    cosmos_sdtm:linkingPhrase <https://www.cdisc.org/cosmos/sdtm_v1.0/LinkingPhraseEnum#is%20the%20medical%20condition%20that%20is%20the%20reason%20for%20the%20treatment%20in> ;
    cosmos_sdtm:object "CMTRT" ;
    cosmos_sdtm:predicateTerm <https://www.cdisc.org/cosmos/sdtm_v1.0/PredicateTermEnum#IS_REASON_FOR> ;
    cosmos_sdtm:subject "CMINDC" .

<https://w3id.org/cdisc/cosmos/dss/CM/CMFREE/CMROUTE/relationship> a cosmos_sdtm:RelationShip ;
    cosmos_sdtm:linkingPhrase <https://www.cdisc.org/cosmos/sdtm_v1.0/LinkingPhraseEnum#is%20the%20part%20of%20the%20body%20through%20which%20is%20administered%20the%20treatment%20in> ;
    cosmos_sdtm:object "CMTRT" ;
    cosmos_sdtm:predicateTerm <https://www.cdisc.org/cosmos/sdtm_v1.0/PredicateTermEnum#IS_ATTRIBUTE_FOR> ;
    cosmos_sdtm:subject "CMROUTE" .

<https://w3id.org/cdisc/cosmos/dss/CM/CMFREE/CMSTDTC/relationship> a cosmos_sdtm:RelationShip ;
    cosmos_sdtm:linkingPhrase <https://www.cdisc.org/cosmos/sdtm_v1.0/LinkingPhraseEnum#is%20the%20start%20date%20for> ;
    cosmos_sdtm:object "CMTRT" ;
    cosmos_sdtm:predicateTerm <https://www.cdisc.org/cosmos/sdtm_v1.0/PredicateTermEnum#IS_TIMING_FOR> ;
    cosmos_sdtm:subject "CMSTDTC" .

<https://w3id.org/cdisc/cosmos/dss/CM/CMFREE/CMTRT/relationship> a cosmos_sdtm:RelationShip ;
    cosmos_sdtm:linkingPhrase <https://www.cdisc.org/cosmos/sdtm_v1.0/LinkingPhraseEnum#is%20original%20text%20for> ;
    cosmos_sdtm:object "CMDECOD" ;
    cosmos_sdtm:predicateTerm <https://www.cdisc.org/cosmos/sdtm_v1.0/PredicateTermEnum#IS_ORIGINAL_TEXT_FOR> ;
    cosmos_sdtm:subject "CMTRT" .

<https://w3id.org/cdisc/cosmos/dss/CM/CMPRESP/CMCLAS/relationship> a cosmos_sdtm:RelationShip ;
    cosmos_sdtm:linkingPhrase <https://www.cdisc.org/cosmos/sdtm_v1.0/LinkingPhraseEnum#is%20a%20dictionary-derived%20class%20name%20for%20the%20value%20in> ;
    cosmos_sdtm:object "CMTRT" ;
    cosmos_sdtm:predicateTerm <https://www.cdisc.org/cosmos/sdtm_v1.0/PredicateTermEnum#IS_DERIVED_FROM> ;
    cosmos_sdtm:subject "CMCLAS" .

<https://w3id.org/cdisc/cosmos/dss/CM/CMPRESP/CMCLASCD/relationship> a cosmos_sdtm:RelationShip ;
    cosmos_sdtm:linkingPhrase <https://www.cdisc.org/cosmos/sdtm_v1.0/LinkingPhraseEnum#is%20a%20dictionary-derived%20class%20code%20for%20the%20value%20in> ;
    cosmos_sdtm:object "CMTRT" ;
    cosmos_sdtm:predicateTerm <https://www.cdisc.org/cosmos/sdtm_v1.0/PredicateTermEnum#IS_DECODED_BY> ;
    cosmos_sdtm:subject "CMCLASCD" .

<https://w3id.org/cdisc/cosmos/dss/CM/CMPRESP/CMDECOD/relationship> a cosmos_sdtm:RelationShip ;
    cosmos_sdtm:linkingPhrase <https://www.cdisc.org/cosmos/sdtm_v1.0/LinkingPhraseEnum#is%20the%20dictionary-derived%20term%20for%20the%20value%20in> ;
    cosmos_sdtm:object "CMTRT" ;
    cosmos_sdtm:predicateTerm <https://www.cdisc.org/cosmos/sdtm_v1.0/PredicateTermEnum#DECODES> ;
    cosmos_sdtm:subject "CMDECOD" .

<https://w3id.org/cdisc/cosmos/dss/CM/CMPRESP/CMDOSE/relationship> a cosmos_sdtm:RelationShip ;
    cosmos_sdtm:linkingPhrase <https://www.cdisc.org/cosmos/sdtm_v1.0/LinkingPhraseEnum#is%20the%20administered%20amount%20of%20the%20treatment%20in> ;
    cosmos_sdtm:object "CMTRT" ;
    cosmos_sdtm:predicateTerm <https://www.cdisc.org/cosmos/sdtm_v1.0/PredicateTermEnum#IS_ATTRIBUTE_FOR> ;
    cosmos_sdtm:subject "CMDOSE" .

<https://w3id.org/cdisc/cosmos/dss/CM/CMPRESP/CMDOSFRM/relationship> a cosmos_sdtm:RelationShip ;
    cosmos_sdtm:linkingPhrase <https://www.cdisc.org/cosmos/sdtm_v1.0/LinkingPhraseEnum#is%20the%20physical%20form%20of%20the%20product%20in> ;
    cosmos_sdtm:object "CMTRT" ;
    cosmos_sdtm:predicateTerm <https://www.cdisc.org/cosmos/sdtm_v1.0/PredicateTermEnum#IS_ATTRIBUTE_FOR> ;
    cosmos_sdtm:subject "CMDOSFRM" .

<https://w3id.org/cdisc/cosmos/dss/CM/CMPRESP/CMDOSFRQ/relationship> a cosmos_sdtm:RelationShip ;
    cosmos_sdtm:linkingPhrase <https://www.cdisc.org/cosmos/sdtm_v1.0/LinkingPhraseEnum#is%20the%20frequency%20of%20administration%20of%20the%20amount%20in> ;
    cosmos_sdtm:object "CMDOSE" ;
    cosmos_sdtm:predicateTerm <https://www.cdisc.org/cosmos/sdtm_v1.0/PredicateTermEnum#SPECIFIES> ;
    cosmos_sdtm:subject "CMDOSFRQ" .

<https://w3id.org/cdisc/cosmos/dss/CM/CMPRESP/CMDOSTXT/relationship> a cosmos_sdtm:RelationShip ;
    cosmos_sdtm:linkingPhrase <https://www.cdisc.org/cosmos/sdtm_v1.0/LinkingPhraseEnum#is%20the%20administered%20amount%20of%20the%20treatment%20in> ;
    cosmos_sdtm:object "CMTRT" ;
    cosmos_sdtm:predicateTerm <https://www.cdisc.org/cosmos/sdtm_v1.0/PredicateTermEnum#IS_ATTRIBUTE_FOR> ;
    cosmos_sdtm:subject "CMDOSTXT" .

<https://w3id.org/cdisc/cosmos/dss/CM/CMPRESP/CMDOSU/relationship> a cosmos_sdtm:RelationShip ;
    cosmos_sdtm:linkingPhrase <https://www.cdisc.org/cosmos/sdtm_v1.0/LinkingPhraseEnum#is%20the%20unit%20for> ;
    cosmos_sdtm:object "CMDOSE" ;
    cosmos_sdtm:predicateTerm <https://www.cdisc.org/cosmos/sdtm_v1.0/PredicateTermEnum#IS_UNIT_FOR> ;
    cosmos_sdtm:subject "CMDOSU" .

<https://w3id.org/cdisc/cosmos/dss/CM/CMPRESP/CMENDTC/relationship> a cosmos_sdtm:RelationShip ;
    cosmos_sdtm:linkingPhrase <https://www.cdisc.org/cosmos/sdtm_v1.0/LinkingPhraseEnum#is%20the%20end%20date%20for> ;
    cosmos_sdtm:object "CMTRT" ;
    cosmos_sdtm:predicateTerm <https://www.cdisc.org/cosmos/sdtm_v1.0/PredicateTermEnum#IS_TIMING_FOR> ;
    cosmos_sdtm:subject "CMENDTC" .

<https://w3id.org/cdisc/cosmos/dss/CM/CMPRESP/CMINDC/relationship> a cosmos_sdtm:RelationShip ;
    cosmos_sdtm:linkingPhrase <https://www.cdisc.org/cosmos/sdtm_v1.0/LinkingPhraseEnum#is%20the%20medical%20condition%20that%20is%20the%20reason%20for%20the%20treatment%20in> ;
    cosmos_sdtm:object "CMTRT" ;
    cosmos_sdtm:predicateTerm <https://www.cdisc.org/cosmos/sdtm_v1.0/PredicateTermEnum#IS_REASON_FOR> ;
    cosmos_sdtm:subject "CMINDC" .

<https://w3id.org/cdisc/cosmos/dss/CM/CMPRESP/CMPRESP/relationship> a cosmos_sdtm:RelationShip ;
    cosmos_sdtm:linkingPhrase <https://www.cdisc.org/cosmos/sdtm_v1.0/LinkingPhraseEnum#indicates%20pre-specification%20of%20the%20value%20in> ;
    cosmos_sdtm:object "CMTRT" ;
    cosmos_sdtm:predicateTerm <https://www.cdisc.org/cosmos/sdtm_v1.0/PredicateTermEnum#IS_INDICATOR_FOR> ;
    cosmos_sdtm:subject "CMPRESP" .

<https://w3id.org/cdisc/cosmos/dss/CM/CMPRESP/CMROUTE/relationship> a cosmos_sdtm:RelationShip ;
    cosmos_sdtm:linkingPhrase <https://www.cdisc.org/cosmos/sdtm_v1.0/LinkingPhraseEnum#is%20the%20part%20of%20the%20body%20through%20which%20is%20administered%20the%20treatment%20in> ;
    cosmos_sdtm:object "CMTRT" ;
    cosmos_sdtm:predicateTerm <https://www.cdisc.org/cosmos/sdtm_v1.0/PredicateTermEnum#IS_ATTRIBUTE_FOR> ;
    cosmos_sdtm:subject "CMROUTE" .

<https://w3id.org/cdisc/cosmos/dss/CM/CMPRESP/CMSTDTC/relationship> a cosmos_sdtm:RelationShip ;
    cosmos_sdtm:linkingPhrase <https://www.cdisc.org/cosmos/sdtm_v1.0/LinkingPhraseEnum#is%20the%20start%20date%20for> ;
    cosmos_sdtm:object "CMTRT" ;
    cosmos_sdtm:predicateTerm <https://www.cdisc.org/cosmos/sdtm_v1.0/PredicateTermEnum#IS_TIMING_FOR> ;
    cosmos_sdtm:subject "CMSTDTC" .

<https://w3id.org/cdisc/cosmos/dss/CM/CMPRESP/CMTRT/relationship> a cosmos_sdtm:RelationShip ;
    cosmos_sdtm:linkingPhrase <https://www.cdisc.org/cosmos/sdtm_v1.0/LinkingPhraseEnum#is%20original%20text%20for> ;
    cosmos_sdtm:object "CMDECOD" ;
    cosmos_sdtm:predicateTerm <https://www.cdisc.org/cosmos/sdtm_v1.0/PredicateTermEnum#IS_ORIGINAL_TEXT_FOR> ;
    cosmos_sdtm:subject "CMTRT" .

<https://w3id.org/cdisc/cosmos/dss/CM/CMPRIORBREASTCANCER/CMCAT/assignedTerm> a cosmos_sdtm:AssignedTerm ;
    cosmos_sdtm:value "ANTI-CANCER THERAPY" .

<https://w3id.org/cdisc/cosmos/dss/CM/CMPRIORBREASTCANCER/CMCLAS/relationship> a cosmos_sdtm:RelationShip ;
    cosmos_sdtm:linkingPhrase <https://www.cdisc.org/cosmos/sdtm_v1.0/LinkingPhraseEnum#is%20the%20dictionary-derived%20class%20name%20for%20the%20value%20in> ;
    cosmos_sdtm:object "CMTRT" ;
    cosmos_sdtm:predicateTerm <https://www.cdisc.org/cosmos/sdtm_v1.0/PredicateTermEnum#IS_DERIVED_FROM> ;
    cosmos_sdtm:subject "CMCLAS" .

<https://w3id.org/cdisc/cosmos/dss/CM/CMPRIORBREASTCANCER/CMCLASCD/relationship> a cosmos_sdtm:RelationShip ;
    cosmos_sdtm:linkingPhrase <https://www.cdisc.org/cosmos/sdtm_v1.0/LinkingPhraseEnum#is%20the%20dictionary-derived%20class%20code%20for%20the%20value%20in> ;
    cosmos_sdtm:object "CMTRT" ;
    cosmos_sdtm:predicateTerm <https://www.cdisc.org/cosmos/sdtm_v1.0/PredicateTermEnum#IS_DECODED_BY> ;
    cosmos_sdtm:subject "CMCLASCD" .

<https://w3id.org/cdisc/cosmos/dss/CM/CMPRIORBREASTCANCER/CMDECOD/relationship> a cosmos_sdtm:RelationShip ;
    cosmos_sdtm:linkingPhrase <https://www.cdisc.org/cosmos/sdtm_v1.0/LinkingPhraseEnum#is%20the%20dictionary-derived%20term%20for%20the%20value%20in> ;
    cosmos_sdtm:object "CMTRT" ;
    cosmos_sdtm:predicateTerm <https://www.cdisc.org/cosmos/sdtm_v1.0/PredicateTermEnum#DECODES> ;
    cosmos_sdtm:subject "CMDECOD" .

<https://w3id.org/cdisc/cosmos/dss/CM/CMPRIORBREASTCANCER/CMDOSE/relationship> a cosmos_sdtm:RelationShip ;
    cosmos_sdtm:linkingPhrase <https://www.cdisc.org/cosmos/sdtm_v1.0/LinkingPhraseEnum#is%20the%20administered%20amount%20of%20the%20treatment%20in> ;
    cosmos_sdtm:object "CMTRT" ;
    cosmos_sdtm:predicateTerm <https://www.cdisc.org/cosmos/sdtm_v1.0/PredicateTermEnum#IS_ATTRIBUTE_FOR> ;
    cosmos_sdtm:subject "CMDOSE" .

<https://w3id.org/cdisc/cosmos/dss/CM/CMPRIORBREASTCANCER/CMDOSFRM/relationship> a cosmos_sdtm:RelationShip ;
    cosmos_sdtm:linkingPhrase <https://www.cdisc.org/cosmos/sdtm_v1.0/LinkingPhraseEnum#is%20the%20physical%20form%20of%20the%20product%20in> ;
    cosmos_sdtm:object "CMTRT" ;
    cosmos_sdtm:predicateTerm <https://www.cdisc.org/cosmos/sdtm_v1.0/PredicateTermEnum#IS_ATTRIBUTE_FOR> ;
    cosmos_sdtm:subject "CMDOSFRM" .

<https://w3id.org/cdisc/cosmos/dss/CM/CMPRIORBREASTCANCER/CMDOSFRQ/relationship> a cosmos_sdtm:RelationShip ;
    cosmos_sdtm:linkingPhrase <https://www.cdisc.org/cosmos/sdtm_v1.0/LinkingPhraseEnum#is%20the%20frequency%20of%20administration%20of%20the%20amount%20in> ;
    cosmos_sdtm:object "CMDOSE" ;
    cosmos_sdtm:predicateTerm <https://www.cdisc.org/cosmos/sdtm_v1.0/PredicateTermEnum#SPECIFIES> ;
    cosmos_sdtm:subject "CMDOSFRQ" .

<https://w3id.org/cdisc/cosmos/dss/CM/CMPRIORBREASTCANCER/CMDOSRGM/relationship> a cosmos_sdtm:RelationShip ;
    cosmos_sdtm:linkingPhrase <https://www.cdisc.org/cosmos/sdtm_v1.0/LinkingPhraseEnum#is%20the%20textual%20description%20of%20the%20intended%20dose%20regimen%20for> ;
    cosmos_sdtm:object "CMTRT" ;
    cosmos_sdtm:predicateTerm <https://www.cdisc.org/cosmos/sdtm_v1.0/PredicateTermEnum#IS_ATTRIBUTE_FOR> ;
    cosmos_sdtm:subject "CMDOSRGM" .

<https://w3id.org/cdisc/cosmos/dss/CM/CMPRIORBREASTCANCER/CMDOSU/relationship> a cosmos_sdtm:RelationShip ;
    cosmos_sdtm:linkingPhrase <https://www.cdisc.org/cosmos/sdtm_v1.0/LinkingPhraseEnum#is%20the%20unit%20for> ;
    cosmos_sdtm:object "CMDOSE" ;
    cosmos_sdtm:predicateTerm <https://www.cdisc.org/cosmos/sdtm_v1.0/PredicateTermEnum#IS_UNIT_FOR> ;
    cosmos_sdtm:subject "CMDOSU" .

<https://w3id.org/cdisc/cosmos/dss/CM/CMPRIORBREASTCANCER/CMENDTC/relationship> a cosmos_sdtm:RelationShip ;
    cosmos_sdtm:linkingPhrase <https://www.cdisc.org/cosmos/sdtm_v1.0/LinkingPhraseEnum#is%20the%20end%20date%20for> ;
    cosmos_sdtm:object "CMTRT" ;
    cosmos_sdtm:predicateTerm <https://www.cdisc.org/cosmos/sdtm_v1.0/PredicateTermEnum#IS_TIMING_FOR> ;
    cosmos_sdtm:subject "CMENDTC" .

<https://w3id.org/cdisc/cosmos/dss/CM/CMPRIORBREASTCANCER/CMENRF/assignedTerm> a cosmos_sdtm:AssignedTerm ;
    cosmos_sdtm:conceptId NCIT:C25629 ;
    cosmos_sdtm:value "BEFORE" .

<https://w3id.org/cdisc/cosmos/dss/CM/CMPRIORBREASTCANCER/CMENRTPT/assignedTerm> a cosmos_sdtm:AssignedTerm ;
    cosmos_sdtm:conceptId NCIT:C25629 ;
    cosmos_sdtm:value "BEFORE" .

<https://w3id.org/cdisc/cosmos/dss/CM/CMPRIORBREASTCANCER/CMGRPID/relationship> a cosmos_sdtm:RelationShip ;
    cosmos_sdtm:linkingPhrase <https://www.cdisc.org/cosmos/sdtm_v1.0/LinkingPhraseEnum#groups%2C%20within%20an%20individual%20subject%2C%20values%20in> ;
    cosmos_sdtm:object "CMTRT" ;
    cosmos_sdtm:predicateTerm <https://www.cdisc.org/cosmos/sdtm_v1.0/PredicateTermEnum#GROUPS> ;
    cosmos_sdtm:subject "CMGRPID" .

<https://w3id.org/cdisc/cosmos/dss/CM/CMPRIORBREASTCANCER/CMINDC/assignedTerm> a cosmos_sdtm:AssignedTerm ;
    cosmos_sdtm:value "BREAST CANCER" .

<https://w3id.org/cdisc/cosmos/dss/CM/CMPRIORBREASTCANCER/CMINDC/relationship> a cosmos_sdtm:RelationShip ;
    cosmos_sdtm:linkingPhrase <https://www.cdisc.org/cosmos/sdtm_v1.0/LinkingPhraseEnum#is%20the%20medical%20condition%20that%20is%20the%20reason%20for%20the%20treatment%20in> ;
    cosmos_sdtm:object "CMTRT" ;
    cosmos_sdtm:predicateTerm <https://www.cdisc.org/cosmos/sdtm_v1.0/PredicateTermEnum#IS_REASON_FOR> ;
    cosmos_sdtm:subject "CMINDC" .

<https://w3id.org/cdisc/cosmos/dss/CM/CMPRIORBREASTCANCER/CMOCCUR/relationship> a cosmos_sdtm:RelationShip ;
    cosmos_sdtm:linkingPhrase <https://www.cdisc.org/cosmos/sdtm_v1.0/LinkingPhraseEnum#indicates%20occurrence%20of%20the%20value%20in> ;
    cosmos_sdtm:object "CMTRT" ;
    cosmos_sdtm:predicateTerm <https://www.cdisc.org/cosmos/sdtm_v1.0/PredicateTermEnum#IS_INDICATOR_FOR> ;
    cosmos_sdtm:subject "CMOCCUR" .

<https://w3id.org/cdisc/cosmos/dss/CM/CMPRIORBREASTCANCER/CMPRESP/relationship> a cosmos_sdtm:RelationShip ;
    cosmos_sdtm:linkingPhrase <https://www.cdisc.org/cosmos/sdtm_v1.0/LinkingPhraseEnum#indicates%20pre-specification%20of%20the%20value%20in> ;
    cosmos_sdtm:object "CMTRT" ;
    cosmos_sdtm:predicateTerm <https://www.cdisc.org/cosmos/sdtm_v1.0/PredicateTermEnum#IS_INDICATOR_FOR> ;
    cosmos_sdtm:subject "CMPRESP" .

<https://w3id.org/cdisc/cosmos/dss/CM/CMPRIORBREASTCANCER/CMROUTE/relationship> a cosmos_sdtm:RelationShip ;
    cosmos_sdtm:linkingPhrase <https://www.cdisc.org/cosmos/sdtm_v1.0/LinkingPhraseEnum#is%20the%20part%20of%20the%20body%20through%20which%20is%20administered%20the%20treatment%20in> ;
    cosmos_sdtm:object "CMTRT" ;
    cosmos_sdtm:predicateTerm <https://www.cdisc.org/cosmos/sdtm_v1.0/PredicateTermEnum#IS_ATTRIBUTE_FOR> ;
    cosmos_sdtm:subject "CMROUTE" .

<https://w3id.org/cdisc/cosmos/dss/CM/CMPRIORBREASTCANCER/CMRSDISC/relationship> a cosmos_sdtm:RelationShip ;
    cosmos_sdtm:linkingPhrase <https://www.cdisc.org/cosmos/sdtm_v1.0/LinkingPhraseEnum#is%20the%20medical%20condition%20that%20is%20the%20reason%20for%20the%20treatment%20in> ;
    cosmos_sdtm:object "CMTRT" ;
    cosmos_sdtm:predicateTerm <https://www.cdisc.org/cosmos/sdtm_v1.0/PredicateTermEnum#IS_REASON_FOR> ;
    cosmos_sdtm:subject "CMRSDISC" .

<https://w3id.org/cdisc/cosmos/dss/CM/CMPRIORBREASTCANCER/CMSTDTC/relationship> a cosmos_sdtm:RelationShip ;
    cosmos_sdtm:linkingPhrase <https://www.cdisc.org/cosmos/sdtm_v1.0/LinkingPhraseEnum#is%20the%20start%20date%20for> ;
    cosmos_sdtm:object "CMTRT" ;
    cosmos_sdtm:predicateTerm <https://www.cdisc.org/cosmos/sdtm_v1.0/PredicateTermEnum#IS_TIMING_FOR> ;
    cosmos_sdtm:subject "CMSTDTC" .

<https://w3id.org/cdisc/cosmos/dss/CM/CMPRIORBREASTCANCER/CMTRT/relationship> a cosmos_sdtm:RelationShip ;
    cosmos_sdtm:linkingPhrase <https://www.cdisc.org/cosmos/sdtm_v1.0/LinkingPhraseEnum#is%20original%20text%20for> ;
    cosmos_sdtm:object "CMDECOD" ;
    cosmos_sdtm:predicateTerm <https://www.cdisc.org/cosmos/sdtm_v1.0/PredicateTermEnum#IS_ORIGINAL_TEXT_FOR> ;
    cosmos_sdtm:subject "CMTRT" .

<https://w3id.org/cdisc/cosmos/dss/CM/CMPRIORBREASTCANCER/CMTRTINT/relationship> a cosmos_sdtm:RelationShip ;
    cosmos_sdtm:linkingPhrase <https://www.cdisc.org/cosmos/sdtm_v1.0/LinkingPhraseEnum#is%20the%20intended%20disease%20outcome%20for> ;
    cosmos_sdtm:object "CMTRT" ;
    cosmos_sdtm:predicateTerm <https://www.cdisc.org/cosmos/sdtm_v1.0/PredicateTermEnum#QUALIFIES> ;
    cosmos_sdtm:subject "CMTRTINT" .

<https://w3id.org/cdisc/cosmos/dss/CM/CMPRIORBREASTCANCER/CMTRTSTT/relationship> a cosmos_sdtm:RelationShip ;
    cosmos_sdtm:linkingPhrase <https://www.cdisc.org/cosmos/sdtm_v1.0/LinkingPhraseEnum#is%20the%20clinical%20trial%20or%20treatment%20setting%20for> ;
    cosmos_sdtm:object "CMTRT" ;
    cosmos_sdtm:predicateTerm <https://www.cdisc.org/cosmos/sdtm_v1.0/PredicateTermEnum#QUALIFIES> ;
    cosmos_sdtm:subject "CMTRTSTT" .

<https://w3id.org/cdisc/cosmos/dss/CM/CMPRIORCANCER/CMCAT/assignedTerm> a cosmos_sdtm:AssignedTerm ;
    cosmos_sdtm:value "ANTI-CANCER THERAPY" .

<https://w3id.org/cdisc/cosmos/dss/CM/CMPRIORCANCER/CMCLAS/relationship> a cosmos_sdtm:RelationShip ;
    cosmos_sdtm:linkingPhrase <https://www.cdisc.org/cosmos/sdtm_v1.0/LinkingPhraseEnum#is%20the%20dictionary-derived%20class%20name%20for%20the%20value%20in> ;
    cosmos_sdtm:object "CMTRT" ;
    cosmos_sdtm:predicateTerm <https://www.cdisc.org/cosmos/sdtm_v1.0/PredicateTermEnum#IS_DERIVED_FROM> ;
    cosmos_sdtm:subject "CMCLAS" .

<https://w3id.org/cdisc/cosmos/dss/CM/CMPRIORCANCER/CMCLASCD/relationship> a cosmos_sdtm:RelationShip ;
    cosmos_sdtm:linkingPhrase <https://www.cdisc.org/cosmos/sdtm_v1.0/LinkingPhraseEnum#is%20the%20dictionary-derived%20class%20code%20for%20the%20value%20in> ;
    cosmos_sdtm:object "CMTRT" ;
    cosmos_sdtm:predicateTerm <https://www.cdisc.org/cosmos/sdtm_v1.0/PredicateTermEnum#IS_DECODED_BY> ;
    cosmos_sdtm:subject "CMCLASCD" .

<https://w3id.org/cdisc/cosmos/dss/CM/CMPRIORCANCER/CMDECOD/relationship> a cosmos_sdtm:RelationShip ;
    cosmos_sdtm:linkingPhrase <https://www.cdisc.org/cosmos/sdtm_v1.0/LinkingPhraseEnum#is%20the%20dictionary-derived%20term%20for%20the%20value%20in> ;
    cosmos_sdtm:object "CMTRT" ;
    cosmos_sdtm:predicateTerm <https://www.cdisc.org/cosmos/sdtm_v1.0/PredicateTermEnum#DECODES> ;
    cosmos_sdtm:subject "CMDECOD" .

<https://w3id.org/cdisc/cosmos/dss/CM/CMPRIORCANCER/CMDOSE/relationship> a cosmos_sdtm:RelationShip ;
    cosmos_sdtm:linkingPhrase <https://www.cdisc.org/cosmos/sdtm_v1.0/LinkingPhraseEnum#is%20the%20administered%20amount%20of%20the%20treatment%20in> ;
    cosmos_sdtm:object "CMTRT" ;
    cosmos_sdtm:predicateTerm <https://www.cdisc.org/cosmos/sdtm_v1.0/PredicateTermEnum#IS_ATTRIBUTE_FOR> ;
    cosmos_sdtm:subject "CMDOSE" .

<https://w3id.org/cdisc/cosmos/dss/CM/CMPRIORCANCER/CMDOSFRM/relationship> a cosmos_sdtm:RelationShip ;
    cosmos_sdtm:linkingPhrase <https://www.cdisc.org/cosmos/sdtm_v1.0/LinkingPhraseEnum#is%20the%20physical%20form%20of%20the%20product%20in> ;
    cosmos_sdtm:object "CMTRT" ;
    cosmos_sdtm:predicateTerm <https://www.cdisc.org/cosmos/sdtm_v1.0/PredicateTermEnum#IS_ATTRIBUTE_FOR> ;
    cosmos_sdtm:subject "CMDOSFRM" .

<https://w3id.org/cdisc/cosmos/dss/CM/CMPRIORCANCER/CMDOSFRQ/relationship> a cosmos_sdtm:RelationShip ;
    cosmos_sdtm:linkingPhrase <https://www.cdisc.org/cosmos/sdtm_v1.0/LinkingPhraseEnum#is%20the%20frequency%20of%20administration%20of%20the%20amount%20in> ;
    cosmos_sdtm:object "CMDOSE" ;
    cosmos_sdtm:predicateTerm <https://www.cdisc.org/cosmos/sdtm_v1.0/PredicateTermEnum#SPECIFIES> ;
    cosmos_sdtm:subject "CMDOSFRQ" .

<https://w3id.org/cdisc/cosmos/dss/CM/CMPRIORCANCER/CMDOSRGM/relationship> a cosmos_sdtm:RelationShip ;
    cosmos_sdtm:linkingPhrase <https://www.cdisc.org/cosmos/sdtm_v1.0/LinkingPhraseEnum#is%20the%20textual%20description%20of%20the%20intended%20dose%20regimen%20for> ;
    cosmos_sdtm:object "CMTRT" ;
    cosmos_sdtm:predicateTerm <https://www.cdisc.org/cosmos/sdtm_v1.0/PredicateTermEnum#IS_ATTRIBUTE_FOR> ;
    cosmos_sdtm:subject "CMDOSRGM" .

<https://w3id.org/cdisc/cosmos/dss/CM/CMPRIORCANCER/CMDOSU/relationship> a cosmos_sdtm:RelationShip ;
    cosmos_sdtm:linkingPhrase <https://www.cdisc.org/cosmos/sdtm_v1.0/LinkingPhraseEnum#is%20the%20unit%20for> ;
    cosmos_sdtm:object "CMDOSE" ;
    cosmos_sdtm:predicateTerm <https://www.cdisc.org/cosmos/sdtm_v1.0/PredicateTermEnum#IS_UNIT_FOR> ;
    cosmos_sdtm:subject "CMDOSU" .

<https://w3id.org/cdisc/cosmos/dss/CM/CMPRIORCANCER/CMENDTC/relationship> a cosmos_sdtm:RelationShip ;
    cosmos_sdtm:linkingPhrase <https://www.cdisc.org/cosmos/sdtm_v1.0/LinkingPhraseEnum#is%20the%20end%20date%20for> ;
    cosmos_sdtm:object "CMTRT" ;
    cosmos_sdtm:predicateTerm <https://www.cdisc.org/cosmos/sdtm_v1.0/PredicateTermEnum#IS_TIMING_FOR> ;
    cosmos_sdtm:subject "CMENDTC" .

<https://w3id.org/cdisc/cosmos/dss/CM/CMPRIORCANCER/CMGRPID/relationship> a cosmos_sdtm:RelationShip ;
    cosmos_sdtm:linkingPhrase <https://www.cdisc.org/cosmos/sdtm_v1.0/LinkingPhraseEnum#groups%2C%20within%20an%20individual%20subject%2C%20values%20in> ;
    cosmos_sdtm:object "CMTRT" ;
    cosmos_sdtm:predicateTerm <https://www.cdisc.org/cosmos/sdtm_v1.0/PredicateTermEnum#GROUPS> ;
    cosmos_sdtm:subject "CMGRPID" .

<https://w3id.org/cdisc/cosmos/dss/CM/CMPRIORCANCER/CMINDC/relationship> a cosmos_sdtm:RelationShip ;
    cosmos_sdtm:linkingPhrase <https://www.cdisc.org/cosmos/sdtm_v1.0/LinkingPhraseEnum#is%20the%20medical%20condition%20that%20is%20the%20reason%20for%20the%20treatment%20in> ;
    cosmos_sdtm:object "CMTRT" ;
    cosmos_sdtm:predicateTerm <https://www.cdisc.org/cosmos/sdtm_v1.0/PredicateTermEnum#IS_REASON_FOR> ;
    cosmos_sdtm:subject "CMINDC" .

<https://w3id.org/cdisc/cosmos/dss/CM/CMPRIORCANCER/CMOCCUR/relationship> a cosmos_sdtm:RelationShip ;
    cosmos_sdtm:linkingPhrase <https://www.cdisc.org/cosmos/sdtm_v1.0/LinkingPhraseEnum#indicates%20occurrence%20of%20the%20value%20in> ;
    cosmos_sdtm:object "CMTRT" ;
    cosmos_sdtm:predicateTerm <https://www.cdisc.org/cosmos/sdtm_v1.0/PredicateTermEnum#IS_INDICATOR_FOR> ;
    cosmos_sdtm:subject "CMOCCUR" .

<https://w3id.org/cdisc/cosmos/dss/CM/CMPRIORCANCER/CMPRESP/relationship> a cosmos_sdtm:RelationShip ;
    cosmos_sdtm:linkingPhrase <https://www.cdisc.org/cosmos/sdtm_v1.0/LinkingPhraseEnum#indicates%20pre-specification%20of%20the%20value%20in> ;
    cosmos_sdtm:object "CMTRT" ;
    cosmos_sdtm:predicateTerm <https://www.cdisc.org/cosmos/sdtm_v1.0/PredicateTermEnum#IS_INDICATOR_FOR> ;
    cosmos_sdtm:subject "CMPRESP" .

<https://w3id.org/cdisc/cosmos/dss/CM/CMPRIORCANCER/CMROUTE/relationship> a cosmos_sdtm:RelationShip ;
    cosmos_sdtm:linkingPhrase <https://www.cdisc.org/cosmos/sdtm_v1.0/LinkingPhraseEnum#is%20the%20part%20of%20the%20body%20through%20which%20is%20administered%20the%20treatment%20in> ;
    cosmos_sdtm:object "CMTRT" ;
    cosmos_sdtm:predicateTerm <https://www.cdisc.org/cosmos/sdtm_v1.0/PredicateTermEnum#IS_ATTRIBUTE_FOR> ;
    cosmos_sdtm:subject "CMROUTE" .

<https://w3id.org/cdisc/cosmos/dss/CM/CMPRIORCANCER/CMRSDISC/relationship> a cosmos_sdtm:RelationShip ;
    cosmos_sdtm:linkingPhrase <https://www.cdisc.org/cosmos/sdtm_v1.0/LinkingPhraseEnum#is%20the%20medical%20condition%20that%20is%20the%20reason%20for%20the%20treatment%20in> ;
    cosmos_sdtm:object "CMTRT" ;
    cosmos_sdtm:predicateTerm <https://www.cdisc.org/cosmos/sdtm_v1.0/PredicateTermEnum#IS_REASON_FOR> ;
    cosmos_sdtm:subject "CMRSDISC" .

<https://w3id.org/cdisc/cosmos/dss/CM/CMPRIORCANCER/CMSCAT/assignedTerm> a cosmos_sdtm:AssignedTerm ;
    cosmos_sdtm:value "PRIOR" .

<https://w3id.org/cdisc/cosmos/dss/CM/CMPRIORCANCER/CMSTDTC/relationship> a cosmos_sdtm:RelationShip ;
    cosmos_sdtm:linkingPhrase <https://www.cdisc.org/cosmos/sdtm_v1.0/LinkingPhraseEnum#is%20the%20start%20date%20for> ;
    cosmos_sdtm:object "CMTRT" ;
    cosmos_sdtm:predicateTerm <https://www.cdisc.org/cosmos/sdtm_v1.0/PredicateTermEnum#IS_TIMING_FOR> ;
    cosmos_sdtm:subject "CMSTDTC" .

<https://w3id.org/cdisc/cosmos/dss/CM/CMPRIORCANCER/CMTRT/relationship> a cosmos_sdtm:RelationShip ;
    cosmos_sdtm:linkingPhrase <https://www.cdisc.org/cosmos/sdtm_v1.0/LinkingPhraseEnum#is%20original%20text%20for> ;
    cosmos_sdtm:object "CMDECOD" ;
    cosmos_sdtm:predicateTerm <https://www.cdisc.org/cosmos/sdtm_v1.0/PredicateTermEnum#IS_ORIGINAL_TEXT_FOR> ;
    cosmos_sdtm:subject "CMTRT" .

<https://w3id.org/cdisc/cosmos/dss/CM/CMPRIORCANCER/CMTRTINT/relationship> a cosmos_sdtm:RelationShip ;
    cosmos_sdtm:linkingPhrase <https://www.cdisc.org/cosmos/sdtm_v1.0/LinkingPhraseEnum#is%20the%20intended%20disease%20outcome%20for> ;
    cosmos_sdtm:object "CMTRT" ;
    cosmos_sdtm:predicateTerm <https://www.cdisc.org/cosmos/sdtm_v1.0/PredicateTermEnum#QUALIFIES> ;
    cosmos_sdtm:subject "CMTRTINT" .

<https://w3id.org/cdisc/cosmos/dss/CM/CMPRIORCANCER/CMTRTSTT/relationship> a cosmos_sdtm:RelationShip ;
    cosmos_sdtm:linkingPhrase <https://www.cdisc.org/cosmos/sdtm_v1.0/LinkingPhraseEnum#is%20the%20clinical%20trial%20or%20treatment%20setting%20for> ;
    cosmos_sdtm:object "CMTRT" ;
    cosmos_sdtm:predicateTerm <https://www.cdisc.org/cosmos/sdtm_v1.0/PredicateTermEnum#QUALIFIES> ;
    cosmos_sdtm:subject "CMTRTSTT" .

NCIT:C124307 a cosmos_sdtm:CodeList ;
    dcterms:identifier "C124307" ;
    skos:exactMatch <http://ncicb.nci.nih.gov/xml/owl/EVS/Thesaurus.owl#C124307> ;
    cosmos_sdtm:submissionValue "TRTINTNT" .

NCIT:C124308 a cosmos_sdtm:CodeList ;
    dcterms:identifier "C124308" ;
    skos:exactMatch <http://ncicb.nci.nih.gov/xml/owl/EVS/Thesaurus.owl#C124308> ;
    cosmos_sdtm:submissionValue "TRTSET" .

<https://w3id.org/cdisc/cosmos/dss/CM/CMFREE/CMCAT> a cosmos_sdtm:SDTMVariable ;
    cosmos_sdtm:dataElementConceptId NCIT:C25372 ;
    cosmos_sdtm:dataType <https://www.cdisc.org/cosmos/sdtm_v1.0/SDTMVariableDataTypeEnum#text> ;
    cosmos_sdtm:isNonStandard false ;
    cosmos_sdtm:length 200 ;
    cosmos_sdtm:mandatoryValue false ;
    cosmos_sdtm:mandatoryVariable false ;
    cosmos_sdtm:name "CMCAT" ;
    cosmos_sdtm:originSource NCIT:C70793 ;
    cosmos_sdtm:originType NCIT:C170547 ;
    cosmos_sdtm:role <https://www.cdisc.org/cosmos/sdtm_v1.0/RoleEnum#Qualifier> .

<https://w3id.org/cdisc/cosmos/dss/CM/CMFREE/CMCLAS> a cosmos_sdtm:SDTMVariable ;
    cosmos_sdtm:dataElementConceptId NCIT:C83219 ;
    cosmos_sdtm:dataType <https://www.cdisc.org/cosmos/sdtm_v1.0/SDTMVariableDataTypeEnum#text> ;
    cosmos_sdtm:isNonStandard false ;
    cosmos_sdtm:length 200 ;
    cosmos_sdtm:mandatoryValue false ;
    cosmos_sdtm:mandatoryVariable false ;
    cosmos_sdtm:name "CMCLAS" ;
    cosmos_sdtm:originSource NCIT:C70793 ;
    cosmos_sdtm:originType NCIT:C170547 ;
    cosmos_sdtm:relationship <https://w3id.org/cdisc/cosmos/dss/CM/CMFREE/CMCLAS/relationship> ;
    cosmos_sdtm:role <https://www.cdisc.org/cosmos/sdtm_v1.0/RoleEnum#Qualifier> .

<https://w3id.org/cdisc/cosmos/dss/CM/CMFREE/CMCLASCD> a cosmos_sdtm:SDTMVariable ;
    cosmos_sdtm:dataElementConceptId NCIT:C83219 ;
    cosmos_sdtm:dataType <https://www.cdisc.org/cosmos/sdtm_v1.0/SDTMVariableDataTypeEnum#text> ;
    cosmos_sdtm:isNonStandard false ;
    cosmos_sdtm:length 200 ;
    cosmos_sdtm:mandatoryValue false ;
    cosmos_sdtm:mandatoryVariable false ;
    cosmos_sdtm:name "CMCLASCD" ;
    cosmos_sdtm:originSource NCIT:C70793 ;
    cosmos_sdtm:originType NCIT:C170547 ;
    cosmos_sdtm:relationship <https://w3id.org/cdisc/cosmos/dss/CM/CMFREE/CMCLASCD/relationship> ;
    cosmos_sdtm:role <https://www.cdisc.org/cosmos/sdtm_v1.0/RoleEnum#Qualifier> .

<https://w3id.org/cdisc/cosmos/dss/CM/CMFREE/CMDECOD> a cosmos_sdtm:SDTMVariable ;
    cosmos_sdtm:dataElementConceptId NCIT:C83345 ;
    cosmos_sdtm:dataType <https://www.cdisc.org/cosmos/sdtm_v1.0/SDTMVariableDataTypeEnum#text> ;
    cosmos_sdtm:isNonStandard false ;
    cosmos_sdtm:length 200 ;
    cosmos_sdtm:mandatoryValue false ;
    cosmos_sdtm:mandatoryVariable true ;
    cosmos_sdtm:name "CMDECOD" ;
    cosmos_sdtm:originSource NCIT:C70793 ;
    cosmos_sdtm:originType NCIT:C170547 ;
    cosmos_sdtm:relationship <https://w3id.org/cdisc/cosmos/dss/CM/CMFREE/CMDECOD/relationship> ;
    cosmos_sdtm:role <https://www.cdisc.org/cosmos/sdtm_v1.0/RoleEnum#Qualifier> .

<https://w3id.org/cdisc/cosmos/dss/CM/CMFREE/CMDOSE> a cosmos_sdtm:SDTMVariable ;
    cosmos_sdtm:dataElementConceptId NCIT:C83221 ;
    cosmos_sdtm:dataType <https://www.cdisc.org/cosmos/sdtm_v1.0/SDTMVariableDataTypeEnum#float> ;
    cosmos_sdtm:format "8.3" ;
    cosmos_sdtm:isNonStandard false ;
    cosmos_sdtm:length 8 ;
    cosmos_sdtm:mandatoryValue false ;
    cosmos_sdtm:mandatoryVariable false ;
    cosmos_sdtm:name "CMDOSE" ;
    cosmos_sdtm:originSource NCIT:C25936 ;
    cosmos_sdtm:originType NCIT:C170548 ;
    cosmos_sdtm:relationship <https://w3id.org/cdisc/cosmos/dss/CM/CMFREE/CMDOSE/relationship> ;
    cosmos_sdtm:role <https://www.cdisc.org/cosmos/sdtm_v1.0/RoleEnum#Qualifier> ;
    cosmos_sdtm:significantDigits 3 .

<https://w3id.org/cdisc/cosmos/dss/CM/CMFREE/CMDOSFRM> a cosmos_sdtm:SDTMVariable ;
    cosmos_sdtm:codelist NCIT:C66726 ;
    cosmos_sdtm:dataElementConceptId NCIT:C83110 ;
    cosmos_sdtm:dataType <https://www.cdisc.org/cosmos/sdtm_v1.0/SDTMVariableDataTypeEnum#text> ;
    cosmos_sdtm:isNonStandard false ;
    cosmos_sdtm:length 40 ;
    cosmos_sdtm:mandatoryValue false ;
    cosmos_sdtm:mandatoryVariable false ;
    cosmos_sdtm:name "CMDOSFRM" ;
    cosmos_sdtm:originSource NCIT:C25936 ;
    cosmos_sdtm:originType NCIT:C170548 ;
    cosmos_sdtm:relationship <https://w3id.org/cdisc/cosmos/dss/CM/CMFREE/CMDOSFRM/relationship> ;
    cosmos_sdtm:role <https://www.cdisc.org/cosmos/sdtm_v1.0/RoleEnum#Qualifier> .

<https://w3id.org/cdisc/cosmos/dss/CM/CMFREE/CMDOSFRQ> a cosmos_sdtm:SDTMVariable ;
    cosmos_sdtm:codelist NCIT:C71113 ;
    cosmos_sdtm:dataElementConceptId NCIT:C83042 ;
    cosmos_sdtm:dataType <https://www.cdisc.org/cosmos/sdtm_v1.0/SDTMVariableDataTypeEnum#text> ;
    cosmos_sdtm:isNonStandard false ;
    cosmos_sdtm:length 40 ;
    cosmos_sdtm:mandatoryValue false ;
    cosmos_sdtm:mandatoryVariable false ;
    cosmos_sdtm:name "CMDOSFRQ" ;
    cosmos_sdtm:originSource NCIT:C25936 ;
    cosmos_sdtm:originType NCIT:C170548 ;
    cosmos_sdtm:relationship <https://w3id.org/cdisc/cosmos/dss/CM/CMFREE/CMDOSFRQ/relationship> ;
    cosmos_sdtm:role <https://www.cdisc.org/cosmos/sdtm_v1.0/RoleEnum#Qualifier> .

<https://w3id.org/cdisc/cosmos/dss/CM/CMFREE/CMDOSTXT> a cosmos_sdtm:SDTMVariable ;
    cosmos_sdtm:dataElementConceptId NCIT:C83221 ;
    cosmos_sdtm:dataType <https://www.cdisc.org/cosmos/sdtm_v1.0/SDTMVariableDataTypeEnum#text> ;
    cosmos_sdtm:isNonStandard false ;
    cosmos_sdtm:length 40 ;
    cosmos_sdtm:mandatoryValue false ;
    cosmos_sdtm:mandatoryVariable false ;
    cosmos_sdtm:name "CMDOSTXT" ;
    cosmos_sdtm:originSource NCIT:C25936 ;
    cosmos_sdtm:originType NCIT:C170548 ;
    cosmos_sdtm:relationship <https://w3id.org/cdisc/cosmos/dss/CM/CMFREE/CMDOSTXT/relationship> ;
    cosmos_sdtm:role <https://www.cdisc.org/cosmos/sdtm_v1.0/RoleEnum#Qualifier> .

<https://w3id.org/cdisc/cosmos/dss/CM/CMFREE/CMDOSU> a cosmos_sdtm:SDTMVariable ;
    cosmos_sdtm:codelist NCIT:C71620 ;
    cosmos_sdtm:dataElementConceptId NCIT:C83034 ;
    cosmos_sdtm:dataType <https://www.cdisc.org/cosmos/sdtm_v1.0/SDTMVariableDataTypeEnum#text> ;
    cosmos_sdtm:isNonStandard false ;
    cosmos_sdtm:length 40 ;
    cosmos_sdtm:mandatoryValue false ;
    cosmos_sdtm:mandatoryVariable false ;
    cosmos_sdtm:name "CMDOSU" ;
    cosmos_sdtm:originSource NCIT:C25936 ;
    cosmos_sdtm:originType NCIT:C170548 ;
    cosmos_sdtm:relationship <https://w3id.org/cdisc/cosmos/dss/CM/CMFREE/CMDOSU/relationship> ;
    cosmos_sdtm:role <https://www.cdisc.org/cosmos/sdtm_v1.0/RoleEnum#Qualifier> .

<https://w3id.org/cdisc/cosmos/dss/CM/CMFREE/CMENDTC> a cosmos_sdtm:SDTMVariable ;
    cosmos_sdtm:dataElementConceptId NCIT:C83225 ;
    cosmos_sdtm:dataType <https://www.cdisc.org/cosmos/sdtm_v1.0/SDTMVariableDataTypeEnum#datetime> ;
    cosmos_sdtm:isNonStandard false ;
    cosmos_sdtm:mandatoryValue false ;
    cosmos_sdtm:mandatoryVariable false ;
    cosmos_sdtm:name "CMENDTC" ;
    cosmos_sdtm:originSource NCIT:C25936 ;
    cosmos_sdtm:originType NCIT:C170548 ;
    cosmos_sdtm:relationship <https://w3id.org/cdisc/cosmos/dss/CM/CMFREE/CMENDTC/relationship> ;
    cosmos_sdtm:role <https://www.cdisc.org/cosmos/sdtm_v1.0/RoleEnum#Timing> .

<https://w3id.org/cdisc/cosmos/dss/CM/CMFREE/CMENRF> a cosmos_sdtm:SDTMVariable ;
    cosmos_sdtm:codelist NCIT:C66728 ;
    cosmos_sdtm:dataElementConceptId NCIT:C82557 ;
    cosmos_sdtm:dataType <https://www.cdisc.org/cosmos/sdtm_v1.0/SDTMVariableDataTypeEnum#text> ;
    cosmos_sdtm:isNonStandard false ;
    cosmos_sdtm:length 20 ;
    cosmos_sdtm:mandatoryValue false ;
    cosmos_sdtm:mandatoryVariable false ;
    cosmos_sdtm:name "CMENRF" ;
    cosmos_sdtm:originSource NCIT:C70793 ;
    cosmos_sdtm:originType NCIT:C170547 ;
    cosmos_sdtm:role <https://www.cdisc.org/cosmos/sdtm_v1.0/RoleEnum#Timing> ;
    cosmos_sdtm:valueList "AFTER",
        "BEFORE",
        "DURING",
        "DURING/AFTER",
        "UNKNOWN" .

<https://w3id.org/cdisc/cosmos/dss/CM/CMFREE/CMENRTPT> a cosmos_sdtm:SDTMVariable ;
    cosmos_sdtm:codelist NCIT:C66728 ;
    cosmos_sdtm:dataElementConceptId NCIT:C82558 ;
    cosmos_sdtm:dataType <https://www.cdisc.org/cosmos/sdtm_v1.0/SDTMVariableDataTypeEnum#text> ;
    cosmos_sdtm:isNonStandard false ;
    cosmos_sdtm:length 20 ;
    cosmos_sdtm:mandatoryValue false ;
    cosmos_sdtm:mandatoryVariable false ;
    cosmos_sdtm:name "CMENRTPT" ;
    cosmos_sdtm:originSource NCIT:C70793 ;
    cosmos_sdtm:originType NCIT:C170547 ;
    cosmos_sdtm:role <https://www.cdisc.org/cosmos/sdtm_v1.0/RoleEnum#Timing> ;
    cosmos_sdtm:valueList "AFTER",
        "BEFORE",
        "COINCIDENT",
        "ONGOING",
        "UNKNOWN" .

<https://w3id.org/cdisc/cosmos/dss/CM/CMFREE/CMENTPT> a cosmos_sdtm:SDTMVariable ;
    cosmos_sdtm:dataElementConceptId NCIT:C82574 ;
    cosmos_sdtm:dataType <https://www.cdisc.org/cosmos/sdtm_v1.0/SDTMVariableDataTypeEnum#text> ;
    cosmos_sdtm:isNonStandard false ;
    cosmos_sdtm:length 20 ;
    cosmos_sdtm:mandatoryValue false ;
    cosmos_sdtm:mandatoryVariable false ;
    cosmos_sdtm:name "CMENTPT" ;
    cosmos_sdtm:originSource NCIT:C70793 ;
    cosmos_sdtm:originType NCIT:C170547 ;
    cosmos_sdtm:role <https://www.cdisc.org/cosmos/sdtm_v1.0/RoleEnum#Timing> .

<https://w3id.org/cdisc/cosmos/dss/CM/CMFREE/CMINDC> a cosmos_sdtm:SDTMVariable ;
    cosmos_sdtm:dataElementConceptId NCIT:C83085 ;
    cosmos_sdtm:dataType <https://www.cdisc.org/cosmos/sdtm_v1.0/SDTMVariableDataTypeEnum#text> ;
    cosmos_sdtm:isNonStandard false ;
    cosmos_sdtm:length 200 ;
    cosmos_sdtm:mandatoryValue false ;
    cosmos_sdtm:mandatoryVariable false ;
    cosmos_sdtm:name "CMINDC" ;
    cosmos_sdtm:originSource NCIT:C25936 ;
    cosmos_sdtm:originType NCIT:C170548 ;
    cosmos_sdtm:relationship <https://w3id.org/cdisc/cosmos/dss/CM/CMFREE/CMINDC/relationship> ;
    cosmos_sdtm:role <https://www.cdisc.org/cosmos/sdtm_v1.0/RoleEnum#Qualifier> .

<https://w3id.org/cdisc/cosmos/dss/CM/CMFREE/CMROUTE> a cosmos_sdtm:SDTMVariable ;
    cosmos_sdtm:codelist NCIT:C66729 ;
    cosmos_sdtm:dataElementConceptId NCIT:C83120 ;
    cosmos_sdtm:dataType <https://www.cdisc.org/cosmos/sdtm_v1.0/SDTMVariableDataTypeEnum#text> ;
    cosmos_sdtm:isNonStandard false ;
    cosmos_sdtm:length 40 ;
    cosmos_sdtm:mandatoryValue false ;
    cosmos_sdtm:mandatoryVariable false ;
    cosmos_sdtm:name "CMROUTE" ;
    cosmos_sdtm:originSource NCIT:C25936 ;
    cosmos_sdtm:originType NCIT:C170548 ;
    cosmos_sdtm:relationship <https://w3id.org/cdisc/cosmos/dss/CM/CMFREE/CMROUTE/relationship> ;
    cosmos_sdtm:role <https://www.cdisc.org/cosmos/sdtm_v1.0/RoleEnum#Qualifier> .

<https://w3id.org/cdisc/cosmos/dss/CM/CMFREE/CMSCAT> a cosmos_sdtm:SDTMVariable ;
    cosmos_sdtm:dataElementConceptId NCIT:C25692 ;
    cosmos_sdtm:dataType <https://www.cdisc.org/cosmos/sdtm_v1.0/SDTMVariableDataTypeEnum#text> ;
    cosmos_sdtm:isNonStandard false ;
    cosmos_sdtm:length 200 ;
    cosmos_sdtm:mandatoryValue false ;
    cosmos_sdtm:mandatoryVariable false ;
    cosmos_sdtm:name "CMSCAT" ;
    cosmos_sdtm:originSource NCIT:C70793 ;
    cosmos_sdtm:originType NCIT:C170547 ;
    cosmos_sdtm:role <https://www.cdisc.org/cosmos/sdtm_v1.0/RoleEnum#Qualifier> .

<https://w3id.org/cdisc/cosmos/dss/CM/CMFREE/CMSTDTC> a cosmos_sdtm:SDTMVariable ;
    cosmos_sdtm:dataElementConceptId NCIT:C83235 ;
    cosmos_sdtm:dataType <https://www.cdisc.org/cosmos/sdtm_v1.0/SDTMVariableDataTypeEnum#datetime> ;
    cosmos_sdtm:isNonStandard false ;
    cosmos_sdtm:mandatoryValue false ;
    cosmos_sdtm:mandatoryVariable false ;
    cosmos_sdtm:name "CMSTDTC" ;
    cosmos_sdtm:originSource NCIT:C25936 ;
    cosmos_sdtm:originType NCIT:C170548 ;
    cosmos_sdtm:relationship <https://w3id.org/cdisc/cosmos/dss/CM/CMFREE/CMSTDTC/relationship> ;
    cosmos_sdtm:role <https://www.cdisc.org/cosmos/sdtm_v1.0/RoleEnum#Timing> .

<https://w3id.org/cdisc/cosmos/dss/CM/CMFREE/CMSTRF> a cosmos_sdtm:SDTMVariable ;
    cosmos_sdtm:codelist NCIT:C66728 ;
    cosmos_sdtm:dataElementConceptId NCIT:C82559 ;
    cosmos_sdtm:dataType <https://www.cdisc.org/cosmos/sdtm_v1.0/SDTMVariableDataTypeEnum#text> ;
    cosmos_sdtm:isNonStandard false ;
    cosmos_sdtm:length 20 ;
    cosmos_sdtm:mandatoryValue false ;
    cosmos_sdtm:mandatoryVariable false ;
    cosmos_sdtm:name "CMSTRF" ;
    cosmos_sdtm:originSource NCIT:C70793 ;
    cosmos_sdtm:originType NCIT:C170547 ;
    cosmos_sdtm:role <https://www.cdisc.org/cosmos/sdtm_v1.0/RoleEnum#Timing> ;
    cosmos_sdtm:valueList "AFTER",
        "BEFORE",
        "DURING",
        "DURING/AFTER",
        "UNKNOWN" .

<https://w3id.org/cdisc/cosmos/dss/CM/CMFREE/CMSTRTPT> a cosmos_sdtm:SDTMVariable ;
    cosmos_sdtm:codelist NCIT:C66728 ;
    cosmos_sdtm:dataElementConceptId NCIT:C82560 ;
    cosmos_sdtm:dataType <https://www.cdisc.org/cosmos/sdtm_v1.0/SDTMVariableDataTypeEnum#text> ;
    cosmos_sdtm:isNonStandard false ;
    cosmos_sdtm:length 20 ;
    cosmos_sdtm:mandatoryValue false ;
    cosmos_sdtm:mandatoryVariable false ;
    cosmos_sdtm:name "CMSTRTPT" ;
    cosmos_sdtm:originSource NCIT:C70793 ;
    cosmos_sdtm:originType NCIT:C170547 ;
    cosmos_sdtm:role <https://www.cdisc.org/cosmos/sdtm_v1.0/RoleEnum#Timing> ;
    cosmos_sdtm:valueList "AFTER",
        "BEFORE",
        "COINCIDENT",
        "ONGOING",
        "UNKNOWN" .

<https://w3id.org/cdisc/cosmos/dss/CM/CMFREE/CMSTTPT> a cosmos_sdtm:SDTMVariable ;
    cosmos_sdtm:dataElementConceptId NCIT:C82575 ;
    cosmos_sdtm:dataType <https://www.cdisc.org/cosmos/sdtm_v1.0/SDTMVariableDataTypeEnum#text> ;
    cosmos_sdtm:isNonStandard false ;
    cosmos_sdtm:length 20 ;
    cosmos_sdtm:mandatoryValue false ;
    cosmos_sdtm:mandatoryVariable false ;
    cosmos_sdtm:name "CMSTTPT" ;
    cosmos_sdtm:originSource NCIT:C70793 ;
    cosmos_sdtm:originType NCIT:C170547 ;
    cosmos_sdtm:role <https://www.cdisc.org/cosmos/sdtm_v1.0/RoleEnum#Timing> .

<https://w3id.org/cdisc/cosmos/dss/CM/CMFREE/CMTRT> a cosmos_sdtm:SDTMVariable ;
    cosmos_sdtm:dataElementConceptId NCIT:C70902 ;
    cosmos_sdtm:dataType <https://www.cdisc.org/cosmos/sdtm_v1.0/SDTMVariableDataTypeEnum#text> ;
    cosmos_sdtm:isNonStandard false ;
    cosmos_sdtm:length 200 ;
    cosmos_sdtm:mandatoryValue true ;
    cosmos_sdtm:mandatoryVariable true ;
    cosmos_sdtm:name "CMTRT" ;
    cosmos_sdtm:originSource NCIT:C25936 ;
    cosmos_sdtm:originType NCIT:C170548 ;
    cosmos_sdtm:relationship <https://w3id.org/cdisc/cosmos/dss/CM/CMFREE/CMTRT/relationship> ;
    cosmos_sdtm:role <https://www.cdisc.org/cosmos/sdtm_v1.0/RoleEnum#Topic> .

<https://w3id.org/cdisc/cosmos/dss/CM/CMPRESP/CMCAT> a cosmos_sdtm:SDTMVariable ;
    cosmos_sdtm:dataElementConceptId NCIT:C25372 ;
    cosmos_sdtm:dataType <https://www.cdisc.org/cosmos/sdtm_v1.0/SDTMVariableDataTypeEnum#text> ;
    cosmos_sdtm:isNonStandard false ;
    cosmos_sdtm:length 200 ;
    cosmos_sdtm:mandatoryValue false ;
    cosmos_sdtm:mandatoryVariable false ;
    cosmos_sdtm:name "CMCAT" ;
    cosmos_sdtm:originSource NCIT:C70793 ;
    cosmos_sdtm:originType NCIT:C170547 ;
    cosmos_sdtm:role <https://www.cdisc.org/cosmos/sdtm_v1.0/RoleEnum#Qualifier> .

<https://w3id.org/cdisc/cosmos/dss/CM/CMPRESP/CMCLAS> a cosmos_sdtm:SDTMVariable ;
    cosmos_sdtm:dataElementConceptId NCIT:C83219 ;
    cosmos_sdtm:dataType <https://www.cdisc.org/cosmos/sdtm_v1.0/SDTMVariableDataTypeEnum#text> ;
    cosmos_sdtm:isNonStandard false ;
    cosmos_sdtm:length 200 ;
    cosmos_sdtm:mandatoryValue false ;
    cosmos_sdtm:mandatoryVariable false ;
    cosmos_sdtm:name "CMCLAS" ;
    cosmos_sdtm:originSource NCIT:C70793 ;
    cosmos_sdtm:originType NCIT:C170547 ;
    cosmos_sdtm:relationship <https://w3id.org/cdisc/cosmos/dss/CM/CMPRESP/CMCLAS/relationship> ;
    cosmos_sdtm:role <https://www.cdisc.org/cosmos/sdtm_v1.0/RoleEnum#Qualifier> .

<https://w3id.org/cdisc/cosmos/dss/CM/CMPRESP/CMCLASCD> a cosmos_sdtm:SDTMVariable ;
    cosmos_sdtm:dataElementConceptId NCIT:C83219 ;
    cosmos_sdtm:dataType <https://www.cdisc.org/cosmos/sdtm_v1.0/SDTMVariableDataTypeEnum#text> ;
    cosmos_sdtm:isNonStandard false ;
    cosmos_sdtm:length 200 ;
    cosmos_sdtm:mandatoryValue false ;
    cosmos_sdtm:mandatoryVariable false ;
    cosmos_sdtm:name "CMCLASCD" ;
    cosmos_sdtm:originSource NCIT:C70793 ;
    cosmos_sdtm:originType NCIT:C170547 ;
    cosmos_sdtm:relationship <https://w3id.org/cdisc/cosmos/dss/CM/CMPRESP/CMCLASCD/relationship> ;
    cosmos_sdtm:role <https://www.cdisc.org/cosmos/sdtm_v1.0/RoleEnum#Qualifier> .

<https://w3id.org/cdisc/cosmos/dss/CM/CMPRESP/CMDECOD> a cosmos_sdtm:SDTMVariable ;
    cosmos_sdtm:dataElementConceptId NCIT:C83345 ;
    cosmos_sdtm:dataType <https://www.cdisc.org/cosmos/sdtm_v1.0/SDTMVariableDataTypeEnum#text> ;
    cosmos_sdtm:isNonStandard false ;
    cosmos_sdtm:length 200 ;
    cosmos_sdtm:mandatoryValue false ;
    cosmos_sdtm:mandatoryVariable true ;
    cosmos_sdtm:name "CMDECOD" ;
    cosmos_sdtm:originSource NCIT:C70793 ;
    cosmos_sdtm:originType NCIT:C170547 ;
    cosmos_sdtm:relationship <https://w3id.org/cdisc/cosmos/dss/CM/CMPRESP/CMDECOD/relationship> ;
    cosmos_sdtm:role <https://www.cdisc.org/cosmos/sdtm_v1.0/RoleEnum#Qualifier> .

<https://w3id.org/cdisc/cosmos/dss/CM/CMPRESP/CMDOSE> a cosmos_sdtm:SDTMVariable ;
    cosmos_sdtm:dataElementConceptId NCIT:C83221 ;
    cosmos_sdtm:dataType <https://www.cdisc.org/cosmos/sdtm_v1.0/SDTMVariableDataTypeEnum#float> ;
    cosmos_sdtm:format "8.3" ;
    cosmos_sdtm:isNonStandard false ;
    cosmos_sdtm:length 8 ;
    cosmos_sdtm:mandatoryValue false ;
    cosmos_sdtm:mandatoryVariable false ;
    cosmos_sdtm:name "CMDOSE" ;
    cosmos_sdtm:originSource NCIT:C25936 ;
    cosmos_sdtm:originType NCIT:C170548 ;
    cosmos_sdtm:relationship <https://w3id.org/cdisc/cosmos/dss/CM/CMPRESP/CMDOSE/relationship> ;
    cosmos_sdtm:role <https://www.cdisc.org/cosmos/sdtm_v1.0/RoleEnum#Qualifier> ;
    cosmos_sdtm:significantDigits 3 .

<https://w3id.org/cdisc/cosmos/dss/CM/CMPRESP/CMDOSFRM> a cosmos_sdtm:SDTMVariable ;
    cosmos_sdtm:codelist NCIT:C66726 ;
    cosmos_sdtm:dataElementConceptId NCIT:C83110 ;
    cosmos_sdtm:dataType <https://www.cdisc.org/cosmos/sdtm_v1.0/SDTMVariableDataTypeEnum#text> ;
    cosmos_sdtm:isNonStandard false ;
    cosmos_sdtm:length 40 ;
    cosmos_sdtm:mandatoryValue false ;
    cosmos_sdtm:mandatoryVariable false ;
    cosmos_sdtm:name "CMDOSFRM" ;
    cosmos_sdtm:originSource NCIT:C25936 ;
    cosmos_sdtm:originType NCIT:C170548 ;
    cosmos_sdtm:relationship <https://w3id.org/cdisc/cosmos/dss/CM/CMPRESP/CMDOSFRM/relationship> ;
    cosmos_sdtm:role <https://www.cdisc.org/cosmos/sdtm_v1.0/RoleEnum#Qualifier> .

<https://w3id.org/cdisc/cosmos/dss/CM/CMPRESP/CMDOSFRQ> a cosmos_sdtm:SDTMVariable ;
    cosmos_sdtm:codelist NCIT:C71113 ;
    cosmos_sdtm:dataElementConceptId NCIT:C83042 ;
    cosmos_sdtm:dataType <https://www.cdisc.org/cosmos/sdtm_v1.0/SDTMVariableDataTypeEnum#text> ;
    cosmos_sdtm:isNonStandard false ;
    cosmos_sdtm:length 40 ;
    cosmos_sdtm:mandatoryValue false ;
    cosmos_sdtm:mandatoryVariable false ;
    cosmos_sdtm:name "CMDOSFRQ" ;
    cosmos_sdtm:originSource NCIT:C25936 ;
    cosmos_sdtm:originType NCIT:C170548 ;
    cosmos_sdtm:relationship <https://w3id.org/cdisc/cosmos/dss/CM/CMPRESP/CMDOSFRQ/relationship> ;
    cosmos_sdtm:role <https://www.cdisc.org/cosmos/sdtm_v1.0/RoleEnum#Qualifier> .

<https://w3id.org/cdisc/cosmos/dss/CM/CMPRESP/CMDOSTXT> a cosmos_sdtm:SDTMVariable ;
    cosmos_sdtm:dataElementConceptId NCIT:C83221 ;
    cosmos_sdtm:dataType <https://www.cdisc.org/cosmos/sdtm_v1.0/SDTMVariableDataTypeEnum#text> ;
    cosmos_sdtm:isNonStandard false ;
    cosmos_sdtm:length 40 ;
    cosmos_sdtm:mandatoryValue false ;
    cosmos_sdtm:mandatoryVariable false ;
    cosmos_sdtm:name "CMDOSTXT" ;
    cosmos_sdtm:originSource NCIT:C25936 ;
    cosmos_sdtm:originType NCIT:C170548 ;
    cosmos_sdtm:relationship <https://w3id.org/cdisc/cosmos/dss/CM/CMPRESP/CMDOSTXT/relationship> ;
    cosmos_sdtm:role <https://www.cdisc.org/cosmos/sdtm_v1.0/RoleEnum#Qualifier> .

<https://w3id.org/cdisc/cosmos/dss/CM/CMPRESP/CMDOSU> a cosmos_sdtm:SDTMVariable ;
    cosmos_sdtm:codelist NCIT:C71620 ;
    cosmos_sdtm:dataElementConceptId NCIT:C83034 ;
    cosmos_sdtm:dataType <https://www.cdisc.org/cosmos/sdtm_v1.0/SDTMVariableDataTypeEnum#text> ;
    cosmos_sdtm:isNonStandard false ;
    cosmos_sdtm:length 40 ;
    cosmos_sdtm:mandatoryValue false ;
    cosmos_sdtm:mandatoryVariable false ;
    cosmos_sdtm:name "CMDOSU" ;
    cosmos_sdtm:originSource NCIT:C25936 ;
    cosmos_sdtm:originType NCIT:C170548 ;
    cosmos_sdtm:relationship <https://w3id.org/cdisc/cosmos/dss/CM/CMPRESP/CMDOSU/relationship> ;
    cosmos_sdtm:role <https://www.cdisc.org/cosmos/sdtm_v1.0/RoleEnum#Qualifier> .

<https://w3id.org/cdisc/cosmos/dss/CM/CMPRESP/CMENDTC> a cosmos_sdtm:SDTMVariable ;
    cosmos_sdtm:dataElementConceptId NCIT:C83225 ;
    cosmos_sdtm:dataType <https://www.cdisc.org/cosmos/sdtm_v1.0/SDTMVariableDataTypeEnum#datetime> ;
    cosmos_sdtm:isNonStandard false ;
    cosmos_sdtm:mandatoryValue false ;
    cosmos_sdtm:mandatoryVariable false ;
    cosmos_sdtm:name "CMENDTC" ;
    cosmos_sdtm:originSource NCIT:C25936 ;
    cosmos_sdtm:originType NCIT:C170548 ;
    cosmos_sdtm:relationship <https://w3id.org/cdisc/cosmos/dss/CM/CMPRESP/CMENDTC/relationship> ;
    cosmos_sdtm:role <https://www.cdisc.org/cosmos/sdtm_v1.0/RoleEnum#Timing> .

<https://w3id.org/cdisc/cosmos/dss/CM/CMPRESP/CMENRF> a cosmos_sdtm:SDTMVariable ;
    cosmos_sdtm:codelist NCIT:C66728 ;
    cosmos_sdtm:dataElementConceptId NCIT:C82557 ;
    cosmos_sdtm:dataType <https://www.cdisc.org/cosmos/sdtm_v1.0/SDTMVariableDataTypeEnum#text> ;
    cosmos_sdtm:isNonStandard false ;
    cosmos_sdtm:length 20 ;
    cosmos_sdtm:mandatoryValue false ;
    cosmos_sdtm:mandatoryVariable false ;
    cosmos_sdtm:name "CMENRF" ;
    cosmos_sdtm:originSource NCIT:C70793 ;
    cosmos_sdtm:originType NCIT:C170547 ;
    cosmos_sdtm:role <https://www.cdisc.org/cosmos/sdtm_v1.0/RoleEnum#Timing> ;
    cosmos_sdtm:valueList "AFTER",
        "BEFORE",
        "DURING",
        "DURING/AFTER",
        "UNKNOWN" .

<https://w3id.org/cdisc/cosmos/dss/CM/CMPRESP/CMENRTPT> a cosmos_sdtm:SDTMVariable ;
    cosmos_sdtm:codelist NCIT:C66728 ;
    cosmos_sdtm:dataElementConceptId NCIT:C82558 ;
    cosmos_sdtm:dataType <https://www.cdisc.org/cosmos/sdtm_v1.0/SDTMVariableDataTypeEnum#text> ;
    cosmos_sdtm:isNonStandard false ;
    cosmos_sdtm:length 20 ;
    cosmos_sdtm:mandatoryValue false ;
    cosmos_sdtm:mandatoryVariable false ;
    cosmos_sdtm:name "CMENRTPT" ;
    cosmos_sdtm:originSource NCIT:C70793 ;
    cosmos_sdtm:originType NCIT:C170547 ;
    cosmos_sdtm:role <https://www.cdisc.org/cosmos/sdtm_v1.0/RoleEnum#Timing> ;
    cosmos_sdtm:valueList "AFTER",
        "BEFORE",
        "COINCIDENT",
        "ONGOING",
        "UNKNOWN" .

<https://w3id.org/cdisc/cosmos/dss/CM/CMPRESP/CMENTPT> a cosmos_sdtm:SDTMVariable ;
    cosmos_sdtm:dataElementConceptId NCIT:C82574 ;
    cosmos_sdtm:dataType <https://www.cdisc.org/cosmos/sdtm_v1.0/SDTMVariableDataTypeEnum#text> ;
    cosmos_sdtm:isNonStandard false ;
    cosmos_sdtm:length 20 ;
    cosmos_sdtm:mandatoryValue false ;
    cosmos_sdtm:mandatoryVariable false ;
    cosmos_sdtm:name "CMENTPT" ;
    cosmos_sdtm:originSource NCIT:C70793 ;
    cosmos_sdtm:originType NCIT:C170547 ;
    cosmos_sdtm:role <https://www.cdisc.org/cosmos/sdtm_v1.0/RoleEnum#Timing> .

<https://w3id.org/cdisc/cosmos/dss/CM/CMPRESP/CMINDC> a cosmos_sdtm:SDTMVariable ;
    cosmos_sdtm:dataElementConceptId NCIT:C83085 ;
    cosmos_sdtm:dataType <https://www.cdisc.org/cosmos/sdtm_v1.0/SDTMVariableDataTypeEnum#text> ;
    cosmos_sdtm:isNonStandard false ;
    cosmos_sdtm:length 200 ;
    cosmos_sdtm:mandatoryValue false ;
    cosmos_sdtm:mandatoryVariable false ;
    cosmos_sdtm:name "CMINDC" ;
    cosmos_sdtm:originSource NCIT:C25936 ;
    cosmos_sdtm:originType NCIT:C170548 ;
    cosmos_sdtm:relationship <https://w3id.org/cdisc/cosmos/dss/CM/CMPRESP/CMINDC/relationship> ;
    cosmos_sdtm:role <https://www.cdisc.org/cosmos/sdtm_v1.0/RoleEnum#Qualifier> .

<https://w3id.org/cdisc/cosmos/dss/CM/CMPRESP/CMPRESP> a cosmos_sdtm:SDTMVariable ;
    cosmos_sdtm:codelist NCIT:C66742 ;
    cosmos_sdtm:dataElementConceptId NCIT:C171000 ;
    cosmos_sdtm:dataType <https://www.cdisc.org/cosmos/sdtm_v1.0/SDTMVariableDataTypeEnum#text> ;
    cosmos_sdtm:isNonStandard false ;
    cosmos_sdtm:length 1 ;
    cosmos_sdtm:mandatoryValue false ;
    cosmos_sdtm:mandatoryVariable false ;
    cosmos_sdtm:name "CMPRESP" ;
    cosmos_sdtm:originSource NCIT:C70793 ;
    cosmos_sdtm:originType NCIT:C170547 ;
    cosmos_sdtm:relationship <https://w3id.org/cdisc/cosmos/dss/CM/CMPRESP/CMPRESP/relationship> ;
    cosmos_sdtm:role <https://www.cdisc.org/cosmos/sdtm_v1.0/RoleEnum#Qualifier> ;
    cosmos_sdtm:subsetCodelist "NY_Y" ;
    cosmos_sdtm:valueList "Y" .

<https://w3id.org/cdisc/cosmos/dss/CM/CMPRESP/CMROUTE> a cosmos_sdtm:SDTMVariable ;
    cosmos_sdtm:codelist NCIT:C66729 ;
    cosmos_sdtm:dataElementConceptId NCIT:C83120 ;
    cosmos_sdtm:dataType <https://www.cdisc.org/cosmos/sdtm_v1.0/SDTMVariableDataTypeEnum#text> ;
    cosmos_sdtm:isNonStandard false ;
    cosmos_sdtm:length 40 ;
    cosmos_sdtm:mandatoryValue false ;
    cosmos_sdtm:mandatoryVariable false ;
    cosmos_sdtm:name "CMROUTE" ;
    cosmos_sdtm:originSource NCIT:C25936 ;
    cosmos_sdtm:originType NCIT:C170548 ;
    cosmos_sdtm:relationship <https://w3id.org/cdisc/cosmos/dss/CM/CMPRESP/CMROUTE/relationship> ;
    cosmos_sdtm:role <https://www.cdisc.org/cosmos/sdtm_v1.0/RoleEnum#Qualifier> .

<https://w3id.org/cdisc/cosmos/dss/CM/CMPRESP/CMSCAT> a cosmos_sdtm:SDTMVariable ;
    cosmos_sdtm:dataElementConceptId NCIT:C25692 ;
    cosmos_sdtm:dataType <https://www.cdisc.org/cosmos/sdtm_v1.0/SDTMVariableDataTypeEnum#text> ;
    cosmos_sdtm:isNonStandard false ;
    cosmos_sdtm:length 200 ;
    cosmos_sdtm:mandatoryValue false ;
    cosmos_sdtm:mandatoryVariable false ;
    cosmos_sdtm:name "CMSCAT" ;
    cosmos_sdtm:originSource NCIT:C70793 ;
    cosmos_sdtm:originType NCIT:C170547 ;
    cosmos_sdtm:role <https://www.cdisc.org/cosmos/sdtm_v1.0/RoleEnum#Qualifier> .

<https://w3id.org/cdisc/cosmos/dss/CM/CMPRESP/CMSTDTC> a cosmos_sdtm:SDTMVariable ;
    cosmos_sdtm:dataElementConceptId NCIT:C83235 ;
    cosmos_sdtm:dataType <https://www.cdisc.org/cosmos/sdtm_v1.0/SDTMVariableDataTypeEnum#datetime> ;
    cosmos_sdtm:isNonStandard false ;
    cosmos_sdtm:mandatoryValue false ;
    cosmos_sdtm:mandatoryVariable false ;
    cosmos_sdtm:name "CMSTDTC" ;
    cosmos_sdtm:originSource NCIT:C25936 ;
    cosmos_sdtm:originType NCIT:C170548 ;
    cosmos_sdtm:relationship <https://w3id.org/cdisc/cosmos/dss/CM/CMPRESP/CMSTDTC/relationship> ;
    cosmos_sdtm:role <https://www.cdisc.org/cosmos/sdtm_v1.0/RoleEnum#Timing> .

<https://w3id.org/cdisc/cosmos/dss/CM/CMPRESP/CMSTRF> a cosmos_sdtm:SDTMVariable ;
    cosmos_sdtm:codelist NCIT:C66728 ;
    cosmos_sdtm:dataElementConceptId NCIT:C82559 ;
    cosmos_sdtm:dataType <https://www.cdisc.org/cosmos/sdtm_v1.0/SDTMVariableDataTypeEnum#text> ;
    cosmos_sdtm:isNonStandard false ;
    cosmos_sdtm:length 20 ;
    cosmos_sdtm:mandatoryValue false ;
    cosmos_sdtm:mandatoryVariable false ;
    cosmos_sdtm:name "CMSTRF" ;
    cosmos_sdtm:originSource NCIT:C70793 ;
    cosmos_sdtm:originType NCIT:C170547 ;
    cosmos_sdtm:role <https://www.cdisc.org/cosmos/sdtm_v1.0/RoleEnum#Timing> ;
    cosmos_sdtm:valueList "AFTER",
        "BEFORE",
        "DURING",
        "DURING/AFTER",
        "UNKNOWN" .

<https://w3id.org/cdisc/cosmos/dss/CM/CMPRESP/CMSTRTPT> a cosmos_sdtm:SDTMVariable ;
    cosmos_sdtm:codelist NCIT:C66728 ;
    cosmos_sdtm:dataElementConceptId NCIT:C82560 ;
    cosmos_sdtm:dataType <https://www.cdisc.org/cosmos/sdtm_v1.0/SDTMVariableDataTypeEnum#text> ;
    cosmos_sdtm:isNonStandard false ;
    cosmos_sdtm:length 20 ;
    cosmos_sdtm:mandatoryValue false ;
    cosmos_sdtm:mandatoryVariable false ;
    cosmos_sdtm:name "CMSTRTPT" ;
    cosmos_sdtm:originSource NCIT:C70793 ;
    cosmos_sdtm:originType NCIT:C170547 ;
    cosmos_sdtm:role <https://www.cdisc.org/cosmos/sdtm_v1.0/RoleEnum#Timing> ;
    cosmos_sdtm:valueList "AFTER",
        "BEFORE",
        "COINCIDENT",
        "ONGOING",
        "UNKNOWN" .

<https://w3id.org/cdisc/cosmos/dss/CM/CMPRESP/CMSTTPT> a cosmos_sdtm:SDTMVariable ;
    cosmos_sdtm:dataElementConceptId NCIT:C82575 ;
    cosmos_sdtm:dataType <https://www.cdisc.org/cosmos/sdtm_v1.0/SDTMVariableDataTypeEnum#text> ;
    cosmos_sdtm:isNonStandard false ;
    cosmos_sdtm:length 20 ;
    cosmos_sdtm:mandatoryValue false ;
    cosmos_sdtm:mandatoryVariable false ;
    cosmos_sdtm:name "CMSTTPT" ;
    cosmos_sdtm:originSource NCIT:C70793 ;
    cosmos_sdtm:originType NCIT:C170547 ;
    cosmos_sdtm:role <https://www.cdisc.org/cosmos/sdtm_v1.0/RoleEnum#Timing> .

<https://w3id.org/cdisc/cosmos/dss/CM/CMPRESP/CMTRT> a cosmos_sdtm:SDTMVariable ;
    cosmos_sdtm:dataElementConceptId NCIT:C70902 ;
    cosmos_sdtm:dataType <https://www.cdisc.org/cosmos/sdtm_v1.0/SDTMVariableDataTypeEnum#text> ;
    cosmos_sdtm:isNonStandard false ;
    cosmos_sdtm:length 200 ;
    cosmos_sdtm:mandatoryValue true ;
    cosmos_sdtm:mandatoryVariable true ;
    cosmos_sdtm:name "CMTRT" ;
    cosmos_sdtm:originSource NCIT:C25936 ;
    cosmos_sdtm:originType NCIT:C170548 ;
    cosmos_sdtm:relationship <https://w3id.org/cdisc/cosmos/dss/CM/CMPRESP/CMTRT/relationship> ;
    cosmos_sdtm:role <https://www.cdisc.org/cosmos/sdtm_v1.0/RoleEnum#Topic> .

<https://w3id.org/cdisc/cosmos/dss/CM/CMPRIORBREASTCANCER/CMCAT> a cosmos_sdtm:SDTMVariable ;
    cosmos_sdtm:assignedTerm <https://w3id.org/cdisc/cosmos/dss/CM/CMPRIORBREASTCANCER/CMCAT/assignedTerm> ;
    cosmos_sdtm:dataElementConceptId NCIT:C25372 ;
    cosmos_sdtm:dataType <https://www.cdisc.org/cosmos/sdtm_v1.0/SDTMVariableDataTypeEnum#text> ;
    cosmos_sdtm:isNonStandard false ;
    cosmos_sdtm:length 200 ;
    cosmos_sdtm:mandatoryValue false ;
    cosmos_sdtm:mandatoryVariable false ;
    cosmos_sdtm:name "CMCAT" ;
    cosmos_sdtm:originSource NCIT:C70793 ;
    cosmos_sdtm:originType NCIT:C170547 ;
    cosmos_sdtm:role <https://www.cdisc.org/cosmos/sdtm_v1.0/RoleEnum#Qualifier> .

<https://w3id.org/cdisc/cosmos/dss/CM/CMPRIORBREASTCANCER/CMCLAS> a cosmos_sdtm:SDTMVariable ;
    cosmos_sdtm:dataType <https://www.cdisc.org/cosmos/sdtm_v1.0/SDTMVariableDataTypeEnum#text> ;
    cosmos_sdtm:isNonStandard false ;
    cosmos_sdtm:length 200 ;
    cosmos_sdtm:mandatoryValue false ;
    cosmos_sdtm:mandatoryVariable false ;
    cosmos_sdtm:name "CMCLAS" ;
    cosmos_sdtm:originSource NCIT:C70793 ;
    cosmos_sdtm:originType NCIT:C170547 ;
    cosmos_sdtm:relationship <https://w3id.org/cdisc/cosmos/dss/CM/CMPRIORBREASTCANCER/CMCLAS/relationship> ;
    cosmos_sdtm:role <https://www.cdisc.org/cosmos/sdtm_v1.0/RoleEnum#Qualifier> .

<https://w3id.org/cdisc/cosmos/dss/CM/CMPRIORBREASTCANCER/CMCLASCD> a cosmos_sdtm:SDTMVariable ;
    cosmos_sdtm:dataType <https://www.cdisc.org/cosmos/sdtm_v1.0/SDTMVariableDataTypeEnum#text> ;
    cosmos_sdtm:isNonStandard false ;
    cosmos_sdtm:length 200 ;
    cosmos_sdtm:mandatoryValue false ;
    cosmos_sdtm:mandatoryVariable false ;
    cosmos_sdtm:name "CMCLASCD" ;
    cosmos_sdtm:originSource NCIT:C70793 ;
    cosmos_sdtm:originType NCIT:C170547 ;
    cosmos_sdtm:relationship <https://w3id.org/cdisc/cosmos/dss/CM/CMPRIORBREASTCANCER/CMCLASCD/relationship> ;
    cosmos_sdtm:role <https://www.cdisc.org/cosmos/sdtm_v1.0/RoleEnum#Qualifier> .

<https://w3id.org/cdisc/cosmos/dss/CM/CMPRIORBREASTCANCER/CMDECOD> a cosmos_sdtm:SDTMVariable ;
    cosmos_sdtm:dataElementConceptId NCIT:C83345 ;
    cosmos_sdtm:dataType <https://www.cdisc.org/cosmos/sdtm_v1.0/SDTMVariableDataTypeEnum#text> ;
    cosmos_sdtm:isNonStandard false ;
    cosmos_sdtm:length 200 ;
    cosmos_sdtm:mandatoryValue false ;
    cosmos_sdtm:mandatoryVariable false ;
    cosmos_sdtm:name "CMDECOD" ;
    cosmos_sdtm:originSource NCIT:C70793 ;
    cosmos_sdtm:originType NCIT:C170547 ;
    cosmos_sdtm:relationship <https://w3id.org/cdisc/cosmos/dss/CM/CMPRIORBREASTCANCER/CMDECOD/relationship> ;
    cosmos_sdtm:role <https://www.cdisc.org/cosmos/sdtm_v1.0/RoleEnum#Qualifier> .

<https://w3id.org/cdisc/cosmos/dss/CM/CMPRIORBREASTCANCER/CMDOSE> a cosmos_sdtm:SDTMVariable ;
    cosmos_sdtm:dataElementConceptId NCIT:C83221 ;
    cosmos_sdtm:dataType <https://www.cdisc.org/cosmos/sdtm_v1.0/SDTMVariableDataTypeEnum#text> ;
    cosmos_sdtm:isNonStandard false ;
    cosmos_sdtm:length 40 ;
    cosmos_sdtm:mandatoryValue false ;
    cosmos_sdtm:mandatoryVariable false ;
    cosmos_sdtm:name "CMDOSE" ;
    cosmos_sdtm:originSource NCIT:C25936 ;
    cosmos_sdtm:originType NCIT:C170548 ;
    cosmos_sdtm:relationship <https://w3id.org/cdisc/cosmos/dss/CM/CMPRIORBREASTCANCER/CMDOSE/relationship> ;
    cosmos_sdtm:role <https://www.cdisc.org/cosmos/sdtm_v1.0/RoleEnum#Qualifier> .

<https://w3id.org/cdisc/cosmos/dss/CM/CMPRIORBREASTCANCER/CMDOSFRM> a cosmos_sdtm:SDTMVariable ;
    cosmos_sdtm:codelist NCIT:C66726 ;
    cosmos_sdtm:dataElementConceptId NCIT:C83110 ;
    cosmos_sdtm:dataType <https://www.cdisc.org/cosmos/sdtm_v1.0/SDTMVariableDataTypeEnum#text> ;
    cosmos_sdtm:isNonStandard false ;
    cosmos_sdtm:length 40 ;
    cosmos_sdtm:mandatoryValue false ;
    cosmos_sdtm:mandatoryVariable false ;
    cosmos_sdtm:name "CMDOSFRM" ;
    cosmos_sdtm:originSource NCIT:C25936 ;
    cosmos_sdtm:originType NCIT:C170548 ;
    cosmos_sdtm:relationship <https://w3id.org/cdisc/cosmos/dss/CM/CMPRIORBREASTCANCER/CMDOSFRM/relationship> ;
    cosmos_sdtm:role <https://www.cdisc.org/cosmos/sdtm_v1.0/RoleEnum#Qualifier> .

<https://w3id.org/cdisc/cosmos/dss/CM/CMPRIORBREASTCANCER/CMDOSFRQ> a cosmos_sdtm:SDTMVariable ;
    cosmos_sdtm:codelist NCIT:C71113 ;
    cosmos_sdtm:dataType <https://www.cdisc.org/cosmos/sdtm_v1.0/SDTMVariableDataTypeEnum#text> ;
    cosmos_sdtm:isNonStandard false ;
    cosmos_sdtm:length 40 ;
    cosmos_sdtm:mandatoryValue false ;
    cosmos_sdtm:mandatoryVariable false ;
    cosmos_sdtm:name "CMDOSFRQ" ;
    cosmos_sdtm:originSource NCIT:C25936 ;
    cosmos_sdtm:originType NCIT:C170548 ;
    cosmos_sdtm:relationship <https://w3id.org/cdisc/cosmos/dss/CM/CMPRIORBREASTCANCER/CMDOSFRQ/relationship> ;
    cosmos_sdtm:role <https://www.cdisc.org/cosmos/sdtm_v1.0/RoleEnum#Qualifier> .

<https://w3id.org/cdisc/cosmos/dss/CM/CMPRIORBREASTCANCER/CMDOSRGM> a cosmos_sdtm:SDTMVariable ;
    cosmos_sdtm:dataType <https://www.cdisc.org/cosmos/sdtm_v1.0/SDTMVariableDataTypeEnum#text> ;
    cosmos_sdtm:isNonStandard false ;
    cosmos_sdtm:length 200 ;
    cosmos_sdtm:mandatoryValue false ;
    cosmos_sdtm:mandatoryVariable false ;
    cosmos_sdtm:name "CMDOSRGM" ;
    cosmos_sdtm:originSource NCIT:C25936 ;
    cosmos_sdtm:originType NCIT:C170548 ;
    cosmos_sdtm:relationship <https://w3id.org/cdisc/cosmos/dss/CM/CMPRIORBREASTCANCER/CMDOSRGM/relationship> ;
    cosmos_sdtm:role <https://www.cdisc.org/cosmos/sdtm_v1.0/RoleEnum#Qualifier> .

<https://w3id.org/cdisc/cosmos/dss/CM/CMPRIORBREASTCANCER/CMDOSU> a cosmos_sdtm:SDTMVariable ;
    cosmos_sdtm:codelist NCIT:C71620 ;
    cosmos_sdtm:dataElementConceptId NCIT:C83034 ;
    cosmos_sdtm:dataType <https://www.cdisc.org/cosmos/sdtm_v1.0/SDTMVariableDataTypeEnum#text> ;
    cosmos_sdtm:isNonStandard false ;
    cosmos_sdtm:length 40 ;
    cosmos_sdtm:mandatoryValue false ;
    cosmos_sdtm:mandatoryVariable false ;
    cosmos_sdtm:name "CMDOSU" ;
    cosmos_sdtm:originSource NCIT:C25936 ;
    cosmos_sdtm:originType NCIT:C170548 ;
    cosmos_sdtm:relationship <https://w3id.org/cdisc/cosmos/dss/CM/CMPRIORBREASTCANCER/CMDOSU/relationship> ;
    cosmos_sdtm:role <https://www.cdisc.org/cosmos/sdtm_v1.0/RoleEnum#Qualifier> .

<https://w3id.org/cdisc/cosmos/dss/CM/CMPRIORBREASTCANCER/CMENDTC> a cosmos_sdtm:SDTMVariable ;
    cosmos_sdtm:dataElementConceptId NCIT:C83225 ;
    cosmos_sdtm:dataType <https://www.cdisc.org/cosmos/sdtm_v1.0/SDTMVariableDataTypeEnum#datetime> ;
    cosmos_sdtm:isNonStandard false ;
    cosmos_sdtm:mandatoryValue false ;
    cosmos_sdtm:mandatoryVariable false ;
    cosmos_sdtm:name "CMENDTC" ;
    cosmos_sdtm:originSource NCIT:C25936 ;
    cosmos_sdtm:originType NCIT:C170548 ;
    cosmos_sdtm:relationship <https://w3id.org/cdisc/cosmos/dss/CM/CMPRIORBREASTCANCER/CMENDTC/relationship> ;
    cosmos_sdtm:role <https://www.cdisc.org/cosmos/sdtm_v1.0/RoleEnum#Timing> .

<https://w3id.org/cdisc/cosmos/dss/CM/CMPRIORBREASTCANCER/CMENRF> a cosmos_sdtm:SDTMVariable ;
    cosmos_sdtm:assignedTerm <https://w3id.org/cdisc/cosmos/dss/CM/CMPRIORBREASTCANCER/CMENRF/assignedTerm> ;
    cosmos_sdtm:codelist NCIT:C66728 ;
    cosmos_sdtm:dataType <https://www.cdisc.org/cosmos/sdtm_v1.0/SDTMVariableDataTypeEnum#text> ;
    cosmos_sdtm:isNonStandard false ;
    cosmos_sdtm:length 40 ;
    cosmos_sdtm:mandatoryValue false ;
    cosmos_sdtm:mandatoryVariable false ;
    cosmos_sdtm:name "CMENRF" ;
    cosmos_sdtm:originSource NCIT:C25936 ;
    cosmos_sdtm:originType NCIT:C170548 ;
    cosmos_sdtm:role <https://www.cdisc.org/cosmos/sdtm_v1.0/RoleEnum#Timing> .

<https://w3id.org/cdisc/cosmos/dss/CM/CMPRIORBREASTCANCER/CMENRTPT> a cosmos_sdtm:SDTMVariable ;
    cosmos_sdtm:assignedTerm <https://w3id.org/cdisc/cosmos/dss/CM/CMPRIORBREASTCANCER/CMENRTPT/assignedTerm> ;
    cosmos_sdtm:codelist NCIT:C66728 ;
    cosmos_sdtm:dataType <https://www.cdisc.org/cosmos/sdtm_v1.0/SDTMVariableDataTypeEnum#text> ;
    cosmos_sdtm:isNonStandard false ;
    cosmos_sdtm:length 40 ;
    cosmos_sdtm:mandatoryValue false ;
    cosmos_sdtm:mandatoryVariable false ;
    cosmos_sdtm:name "CMENRTPT" ;
    cosmos_sdtm:originSource NCIT:C70793 ;
    cosmos_sdtm:originType NCIT:C170547 ;
    cosmos_sdtm:role <https://www.cdisc.org/cosmos/sdtm_v1.0/RoleEnum#Timing> .

<https://w3id.org/cdisc/cosmos/dss/CM/CMPRIORBREASTCANCER/CMENTPT> a cosmos_sdtm:SDTMVariable ;
    cosmos_sdtm:dataType <https://www.cdisc.org/cosmos/sdtm_v1.0/SDTMVariableDataTypeEnum#datetime> ;
    cosmos_sdtm:isNonStandard false ;
    cosmos_sdtm:mandatoryValue false ;
    cosmos_sdtm:mandatoryVariable false ;
    cosmos_sdtm:name "CMENTPT" ;
    cosmos_sdtm:originSource NCIT:C70793 ;
    cosmos_sdtm:originType NCIT:C170547 ;
    cosmos_sdtm:role <https://www.cdisc.org/cosmos/sdtm_v1.0/RoleEnum#Timing> .

<https://w3id.org/cdisc/cosmos/dss/CM/CMPRIORBREASTCANCER/CMGRPID> a cosmos_sdtm:SDTMVariable ;
    cosmos_sdtm:dataType <https://www.cdisc.org/cosmos/sdtm_v1.0/SDTMVariableDataTypeEnum#text> ;
    cosmos_sdtm:isNonStandard false ;
    cosmos_sdtm:length 20 ;
    cosmos_sdtm:mandatoryValue false ;
    cosmos_sdtm:mandatoryVariable false ;
    cosmos_sdtm:name "CMGRPID" ;
    cosmos_sdtm:originSource NCIT:C70793 ;
    cosmos_sdtm:originType NCIT:C170547 ;
    cosmos_sdtm:relationship <https://w3id.org/cdisc/cosmos/dss/CM/CMPRIORBREASTCANCER/CMGRPID/relationship> ;
    cosmos_sdtm:role <https://www.cdisc.org/cosmos/sdtm_v1.0/RoleEnum#Qualifier> ;
    cosmos_sdtm:valueList "1",
        "2" .

<https://w3id.org/cdisc/cosmos/dss/CM/CMPRIORBREASTCANCER/CMINDC> a cosmos_sdtm:SDTMVariable ;
    cosmos_sdtm:assignedTerm <https://w3id.org/cdisc/cosmos/dss/CM/CMPRIORBREASTCANCER/CMINDC/assignedTerm> ;
    cosmos_sdtm:dataElementConceptId NCIT:C83085 ;
    cosmos_sdtm:dataType <https://www.cdisc.org/cosmos/sdtm_v1.0/SDTMVariableDataTypeEnum#text> ;
    cosmos_sdtm:isNonStandard false ;
    cosmos_sdtm:length 200 ;
    cosmos_sdtm:mandatoryValue false ;
    cosmos_sdtm:mandatoryVariable false ;
    cosmos_sdtm:name "CMINDC" ;
    cosmos_sdtm:originSource NCIT:C25936 ;
    cosmos_sdtm:originType NCIT:C170548 ;
    cosmos_sdtm:relationship <https://w3id.org/cdisc/cosmos/dss/CM/CMPRIORBREASTCANCER/CMINDC/relationship> ;
    cosmos_sdtm:role <https://www.cdisc.org/cosmos/sdtm_v1.0/RoleEnum#Qualifier> .

<https://w3id.org/cdisc/cosmos/dss/CM/CMPRIORBREASTCANCER/CMOCCUR> a cosmos_sdtm:SDTMVariable ;
    cosmos_sdtm:codelist NCIT:C66742 ;
    cosmos_sdtm:dataElementConceptId NCIT:C127786 ;
    cosmos_sdtm:dataType <https://www.cdisc.org/cosmos/sdtm_v1.0/SDTMVariableDataTypeEnum#text> ;
    cosmos_sdtm:isNonStandard false ;
    cosmos_sdtm:length 1 ;
    cosmos_sdtm:mandatoryValue false ;
    cosmos_sdtm:mandatoryVariable false ;
    cosmos_sdtm:name "CMOCCUR" ;
    cosmos_sdtm:originSource NCIT:C25936 ;
    cosmos_sdtm:originType NCIT:C170548 ;
    cosmos_sdtm:relationship <https://w3id.org/cdisc/cosmos/dss/CM/CMPRIORBREASTCANCER/CMOCCUR/relationship> ;
    cosmos_sdtm:role <https://www.cdisc.org/cosmos/sdtm_v1.0/RoleEnum#Qualifier> .

<https://w3id.org/cdisc/cosmos/dss/CM/CMPRIORBREASTCANCER/CMPRESP> a cosmos_sdtm:SDTMVariable ;
    cosmos_sdtm:codelist NCIT:C66742 ;
    cosmos_sdtm:dataElementConceptId NCIT:C171000 ;
    cosmos_sdtm:dataType <https://www.cdisc.org/cosmos/sdtm_v1.0/SDTMVariableDataTypeEnum#text> ;
    cosmos_sdtm:isNonStandard false ;
    cosmos_sdtm:length 1 ;
    cosmos_sdtm:mandatoryValue false ;
    cosmos_sdtm:mandatoryVariable false ;
    cosmos_sdtm:name "CMPRESP" ;
    cosmos_sdtm:originSource NCIT:C70793 ;
    cosmos_sdtm:originType NCIT:C170547 ;
    cosmos_sdtm:relationship <https://w3id.org/cdisc/cosmos/dss/CM/CMPRIORBREASTCANCER/CMPRESP/relationship> ;
    cosmos_sdtm:role <https://www.cdisc.org/cosmos/sdtm_v1.0/RoleEnum#Qualifier> .

<https://w3id.org/cdisc/cosmos/dss/CM/CMPRIORBREASTCANCER/CMROUTE> a cosmos_sdtm:SDTMVariable ;
    cosmos_sdtm:codelist NCIT:C66729 ;
    cosmos_sdtm:dataElementConceptId NCIT:C83120 ;
    cosmos_sdtm:dataType <https://www.cdisc.org/cosmos/sdtm_v1.0/SDTMVariableDataTypeEnum#text> ;
    cosmos_sdtm:isNonStandard false ;
    cosmos_sdtm:length 200 ;
    cosmos_sdtm:mandatoryValue false ;
    cosmos_sdtm:mandatoryVariable false ;
    cosmos_sdtm:name "CMROUTE" ;
    cosmos_sdtm:originSource NCIT:C25936 ;
    cosmos_sdtm:originType NCIT:C170548 ;
    cosmos_sdtm:relationship <https://w3id.org/cdisc/cosmos/dss/CM/CMPRIORBREASTCANCER/CMROUTE/relationship> ;
    cosmos_sdtm:role <https://www.cdisc.org/cosmos/sdtm_v1.0/RoleEnum#Qualifier> .

<https://w3id.org/cdisc/cosmos/dss/CM/CMPRIORBREASTCANCER/CMRSDISC> a cosmos_sdtm:SDTMVariable ;
    cosmos_sdtm:dataType <https://www.cdisc.org/cosmos/sdtm_v1.0/SDTMVariableDataTypeEnum#text> ;
    cosmos_sdtm:isNonStandard false ;
    cosmos_sdtm:length 200 ;
    cosmos_sdtm:mandatoryValue false ;
    cosmos_sdtm:mandatoryVariable false ;
    cosmos_sdtm:name "CMRSDISC" ;
    cosmos_sdtm:originSource NCIT:C25936 ;
    cosmos_sdtm:originType NCIT:C170548 ;
    cosmos_sdtm:relationship <https://w3id.org/cdisc/cosmos/dss/CM/CMPRIORBREASTCANCER/CMRSDISC/relationship> ;
    cosmos_sdtm:role <https://www.cdisc.org/cosmos/sdtm_v1.0/RoleEnum#Qualifier> ;
    cosmos_sdtm:valueList "COMPLETED PRESCRIBED REGIMEN",
        "DISEASE PROGRESSION",
        "TOXICITY" .

<https://w3id.org/cdisc/cosmos/dss/CM/CMPRIORBREASTCANCER/CMSCAT> a cosmos_sdtm:SDTMVariable ;
    cosmos_sdtm:dataElementConceptId NCIT:C25692 ;
    cosmos_sdtm:dataType <https://www.cdisc.org/cosmos/sdtm_v1.0/SDTMVariableDataTypeEnum#text> ;
    cosmos_sdtm:isNonStandard false ;
    cosmos_sdtm:length 200 ;
    cosmos_sdtm:mandatoryValue false ;
    cosmos_sdtm:mandatoryVariable false ;
    cosmos_sdtm:name "CMSCAT" ;
    cosmos_sdtm:originSource NCIT:C70793 ;
    cosmos_sdtm:originType NCIT:C170547 ;
    cosmos_sdtm:role <https://www.cdisc.org/cosmos/sdtm_v1.0/RoleEnum#Qualifier> .

<https://w3id.org/cdisc/cosmos/dss/CM/CMPRIORBREASTCANCER/CMSTDTC> a cosmos_sdtm:SDTMVariable ;
    cosmos_sdtm:dataElementConceptId NCIT:C83235 ;
    cosmos_sdtm:dataType <https://www.cdisc.org/cosmos/sdtm_v1.0/SDTMVariableDataTypeEnum#datetime> ;
    cosmos_sdtm:isNonStandard false ;
    cosmos_sdtm:mandatoryValue false ;
    cosmos_sdtm:mandatoryVariable false ;
    cosmos_sdtm:name "CMSTDTC" ;
    cosmos_sdtm:originSource NCIT:C25936 ;
    cosmos_sdtm:originType NCIT:C170548 ;
    cosmos_sdtm:relationship <https://w3id.org/cdisc/cosmos/dss/CM/CMPRIORBREASTCANCER/CMSTDTC/relationship> ;
    cosmos_sdtm:role <https://www.cdisc.org/cosmos/sdtm_v1.0/RoleEnum#Timing> .

<https://w3id.org/cdisc/cosmos/dss/CM/CMPRIORBREASTCANCER/CMTRT> a cosmos_sdtm:SDTMVariable ;
    cosmos_sdtm:dataElementConceptId NCIT:C70902 ;
    cosmos_sdtm:dataType <https://www.cdisc.org/cosmos/sdtm_v1.0/SDTMVariableDataTypeEnum#text> ;
    cosmos_sdtm:isNonStandard false ;
    cosmos_sdtm:length 200 ;
    cosmos_sdtm:mandatoryValue true ;
    cosmos_sdtm:mandatoryVariable true ;
    cosmos_sdtm:name "CMTRT" ;
    cosmos_sdtm:originSource NCIT:C25936 ;
    cosmos_sdtm:originType NCIT:C170548 ;
    cosmos_sdtm:relationship <https://w3id.org/cdisc/cosmos/dss/CM/CMPRIORBREASTCANCER/CMTRT/relationship> ;
    cosmos_sdtm:role <https://www.cdisc.org/cosmos/sdtm_v1.0/RoleEnum#Topic> ;
    cosmos_sdtm:valueList "ABEMACICLIB",
        "AFINITOR",
        "ANASTROZOLE",
        "ARIMIDEX",
        "AROMASIN",
        "CAPECITABINE",
        "CYCLOPHOSPHAMIDE",
        "CYTOXAN",
        "DOCETAXEL",
        "DOXORUBICIN ADRIAMYCIN",
        "EVEROLIMUS",
        "EVISTA",
        "EXEMESTANE",
        "FASLODEX",
        "FULVESTRANT",
        "GEMCITABINE",
        "GEMZAR",
        "HERCEPTIN",
        "IBRANCE",
        "JAVLOR",
        "KEYTRUDA",
        "KISQALI",
        "LAPATINIB",
        "NEOSAR",
        "NERATINIB",
        "NERLYNX",
        "ONXOL",
        "PACLITAXEL",
        "PALBOCICLIB",
        "PEMBROLIZUMAB",
        "PERJETA",
        "PERTUZUMAB",
        "PETUZUMAB",
        "RALOXIFENE",
        "RIBOCICLIB",
        "SOLTAMOX",
        "TAMOXIFEN",
        "TAXOL",
        "TAXOTERE",
        "TRASTUZUMAB",
        "TUCATINIB",
        "TUKYSA",
        "TYKERB",
        "VERZENIO",
        "VINFLUNNINE",
        "XELODA" .

<https://w3id.org/cdisc/cosmos/dss/CM/CMPRIORBREASTCANCER/CMTRTINT> a cosmos_sdtm:SDTMVariable ;
    cosmos_sdtm:codelist NCIT:C124307 ;
    cosmos_sdtm:dataType <https://www.cdisc.org/cosmos/sdtm_v1.0/SDTMVariableDataTypeEnum#text> ;
    cosmos_sdtm:isNonStandard false ;
    cosmos_sdtm:length 200 ;
    cosmos_sdtm:mandatoryValue false ;
    cosmos_sdtm:mandatoryVariable false ;
    cosmos_sdtm:name "CMTRTINT" ;
    cosmos_sdtm:originSource NCIT:C25936 ;
    cosmos_sdtm:originType NCIT:C170548 ;
    cosmos_sdtm:relationship <https://w3id.org/cdisc/cosmos/dss/CM/CMPRIORBREASTCANCER/CMTRTINT/relationship> ;
    cosmos_sdtm:role <https://www.cdisc.org/cosmos/sdtm_v1.0/RoleEnum#Qualifier> ;
    cosmos_sdtm:valueList "CURATIVE",
        "PALLIATIVE" .

<https://w3id.org/cdisc/cosmos/dss/CM/CMPRIORBREASTCANCER/CMTRTSTT> a cosmos_sdtm:SDTMVariable ;
    cosmos_sdtm:codelist NCIT:C124308 ;
    cosmos_sdtm:dataType <https://www.cdisc.org/cosmos/sdtm_v1.0/SDTMVariableDataTypeEnum#text> ;
    cosmos_sdtm:isNonStandard false ;
    cosmos_sdtm:length 200 ;
    cosmos_sdtm:mandatoryValue false ;
    cosmos_sdtm:mandatoryVariable false ;
    cosmos_sdtm:name "CMTRTSTT" ;
    cosmos_sdtm:originSource NCIT:C25936 ;
    cosmos_sdtm:originType NCIT:C170548 ;
    cosmos_sdtm:relationship <https://w3id.org/cdisc/cosmos/dss/CM/CMPRIORBREASTCANCER/CMTRTSTT/relationship> ;
    cosmos_sdtm:role <https://www.cdisc.org/cosmos/sdtm_v1.0/RoleEnum#Qualifier> ;
    cosmos_sdtm:valueList "ADJUVANT",
        "LOCALLY ADVANCED",
        "METASTATIC",
        "NEO-ADJUVANT" .

<https://w3id.org/cdisc/cosmos/dss/CM/CMPRIORCANCER/CMCAT> a cosmos_sdtm:SDTMVariable ;
    cosmos_sdtm:assignedTerm <https://w3id.org/cdisc/cosmos/dss/CM/CMPRIORCANCER/CMCAT/assignedTerm> ;
    cosmos_sdtm:dataElementConceptId NCIT:C25372 ;
    cosmos_sdtm:dataType <https://www.cdisc.org/cosmos/sdtm_v1.0/SDTMVariableDataTypeEnum#text> ;
    cosmos_sdtm:isNonStandard false ;
    cosmos_sdtm:length 200 ;
    cosmos_sdtm:mandatoryValue false ;
    cosmos_sdtm:mandatoryVariable false ;
    cosmos_sdtm:name "CMCAT" ;
    cosmos_sdtm:originSource NCIT:C70793 ;
    cosmos_sdtm:originType NCIT:C170547 ;
    cosmos_sdtm:role <https://www.cdisc.org/cosmos/sdtm_v1.0/RoleEnum#Qualifier> .

<https://w3id.org/cdisc/cosmos/dss/CM/CMPRIORCANCER/CMCLAS> a cosmos_sdtm:SDTMVariable ;
    cosmos_sdtm:dataType <https://www.cdisc.org/cosmos/sdtm_v1.0/SDTMVariableDataTypeEnum#text> ;
    cosmos_sdtm:isNonStandard false ;
    cosmos_sdtm:length 200 ;
    cosmos_sdtm:mandatoryValue false ;
    cosmos_sdtm:mandatoryVariable false ;
    cosmos_sdtm:name "CMCLAS" ;
    cosmos_sdtm:originSource NCIT:C70793 ;
    cosmos_sdtm:originType NCIT:C170547 ;
    cosmos_sdtm:relationship <https://w3id.org/cdisc/cosmos/dss/CM/CMPRIORCANCER/CMCLAS/relationship> ;
    cosmos_sdtm:role <https://www.cdisc.org/cosmos/sdtm_v1.0/RoleEnum#Qualifier> .

<https://w3id.org/cdisc/cosmos/dss/CM/CMPRIORCANCER/CMCLASCD> a cosmos_sdtm:SDTMVariable ;
    cosmos_sdtm:dataType <https://www.cdisc.org/cosmos/sdtm_v1.0/SDTMVariableDataTypeEnum#text> ;
    cosmos_sdtm:isNonStandard false ;
    cosmos_sdtm:length 200 ;
    cosmos_sdtm:mandatoryValue false ;
    cosmos_sdtm:mandatoryVariable false ;
    cosmos_sdtm:name "CMCLASCD" ;
    cosmos_sdtm:originSource NCIT:C70793 ;
    cosmos_sdtm:originType NCIT:C170547 ;
    cosmos_sdtm:relationship <https://w3id.org/cdisc/cosmos/dss/CM/CMPRIORCANCER/CMCLASCD/relationship> ;
    cosmos_sdtm:role <https://www.cdisc.org/cosmos/sdtm_v1.0/RoleEnum#Qualifier> .

<https://w3id.org/cdisc/cosmos/dss/CM/CMPRIORCANCER/CMDECOD> a cosmos_sdtm:SDTMVariable ;
    cosmos_sdtm:dataElementConceptId NCIT:C83345 ;
    cosmos_sdtm:dataType <https://www.cdisc.org/cosmos/sdtm_v1.0/SDTMVariableDataTypeEnum#text> ;
    cosmos_sdtm:isNonStandard false ;
    cosmos_sdtm:length 200 ;
    cosmos_sdtm:mandatoryValue false ;
    cosmos_sdtm:mandatoryVariable false ;
    cosmos_sdtm:name "CMDECOD" ;
    cosmos_sdtm:originSource NCIT:C70793 ;
    cosmos_sdtm:originType NCIT:C170547 ;
    cosmos_sdtm:relationship <https://w3id.org/cdisc/cosmos/dss/CM/CMPRIORCANCER/CMDECOD/relationship> ;
    cosmos_sdtm:role <https://www.cdisc.org/cosmos/sdtm_v1.0/RoleEnum#Qualifier> .

<https://w3id.org/cdisc/cosmos/dss/CM/CMPRIORCANCER/CMDOSE> a cosmos_sdtm:SDTMVariable ;
    cosmos_sdtm:dataElementConceptId NCIT:C83221 ;
    cosmos_sdtm:dataType <https://www.cdisc.org/cosmos/sdtm_v1.0/SDTMVariableDataTypeEnum#text> ;
    cosmos_sdtm:isNonStandard false ;
    cosmos_sdtm:length 40 ;
    cosmos_sdtm:mandatoryValue false ;
    cosmos_sdtm:mandatoryVariable false ;
    cosmos_sdtm:name "CMDOSE" ;
    cosmos_sdtm:originSource NCIT:C25936 ;
    cosmos_sdtm:originType NCIT:C170548 ;
    cosmos_sdtm:relationship <https://w3id.org/cdisc/cosmos/dss/CM/CMPRIORCANCER/CMDOSE/relationship> ;
    cosmos_sdtm:role <https://www.cdisc.org/cosmos/sdtm_v1.0/RoleEnum#Qualifier> .

<https://w3id.org/cdisc/cosmos/dss/CM/CMPRIORCANCER/CMDOSFRM> a cosmos_sdtm:SDTMVariable ;
    cosmos_sdtm:codelist NCIT:C66726 ;
    cosmos_sdtm:dataElementConceptId NCIT:C83110 ;
    cosmos_sdtm:dataType <https://www.cdisc.org/cosmos/sdtm_v1.0/SDTMVariableDataTypeEnum#text> ;
    cosmos_sdtm:isNonStandard false ;
    cosmos_sdtm:length 40 ;
    cosmos_sdtm:mandatoryValue false ;
    cosmos_sdtm:mandatoryVariable false ;
    cosmos_sdtm:name "CMDOSFRM" ;
    cosmos_sdtm:originSource NCIT:C25936 ;
    cosmos_sdtm:originType NCIT:C170548 ;
    cosmos_sdtm:relationship <https://w3id.org/cdisc/cosmos/dss/CM/CMPRIORCANCER/CMDOSFRM/relationship> ;
    cosmos_sdtm:role <https://www.cdisc.org/cosmos/sdtm_v1.0/RoleEnum#Qualifier> .

<https://w3id.org/cdisc/cosmos/dss/CM/CMPRIORCANCER/CMDOSFRQ> a cosmos_sdtm:SDTMVariable ;
    cosmos_sdtm:codelist NCIT:C71113 ;
    cosmos_sdtm:dataType <https://www.cdisc.org/cosmos/sdtm_v1.0/SDTMVariableDataTypeEnum#text> ;
    cosmos_sdtm:isNonStandard false ;
    cosmos_sdtm:length 40 ;
    cosmos_sdtm:mandatoryValue false ;
    cosmos_sdtm:mandatoryVariable false ;
    cosmos_sdtm:name "CMDOSFRQ" ;
    cosmos_sdtm:originSource NCIT:C25936 ;
    cosmos_sdtm:originType NCIT:C170548 ;
    cosmos_sdtm:relationship <https://w3id.org/cdisc/cosmos/dss/CM/CMPRIORCANCER/CMDOSFRQ/relationship> ;
    cosmos_sdtm:role <https://www.cdisc.org/cosmos/sdtm_v1.0/RoleEnum#Qualifier> .

<https://w3id.org/cdisc/cosmos/dss/CM/CMPRIORCANCER/CMDOSRGM> a cosmos_sdtm:SDTMVariable ;
    cosmos_sdtm:dataType <https://www.cdisc.org/cosmos/sdtm_v1.0/SDTMVariableDataTypeEnum#text> ;
    cosmos_sdtm:isNonStandard false ;
    cosmos_sdtm:length 200 ;
    cosmos_sdtm:mandatoryValue false ;
    cosmos_sdtm:mandatoryVariable false ;
    cosmos_sdtm:name "CMDOSRGM" ;
    cosmos_sdtm:originSource NCIT:C25936 ;
    cosmos_sdtm:originType NCIT:C170548 ;
    cosmos_sdtm:relationship <https://w3id.org/cdisc/cosmos/dss/CM/CMPRIORCANCER/CMDOSRGM/relationship> ;
    cosmos_sdtm:role <https://www.cdisc.org/cosmos/sdtm_v1.0/RoleEnum#Qualifier> .

<https://w3id.org/cdisc/cosmos/dss/CM/CMPRIORCANCER/CMDOSU> a cosmos_sdtm:SDTMVariable ;
    cosmos_sdtm:codelist NCIT:C71620 ;
    cosmos_sdtm:dataElementConceptId NCIT:C83034 ;
    cosmos_sdtm:dataType <https://www.cdisc.org/cosmos/sdtm_v1.0/SDTMVariableDataTypeEnum#text> ;
    cosmos_sdtm:isNonStandard false ;
    cosmos_sdtm:length 40 ;
    cosmos_sdtm:mandatoryValue false ;
    cosmos_sdtm:mandatoryVariable false ;
    cosmos_sdtm:name "CMDOSU" ;
    cosmos_sdtm:originSource NCIT:C25936 ;
    cosmos_sdtm:originType NCIT:C170548 ;
    cosmos_sdtm:relationship <https://w3id.org/cdisc/cosmos/dss/CM/CMPRIORCANCER/CMDOSU/relationship> ;
    cosmos_sdtm:role <https://www.cdisc.org/cosmos/sdtm_v1.0/RoleEnum#Qualifier> .

<https://w3id.org/cdisc/cosmos/dss/CM/CMPRIORCANCER/CMENDTC> a cosmos_sdtm:SDTMVariable ;
    cosmos_sdtm:dataElementConceptId NCIT:C83225 ;
    cosmos_sdtm:dataType <https://www.cdisc.org/cosmos/sdtm_v1.0/SDTMVariableDataTypeEnum#datetime> ;
    cosmos_sdtm:isNonStandard false ;
    cosmos_sdtm:mandatoryValue false ;
    cosmos_sdtm:mandatoryVariable false ;
    cosmos_sdtm:name "CMENDTC" ;
    cosmos_sdtm:originSource NCIT:C25936 ;
    cosmos_sdtm:originType NCIT:C170548 ;
    cosmos_sdtm:relationship <https://w3id.org/cdisc/cosmos/dss/CM/CMPRIORCANCER/CMENDTC/relationship> ;
    cosmos_sdtm:role <https://www.cdisc.org/cosmos/sdtm_v1.0/RoleEnum#Timing> .

<https://w3id.org/cdisc/cosmos/dss/CM/CMPRIORCANCER/CMENRF> a cosmos_sdtm:SDTMVariable ;
    cosmos_sdtm:codelist NCIT:C66728 ;
    cosmos_sdtm:dataType <https://www.cdisc.org/cosmos/sdtm_v1.0/SDTMVariableDataTypeEnum#text> ;
    cosmos_sdtm:isNonStandard false ;
    cosmos_sdtm:length 40 ;
    cosmos_sdtm:mandatoryValue false ;
    cosmos_sdtm:mandatoryVariable false ;
    cosmos_sdtm:name "CMENRF" ;
    cosmos_sdtm:originSource NCIT:C25936 ;
    cosmos_sdtm:originType NCIT:C170548 ;
    cosmos_sdtm:role <https://www.cdisc.org/cosmos/sdtm_v1.0/RoleEnum#Timing> .

<https://w3id.org/cdisc/cosmos/dss/CM/CMPRIORCANCER/CMENRTPT> a cosmos_sdtm:SDTMVariable ;
    cosmos_sdtm:codelist NCIT:C66728 ;
    cosmos_sdtm:dataType <https://www.cdisc.org/cosmos/sdtm_v1.0/SDTMVariableDataTypeEnum#text> ;
    cosmos_sdtm:isNonStandard false ;
    cosmos_sdtm:length 40 ;
    cosmos_sdtm:mandatoryValue false ;
    cosmos_sdtm:mandatoryVariable false ;
    cosmos_sdtm:name "CMENRTPT" ;
    cosmos_sdtm:originSource NCIT:C70793 ;
    cosmos_sdtm:originType NCIT:C170547 ;
    cosmos_sdtm:role <https://www.cdisc.org/cosmos/sdtm_v1.0/RoleEnum#Timing> .

<https://w3id.org/cdisc/cosmos/dss/CM/CMPRIORCANCER/CMENTPT> a cosmos_sdtm:SDTMVariable ;
    cosmos_sdtm:dataType <https://www.cdisc.org/cosmos/sdtm_v1.0/SDTMVariableDataTypeEnum#datetime> ;
    cosmos_sdtm:isNonStandard false ;
    cosmos_sdtm:mandatoryValue false ;
    cosmos_sdtm:mandatoryVariable false ;
    cosmos_sdtm:name "CMENTPT" ;
    cosmos_sdtm:originSource NCIT:C70793 ;
    cosmos_sdtm:originType NCIT:C170547 ;
    cosmos_sdtm:role <https://www.cdisc.org/cosmos/sdtm_v1.0/RoleEnum#Timing> .

<https://w3id.org/cdisc/cosmos/dss/CM/CMPRIORCANCER/CMGRPID> a cosmos_sdtm:SDTMVariable ;
    cosmos_sdtm:dataType <https://www.cdisc.org/cosmos/sdtm_v1.0/SDTMVariableDataTypeEnum#text> ;
    cosmos_sdtm:isNonStandard false ;
    cosmos_sdtm:length 20 ;
    cosmos_sdtm:mandatoryValue false ;
    cosmos_sdtm:mandatoryVariable false ;
    cosmos_sdtm:name "CMGRPID" ;
    cosmos_sdtm:originSource NCIT:C70793 ;
    cosmos_sdtm:originType NCIT:C170547 ;
    cosmos_sdtm:relationship <https://w3id.org/cdisc/cosmos/dss/CM/CMPRIORCANCER/CMGRPID/relationship> ;
    cosmos_sdtm:role <https://www.cdisc.org/cosmos/sdtm_v1.0/RoleEnum#Qualifier> ;
    cosmos_sdtm:valueList "REGIMEN 1",
        "REGIMEN 2" .

<https://w3id.org/cdisc/cosmos/dss/CM/CMPRIORCANCER/CMINDC> a cosmos_sdtm:SDTMVariable ;
    cosmos_sdtm:dataElementConceptId NCIT:C83085 ;
    cosmos_sdtm:dataType <https://www.cdisc.org/cosmos/sdtm_v1.0/SDTMVariableDataTypeEnum#text> ;
    cosmos_sdtm:isNonStandard false ;
    cosmos_sdtm:length 200 ;
    cosmos_sdtm:mandatoryValue false ;
    cosmos_sdtm:mandatoryVariable false ;
    cosmos_sdtm:name "CMINDC" ;
    cosmos_sdtm:originSource NCIT:C25936 ;
    cosmos_sdtm:originType NCIT:C170548 ;
    cosmos_sdtm:relationship <https://w3id.org/cdisc/cosmos/dss/CM/CMPRIORCANCER/CMINDC/relationship> ;
    cosmos_sdtm:role <https://www.cdisc.org/cosmos/sdtm_v1.0/RoleEnum#Qualifier> .

<https://w3id.org/cdisc/cosmos/dss/CM/CMPRIORCANCER/CMOCCUR> a cosmos_sdtm:SDTMVariable ;
    cosmos_sdtm:codelist NCIT:C66742 ;
    cosmos_sdtm:dataElementConceptId NCIT:C127786 ;
    cosmos_sdtm:dataType <https://www.cdisc.org/cosmos/sdtm_v1.0/SDTMVariableDataTypeEnum#text> ;
    cosmos_sdtm:isNonStandard false ;
    cosmos_sdtm:length 1 ;
    cosmos_sdtm:mandatoryValue false ;
    cosmos_sdtm:mandatoryVariable false ;
    cosmos_sdtm:name "CMOCCUR" ;
    cosmos_sdtm:originSource NCIT:C25936 ;
    cosmos_sdtm:originType NCIT:C170548 ;
    cosmos_sdtm:relationship <https://w3id.org/cdisc/cosmos/dss/CM/CMPRIORCANCER/CMOCCUR/relationship> ;
    cosmos_sdtm:role <https://www.cdisc.org/cosmos/sdtm_v1.0/RoleEnum#Qualifier> .

<https://w3id.org/cdisc/cosmos/dss/CM/CMPRIORCANCER/CMPRESP> a cosmos_sdtm:SDTMVariable ;
    cosmos_sdtm:codelist NCIT:C66742 ;
    cosmos_sdtm:dataElementConceptId NCIT:C171000 ;
    cosmos_sdtm:dataType <https://www.cdisc.org/cosmos/sdtm_v1.0/SDTMVariableDataTypeEnum#text> ;
    cosmos_sdtm:isNonStandard false ;
    cosmos_sdtm:length 1 ;
    cosmos_sdtm:mandatoryValue false ;
    cosmos_sdtm:mandatoryVariable false ;
    cosmos_sdtm:name "CMPRESP" ;
    cosmos_sdtm:originSource NCIT:C70793 ;
    cosmos_sdtm:originType NCIT:C170547 ;
    cosmos_sdtm:relationship <https://w3id.org/cdisc/cosmos/dss/CM/CMPRIORCANCER/CMPRESP/relationship> ;
    cosmos_sdtm:role <https://www.cdisc.org/cosmos/sdtm_v1.0/RoleEnum#Qualifier> .

<https://w3id.org/cdisc/cosmos/dss/CM/CMPRIORCANCER/CMROUTE> a cosmos_sdtm:SDTMVariable ;
    cosmos_sdtm:codelist NCIT:C66729 ;
    cosmos_sdtm:dataElementConceptId NCIT:C83120 ;
    cosmos_sdtm:dataType <https://www.cdisc.org/cosmos/sdtm_v1.0/SDTMVariableDataTypeEnum#text> ;
    cosmos_sdtm:isNonStandard false ;
    cosmos_sdtm:length 200 ;
    cosmos_sdtm:mandatoryValue false ;
    cosmos_sdtm:mandatoryVariable false ;
    cosmos_sdtm:name "CMROUTE" ;
    cosmos_sdtm:originSource NCIT:C25936 ;
    cosmos_sdtm:originType NCIT:C170548 ;
    cosmos_sdtm:relationship <https://w3id.org/cdisc/cosmos/dss/CM/CMPRIORCANCER/CMROUTE/relationship> ;
    cosmos_sdtm:role <https://www.cdisc.org/cosmos/sdtm_v1.0/RoleEnum#Qualifier> .

<https://w3id.org/cdisc/cosmos/dss/CM/CMPRIORCANCER/CMRSDISC> a cosmos_sdtm:SDTMVariable ;
    cosmos_sdtm:dataType <https://www.cdisc.org/cosmos/sdtm_v1.0/SDTMVariableDataTypeEnum#text> ;
    cosmos_sdtm:isNonStandard false ;
    cosmos_sdtm:length 200 ;
    cosmos_sdtm:mandatoryValue false ;
    cosmos_sdtm:mandatoryVariable false ;
    cosmos_sdtm:name "CMRSDISC" ;
    cosmos_sdtm:originSource NCIT:C25936 ;
    cosmos_sdtm:originType NCIT:C170548 ;
    cosmos_sdtm:relationship <https://w3id.org/cdisc/cosmos/dss/CM/CMPRIORCANCER/CMRSDISC/relationship> ;
    cosmos_sdtm:role <https://www.cdisc.org/cosmos/sdtm_v1.0/RoleEnum#Qualifier> ;
    cosmos_sdtm:valueList "COMPLETED PRESCRIBED REGIMEN",
        "DISEASE PROGRESSION",
        "TOXICITY" .

<https://w3id.org/cdisc/cosmos/dss/CM/CMPRIORCANCER/CMSCAT> a cosmos_sdtm:SDTMVariable ;
    cosmos_sdtm:assignedTerm <https://w3id.org/cdisc/cosmos/dss/CM/CMPRIORCANCER/CMSCAT/assignedTerm> ;
    cosmos_sdtm:dataElementConceptId NCIT:C25692 ;
    cosmos_sdtm:dataType <https://www.cdisc.org/cosmos/sdtm_v1.0/SDTMVariableDataTypeEnum#text> ;
    cosmos_sdtm:isNonStandard false ;
    cosmos_sdtm:length 200 ;
    cosmos_sdtm:mandatoryValue false ;
    cosmos_sdtm:mandatoryVariable false ;
    cosmos_sdtm:name "CMSCAT" ;
    cosmos_sdtm:originSource NCIT:C70793 ;
    cosmos_sdtm:originType NCIT:C170547 ;
    cosmos_sdtm:role <https://www.cdisc.org/cosmos/sdtm_v1.0/RoleEnum#Qualifier> .

<https://w3id.org/cdisc/cosmos/dss/CM/CMPRIORCANCER/CMSTDTC> a cosmos_sdtm:SDTMVariable ;
    cosmos_sdtm:dataElementConceptId NCIT:C83235 ;
    cosmos_sdtm:dataType <https://www.cdisc.org/cosmos/sdtm_v1.0/SDTMVariableDataTypeEnum#datetime> ;
    cosmos_sdtm:isNonStandard false ;
    cosmos_sdtm:mandatoryValue false ;
    cosmos_sdtm:mandatoryVariable false ;
    cosmos_sdtm:name "CMSTDTC" ;
    cosmos_sdtm:originSource NCIT:C25936 ;
    cosmos_sdtm:originType NCIT:C170548 ;
    cosmos_sdtm:relationship <https://w3id.org/cdisc/cosmos/dss/CM/CMPRIORCANCER/CMSTDTC/relationship> ;
    cosmos_sdtm:role <https://www.cdisc.org/cosmos/sdtm_v1.0/RoleEnum#Timing> .

<https://w3id.org/cdisc/cosmos/dss/CM/CMPRIORCANCER/CMTRT> a cosmos_sdtm:SDTMVariable ;
    cosmos_sdtm:dataElementConceptId NCIT:C70902 ;
    cosmos_sdtm:dataType <https://www.cdisc.org/cosmos/sdtm_v1.0/SDTMVariableDataTypeEnum#text> ;
    cosmos_sdtm:isNonStandard false ;
    cosmos_sdtm:length 200 ;
    cosmos_sdtm:mandatoryValue true ;
    cosmos_sdtm:mandatoryVariable true ;
    cosmos_sdtm:name "CMTRT" ;
    cosmos_sdtm:originSource NCIT:C25936 ;
    cosmos_sdtm:originType NCIT:C170548 ;
    cosmos_sdtm:relationship <https://w3id.org/cdisc/cosmos/dss/CM/CMPRIORCANCER/CMTRT/relationship> ;
    cosmos_sdtm:role <https://www.cdisc.org/cosmos/sdtm_v1.0/RoleEnum#Topic> .

<https://w3id.org/cdisc/cosmos/dss/CM/CMPRIORCANCER/CMTRTINT> a cosmos_sdtm:SDTMVariable ;
    cosmos_sdtm:codelist NCIT:C124307 ;
    cosmos_sdtm:dataType <https://www.cdisc.org/cosmos/sdtm_v1.0/SDTMVariableDataTypeEnum#text> ;
    cosmos_sdtm:isNonStandard false ;
    cosmos_sdtm:length 200 ;
    cosmos_sdtm:mandatoryValue false ;
    cosmos_sdtm:mandatoryVariable false ;
    cosmos_sdtm:name "CMTRTINT" ;
    cosmos_sdtm:originSource NCIT:C25936 ;
    cosmos_sdtm:originType NCIT:C170548 ;
    cosmos_sdtm:relationship <https://w3id.org/cdisc/cosmos/dss/CM/CMPRIORCANCER/CMTRTINT/relationship> ;
    cosmos_sdtm:role <https://www.cdisc.org/cosmos/sdtm_v1.0/RoleEnum#Qualifier> ;
    cosmos_sdtm:valueList "CURATIVE",
        "PALLIATIVE" .

<https://w3id.org/cdisc/cosmos/dss/CM/CMPRIORCANCER/CMTRTSTT> a cosmos_sdtm:SDTMVariable ;
    cosmos_sdtm:codelist NCIT:C124308 ;
    cosmos_sdtm:dataType <https://www.cdisc.org/cosmos/sdtm_v1.0/SDTMVariableDataTypeEnum#text> ;
    cosmos_sdtm:isNonStandard false ;
    cosmos_sdtm:length 200 ;
    cosmos_sdtm:mandatoryValue false ;
    cosmos_sdtm:mandatoryVariable false ;
    cosmos_sdtm:name "CMTRTSTT" ;
    cosmos_sdtm:originSource NCIT:C25936 ;
    cosmos_sdtm:originType NCIT:C170548 ;
    cosmos_sdtm:relationship <https://w3id.org/cdisc/cosmos/dss/CM/CMPRIORCANCER/CMTRTSTT/relationship> ;
    cosmos_sdtm:role <https://www.cdisc.org/cosmos/sdtm_v1.0/RoleEnum#Qualifier> ;
    cosmos_sdtm:valueList "ADJUVANT",
        "LOCALLY ADVANCED",
        "METASTATIC",
        "NEO-ADJUVANT" .

NCIT:C66726 a cosmos_sdtm:CodeList ;
    dcterms:identifier "C66726" ;
    skos:exactMatch <http://ncicb.nci.nih.gov/xml/owl/EVS/Thesaurus.owl#C66726> ;
    cosmos_sdtm:submissionValue "FRM" .

NCIT:C66729 a cosmos_sdtm:CodeList ;
    dcterms:identifier "C66729" ;
    skos:exactMatch <http://ncicb.nci.nih.gov/xml/owl/EVS/Thesaurus.owl#C66729> ;
    cosmos_sdtm:submissionValue "ROUTE" .

NCIT:C71113 a cosmos_sdtm:CodeList ;
    dcterms:identifier "C71113" ;
    skos:exactMatch <http://ncicb.nci.nih.gov/xml/owl/EVS/Thesaurus.owl#C71113> ;
    cosmos_sdtm:submissionValue "FREQ" .

NCIT:C71620 a cosmos_sdtm:CodeList ;
    dcterms:identifier "C71620" ;
    skos:exactMatch <http://ncicb.nci.nih.gov/xml/owl/EVS/Thesaurus.owl#C71620> ;
    cosmos_sdtm:submissionValue "UNIT" .

NCIT:C66742 a cosmos_sdtm:CodeList ;
    dcterms:identifier "C66742" ;
    skos:exactMatch <http://ncicb.nci.nih.gov/xml/owl/EVS/Thesaurus.owl#C66742> ;
    cosmos_sdtm:submissionValue "NY" .

NCIT:C66728 a cosmos_sdtm:CodeList ;
    dcterms:identifier "C66728" ;
    skos:exactMatch <http://ncicb.nci.nih.gov/xml/owl/EVS/Thesaurus.owl#C66728> ;
    cosmos_sdtm:submissionValue "STENRF" .

