@prefix NCIT: <http://purl.obolibrary.org/obo/NCIT_> .
@prefix cosmos_sdtm: <https://www.cdisc.org/cosmos/sdtm_v1.0/> .
@prefix dcterms: <http://purl.org/dc/terms/> .
@prefix owl: <http://www.w3.org/2002/07/owl#> .
@prefix rdf: <http://www.w3.org/1999/02/22-rdf-syntax-ns#> .
@prefix rdfs: <http://www.w3.org/2000/01/rdf-schema#> .
@prefix skos: <http://www.w3.org/2004/02/skos/core#> .
@prefix xsd: <http://www.w3.org/2001/XMLSchema#> .

<https://w3id.org/cdisc/cosmos/dss/IS> a owl:Ontology ;
    rdfs:label "CDISC COSMoS Dataset Specializations, IS (instances)" ;
    dcterms:identifier "2026-07-14" ;
    dcterms:source <https://raw.githubusercontent.com/cdisc-org/COSMoS/031429b1d14823721991cd23ee88a11616686ce3/export/cdisc_sdtm_dataset_specializations_latest.csv> ;
    rdfs:comment "Dataset Specialization instances for domain IS, rendered from the pinned COSMoS export. Variable order is the export's row order, carried as rdf:_n membership beside the variables edges. length and significantDigits are cast from the export's decimal form to integer; packageType is not in the export and is set to the enum's single value. A biomedicalConceptId or dataElementConceptId that resolves to no node is carried as the published string. The concept nodes those edges reach are declared in the Biomedical Concept instance graph, which is not imported. Draft - not a normative CDISC artifact." ;
    owl:imports <https://w3id.org/cdisc/cosmos/sdtm/> ;
    owl:versionIRI <https://w3id.org/cdisc/cosmos/dss/IS/0.4.0> ;
    owl:versionInfo "v0.4.0" .

<https://w3id.org/cdisc/cosmos/dss/IS/ARIGAABACA> a cosmos_sdtm:SDTMGroup ;
    dcterms:identifier "ARIGAABACA" ;
    rdf:_1 <https://w3id.org/cdisc/cosmos/dss/IS/ARIGAABACA/ISTESTCD> ;
    rdf:_10 <https://w3id.org/cdisc/cosmos/dss/IS/ARIGAABACA/ISSTRESU> ;
    rdf:_11 <https://w3id.org/cdisc/cosmos/dss/IS/ARIGAABACA/ISSPEC> ;
    rdf:_12 <https://w3id.org/cdisc/cosmos/dss/IS/ARIGAABACA/ISMETHOD> ;
    rdf:_13 <https://w3id.org/cdisc/cosmos/dss/IS/ARIGAABACA/ISDTC> ;
    rdf:_2 <https://w3id.org/cdisc/cosmos/dss/IS/ARIGAABACA/ISTEST> ;
    rdf:_3 <https://w3id.org/cdisc/cosmos/dss/IS/ARIGAABACA/ISBDAGNT> ;
    rdf:_4 <https://w3id.org/cdisc/cosmos/dss/IS/ARIGAABACA/ISCAT> ;
    rdf:_5 <https://w3id.org/cdisc/cosmos/dss/IS/ARIGAABACA/ISSCAT> ;
    rdf:_6 <https://w3id.org/cdisc/cosmos/dss/IS/ARIGAABACA/ISORRES> ;
    rdf:_7 <https://w3id.org/cdisc/cosmos/dss/IS/ARIGAABACA/ISORRESU> ;
    rdf:_8 <https://w3id.org/cdisc/cosmos/dss/IS/ARIGAABACA/ISSTRESC> ;
    rdf:_9 <https://w3id.org/cdisc/cosmos/dss/IS/ARIGAABACA/ISSTRESN> ;
    cosmos_sdtm:biomedicalConceptId NCIT:C187776 ;
    cosmos_sdtm:domain "IS" ;
    cosmos_sdtm:packageDate "2026-05-26"^^xsd:date ;
    cosmos_sdtm:packageType <https://www.cdisc.org/cosmos/sdtm_v1.0/PackageTypeEnum#sdtm> ;
    cosmos_sdtm:sdtmigStartVersion "3-4" ;
    cosmos_sdtm:shortName "Allergen-induced IgA Antibody for American Cockroach Antigen" ;
    cosmos_sdtm:source "IS.ISTESTCD" ;
    cosmos_sdtm:variables <https://w3id.org/cdisc/cosmos/dss/IS/ARIGAABACA/ISBDAGNT>,
        <https://w3id.org/cdisc/cosmos/dss/IS/ARIGAABACA/ISCAT>,
        <https://w3id.org/cdisc/cosmos/dss/IS/ARIGAABACA/ISDTC>,
        <https://w3id.org/cdisc/cosmos/dss/IS/ARIGAABACA/ISMETHOD>,
        <https://w3id.org/cdisc/cosmos/dss/IS/ARIGAABACA/ISORRES>,
        <https://w3id.org/cdisc/cosmos/dss/IS/ARIGAABACA/ISORRESU>,
        <https://w3id.org/cdisc/cosmos/dss/IS/ARIGAABACA/ISSCAT>,
        <https://w3id.org/cdisc/cosmos/dss/IS/ARIGAABACA/ISSPEC>,
        <https://w3id.org/cdisc/cosmos/dss/IS/ARIGAABACA/ISSTRESC>,
        <https://w3id.org/cdisc/cosmos/dss/IS/ARIGAABACA/ISSTRESN>,
        <https://w3id.org/cdisc/cosmos/dss/IS/ARIGAABACA/ISSTRESU>,
        <https://w3id.org/cdisc/cosmos/dss/IS/ARIGAABACA/ISTEST>,
        <https://w3id.org/cdisc/cosmos/dss/IS/ARIGAABACA/ISTESTCD> .

<https://w3id.org/cdisc/cosmos/dss/IS/ARIGAABALTERNARIA> a cosmos_sdtm:SDTMGroup ;
    dcterms:identifier "ARIGAABALTERNARIA" ;
    rdf:_1 <https://w3id.org/cdisc/cosmos/dss/IS/ARIGAABALTERNARIA/ISTESTCD> ;
    rdf:_10 <https://w3id.org/cdisc/cosmos/dss/IS/ARIGAABALTERNARIA/ISSTRESU> ;
    rdf:_11 <https://w3id.org/cdisc/cosmos/dss/IS/ARIGAABALTERNARIA/ISSPEC> ;
    rdf:_12 <https://w3id.org/cdisc/cosmos/dss/IS/ARIGAABALTERNARIA/ISMETHOD> ;
    rdf:_13 <https://w3id.org/cdisc/cosmos/dss/IS/ARIGAABALTERNARIA/ISDTC> ;
    rdf:_2 <https://w3id.org/cdisc/cosmos/dss/IS/ARIGAABALTERNARIA/ISTEST> ;
    rdf:_3 <https://w3id.org/cdisc/cosmos/dss/IS/ARIGAABALTERNARIA/ISBDAGNT> ;
    rdf:_4 <https://w3id.org/cdisc/cosmos/dss/IS/ARIGAABALTERNARIA/ISCAT> ;
    rdf:_5 <https://w3id.org/cdisc/cosmos/dss/IS/ARIGAABALTERNARIA/ISSCAT> ;
    rdf:_6 <https://w3id.org/cdisc/cosmos/dss/IS/ARIGAABALTERNARIA/ISORRES> ;
    rdf:_7 <https://w3id.org/cdisc/cosmos/dss/IS/ARIGAABALTERNARIA/ISORRESU> ;
    rdf:_8 <https://w3id.org/cdisc/cosmos/dss/IS/ARIGAABALTERNARIA/ISSTRESC> ;
    rdf:_9 <https://w3id.org/cdisc/cosmos/dss/IS/ARIGAABALTERNARIA/ISSTRESN> ;
    cosmos_sdtm:biomedicalConceptId NCIT:C187776 ;
    cosmos_sdtm:domain "IS" ;
    cosmos_sdtm:packageDate "2026-05-26"^^xsd:date ;
    cosmos_sdtm:packageType <https://www.cdisc.org/cosmos/sdtm_v1.0/PackageTypeEnum#sdtm> ;
    cosmos_sdtm:sdtmigStartVersion "3-4" ;
    cosmos_sdtm:shortName "Allergen-induced IgA Antibody for Alternaria Alternata" ;
    cosmos_sdtm:source "IS.ISTESTCD" ;
    cosmos_sdtm:variables <https://w3id.org/cdisc/cosmos/dss/IS/ARIGAABALTERNARIA/ISBDAGNT>,
        <https://w3id.org/cdisc/cosmos/dss/IS/ARIGAABALTERNARIA/ISCAT>,
        <https://w3id.org/cdisc/cosmos/dss/IS/ARIGAABALTERNARIA/ISDTC>,
        <https://w3id.org/cdisc/cosmos/dss/IS/ARIGAABALTERNARIA/ISMETHOD>,
        <https://w3id.org/cdisc/cosmos/dss/IS/ARIGAABALTERNARIA/ISORRES>,
        <https://w3id.org/cdisc/cosmos/dss/IS/ARIGAABALTERNARIA/ISORRESU>,
        <https://w3id.org/cdisc/cosmos/dss/IS/ARIGAABALTERNARIA/ISSCAT>,
        <https://w3id.org/cdisc/cosmos/dss/IS/ARIGAABALTERNARIA/ISSPEC>,
        <https://w3id.org/cdisc/cosmos/dss/IS/ARIGAABALTERNARIA/ISSTRESC>,
        <https://w3id.org/cdisc/cosmos/dss/IS/ARIGAABALTERNARIA/ISSTRESN>,
        <https://w3id.org/cdisc/cosmos/dss/IS/ARIGAABALTERNARIA/ISSTRESU>,
        <https://w3id.org/cdisc/cosmos/dss/IS/ARIGAABALTERNARIA/ISTEST>,
        <https://w3id.org/cdisc/cosmos/dss/IS/ARIGAABALTERNARIA/ISTESTCD> .

<https://w3id.org/cdisc/cosmos/dss/IS/ARIGAABBGP> a cosmos_sdtm:SDTMGroup ;
    dcterms:identifier "ARIGAABBGP" ;
    rdf:_1 <https://w3id.org/cdisc/cosmos/dss/IS/ARIGAABBGP/ISTESTCD> ;
    rdf:_10 <https://w3id.org/cdisc/cosmos/dss/IS/ARIGAABBGP/ISSTRESU> ;
    rdf:_11 <https://w3id.org/cdisc/cosmos/dss/IS/ARIGAABBGP/ISSPEC> ;
    rdf:_12 <https://w3id.org/cdisc/cosmos/dss/IS/ARIGAABBGP/ISMETHOD> ;
    rdf:_13 <https://w3id.org/cdisc/cosmos/dss/IS/ARIGAABBGP/ISDTC> ;
    rdf:_2 <https://w3id.org/cdisc/cosmos/dss/IS/ARIGAABBGP/ISTEST> ;
    rdf:_3 <https://w3id.org/cdisc/cosmos/dss/IS/ARIGAABBGP/ISBDAGNT> ;
    rdf:_4 <https://w3id.org/cdisc/cosmos/dss/IS/ARIGAABBGP/ISCAT> ;
    rdf:_5 <https://w3id.org/cdisc/cosmos/dss/IS/ARIGAABBGP/ISSCAT> ;
    rdf:_6 <https://w3id.org/cdisc/cosmos/dss/IS/ARIGAABBGP/ISORRES> ;
    rdf:_7 <https://w3id.org/cdisc/cosmos/dss/IS/ARIGAABBGP/ISORRESU> ;
    rdf:_8 <https://w3id.org/cdisc/cosmos/dss/IS/ARIGAABBGP/ISSTRESC> ;
    rdf:_9 <https://w3id.org/cdisc/cosmos/dss/IS/ARIGAABBGP/ISSTRESN> ;
    cosmos_sdtm:biomedicalConceptId NCIT:C187776 ;
    cosmos_sdtm:domain "IS" ;
    cosmos_sdtm:packageDate "2026-05-26"^^xsd:date ;
    cosmos_sdtm:packageType <https://www.cdisc.org/cosmos/sdtm_v1.0/PackageTypeEnum#sdtm> ;
    cosmos_sdtm:sdtmigStartVersion "3-4" ;
    cosmos_sdtm:shortName "Allergen-induced IgA Antibody for Bermuda Grass Pollen" ;
    cosmos_sdtm:source "IS.ISTESTCD" ;
    cosmos_sdtm:variables <https://w3id.org/cdisc/cosmos/dss/IS/ARIGAABBGP/ISBDAGNT>,
        <https://w3id.org/cdisc/cosmos/dss/IS/ARIGAABBGP/ISCAT>,
        <https://w3id.org/cdisc/cosmos/dss/IS/ARIGAABBGP/ISDTC>,
        <https://w3id.org/cdisc/cosmos/dss/IS/ARIGAABBGP/ISMETHOD>,
        <https://w3id.org/cdisc/cosmos/dss/IS/ARIGAABBGP/ISORRES>,
        <https://w3id.org/cdisc/cosmos/dss/IS/ARIGAABBGP/ISORRESU>,
        <https://w3id.org/cdisc/cosmos/dss/IS/ARIGAABBGP/ISSCAT>,
        <https://w3id.org/cdisc/cosmos/dss/IS/ARIGAABBGP/ISSPEC>,
        <https://w3id.org/cdisc/cosmos/dss/IS/ARIGAABBGP/ISSTRESC>,
        <https://w3id.org/cdisc/cosmos/dss/IS/ARIGAABBGP/ISSTRESN>,
        <https://w3id.org/cdisc/cosmos/dss/IS/ARIGAABBGP/ISSTRESU>,
        <https://w3id.org/cdisc/cosmos/dss/IS/ARIGAABBGP/ISTEST>,
        <https://w3id.org/cdisc/cosmos/dss/IS/ARIGAABBGP/ISTESTCD> .

<https://w3id.org/cdisc/cosmos/dss/IS/ARIGAABCDA> a cosmos_sdtm:SDTMGroup ;
    dcterms:identifier "ARIGAABCDA" ;
    rdf:_1 <https://w3id.org/cdisc/cosmos/dss/IS/ARIGAABCDA/ISTESTCD> ;
    rdf:_10 <https://w3id.org/cdisc/cosmos/dss/IS/ARIGAABCDA/ISSTRESU> ;
    rdf:_11 <https://w3id.org/cdisc/cosmos/dss/IS/ARIGAABCDA/ISSPEC> ;
    rdf:_12 <https://w3id.org/cdisc/cosmos/dss/IS/ARIGAABCDA/ISMETHOD> ;
    rdf:_13 <https://w3id.org/cdisc/cosmos/dss/IS/ARIGAABCDA/ISDTC> ;
    rdf:_2 <https://w3id.org/cdisc/cosmos/dss/IS/ARIGAABCDA/ISTEST> ;
    rdf:_3 <https://w3id.org/cdisc/cosmos/dss/IS/ARIGAABCDA/ISBDAGNT> ;
    rdf:_4 <https://w3id.org/cdisc/cosmos/dss/IS/ARIGAABCDA/ISCAT> ;
    rdf:_5 <https://w3id.org/cdisc/cosmos/dss/IS/ARIGAABCDA/ISSCAT> ;
    rdf:_6 <https://w3id.org/cdisc/cosmos/dss/IS/ARIGAABCDA/ISORRES> ;
    rdf:_7 <https://w3id.org/cdisc/cosmos/dss/IS/ARIGAABCDA/ISORRESU> ;
    rdf:_8 <https://w3id.org/cdisc/cosmos/dss/IS/ARIGAABCDA/ISSTRESC> ;
    rdf:_9 <https://w3id.org/cdisc/cosmos/dss/IS/ARIGAABCDA/ISSTRESN> ;
    cosmos_sdtm:biomedicalConceptId NCIT:C187776 ;
    cosmos_sdtm:domain "IS" ;
    cosmos_sdtm:packageDate "2026-05-26"^^xsd:date ;
    cosmos_sdtm:packageType <https://www.cdisc.org/cosmos/sdtm_v1.0/PackageTypeEnum#sdtm> ;
    cosmos_sdtm:sdtmigStartVersion "3-4" ;
    cosmos_sdtm:shortName "Allergen-induced IgA Antibody for Cat Dander Antigen" ;
    cosmos_sdtm:source "IS.ISTESTCD" ;
    cosmos_sdtm:variables <https://w3id.org/cdisc/cosmos/dss/IS/ARIGAABCDA/ISBDAGNT>,
        <https://w3id.org/cdisc/cosmos/dss/IS/ARIGAABCDA/ISCAT>,
        <https://w3id.org/cdisc/cosmos/dss/IS/ARIGAABCDA/ISDTC>,
        <https://w3id.org/cdisc/cosmos/dss/IS/ARIGAABCDA/ISMETHOD>,
        <https://w3id.org/cdisc/cosmos/dss/IS/ARIGAABCDA/ISORRES>,
        <https://w3id.org/cdisc/cosmos/dss/IS/ARIGAABCDA/ISORRESU>,
        <https://w3id.org/cdisc/cosmos/dss/IS/ARIGAABCDA/ISSCAT>,
        <https://w3id.org/cdisc/cosmos/dss/IS/ARIGAABCDA/ISSPEC>,
        <https://w3id.org/cdisc/cosmos/dss/IS/ARIGAABCDA/ISSTRESC>,
        <https://w3id.org/cdisc/cosmos/dss/IS/ARIGAABCDA/ISSTRESN>,
        <https://w3id.org/cdisc/cosmos/dss/IS/ARIGAABCDA/ISSTRESU>,
        <https://w3id.org/cdisc/cosmos/dss/IS/ARIGAABCDA/ISTEST>,
        <https://w3id.org/cdisc/cosmos/dss/IS/ARIGAABCDA/ISTESTCD> .

<https://w3id.org/cdisc/cosmos/dss/IS/ARIGAABDDA> a cosmos_sdtm:SDTMGroup ;
    dcterms:identifier "ARIGAABDDA" ;
    rdf:_1 <https://w3id.org/cdisc/cosmos/dss/IS/ARIGAABDDA/ISTESTCD> ;
    rdf:_10 <https://w3id.org/cdisc/cosmos/dss/IS/ARIGAABDDA/ISSTRESU> ;
    rdf:_11 <https://w3id.org/cdisc/cosmos/dss/IS/ARIGAABDDA/ISSPEC> ;
    rdf:_12 <https://w3id.org/cdisc/cosmos/dss/IS/ARIGAABDDA/ISMETHOD> ;
    rdf:_13 <https://w3id.org/cdisc/cosmos/dss/IS/ARIGAABDDA/ISDTC> ;
    rdf:_2 <https://w3id.org/cdisc/cosmos/dss/IS/ARIGAABDDA/ISTEST> ;
    rdf:_3 <https://w3id.org/cdisc/cosmos/dss/IS/ARIGAABDDA/ISBDAGNT> ;
    rdf:_4 <https://w3id.org/cdisc/cosmos/dss/IS/ARIGAABDDA/ISCAT> ;
    rdf:_5 <https://w3id.org/cdisc/cosmos/dss/IS/ARIGAABDDA/ISSCAT> ;
    rdf:_6 <https://w3id.org/cdisc/cosmos/dss/IS/ARIGAABDDA/ISORRES> ;
    rdf:_7 <https://w3id.org/cdisc/cosmos/dss/IS/ARIGAABDDA/ISORRESU> ;
    rdf:_8 <https://w3id.org/cdisc/cosmos/dss/IS/ARIGAABDDA/ISSTRESC> ;
    rdf:_9 <https://w3id.org/cdisc/cosmos/dss/IS/ARIGAABDDA/ISSTRESN> ;
    cosmos_sdtm:biomedicalConceptId NCIT:C187776 ;
    cosmos_sdtm:domain "IS" ;
    cosmos_sdtm:packageDate "2026-05-26"^^xsd:date ;
    cosmos_sdtm:packageType <https://www.cdisc.org/cosmos/sdtm_v1.0/PackageTypeEnum#sdtm> ;
    cosmos_sdtm:sdtmigStartVersion "3-4" ;
    cosmos_sdtm:shortName "Allergen-induced IgA Antibody for Dog Dander Antigen" ;
    cosmos_sdtm:source "IS.ISTESTCD" ;
    cosmos_sdtm:variables <https://w3id.org/cdisc/cosmos/dss/IS/ARIGAABDDA/ISBDAGNT>,
        <https://w3id.org/cdisc/cosmos/dss/IS/ARIGAABDDA/ISCAT>,
        <https://w3id.org/cdisc/cosmos/dss/IS/ARIGAABDDA/ISDTC>,
        <https://w3id.org/cdisc/cosmos/dss/IS/ARIGAABDDA/ISMETHOD>,
        <https://w3id.org/cdisc/cosmos/dss/IS/ARIGAABDDA/ISORRES>,
        <https://w3id.org/cdisc/cosmos/dss/IS/ARIGAABDDA/ISORRESU>,
        <https://w3id.org/cdisc/cosmos/dss/IS/ARIGAABDDA/ISSCAT>,
        <https://w3id.org/cdisc/cosmos/dss/IS/ARIGAABDDA/ISSPEC>,
        <https://w3id.org/cdisc/cosmos/dss/IS/ARIGAABDDA/ISSTRESC>,
        <https://w3id.org/cdisc/cosmos/dss/IS/ARIGAABDDA/ISSTRESN>,
        <https://w3id.org/cdisc/cosmos/dss/IS/ARIGAABDDA/ISSTRESU>,
        <https://w3id.org/cdisc/cosmos/dss/IS/ARIGAABDDA/ISTEST>,
        <https://w3id.org/cdisc/cosmos/dss/IS/ARIGAABDDA/ISTESTCD> .

<https://w3id.org/cdisc/cosmos/dss/IS/ARIGAABEPP> a cosmos_sdtm:SDTMGroup ;
    dcterms:identifier "ARIGAABEPP" ;
    rdf:_1 <https://w3id.org/cdisc/cosmos/dss/IS/ARIGAABEPP/ISTESTCD> ;
    rdf:_10 <https://w3id.org/cdisc/cosmos/dss/IS/ARIGAABEPP/ISSTRESU> ;
    rdf:_11 <https://w3id.org/cdisc/cosmos/dss/IS/ARIGAABEPP/ISSPEC> ;
    rdf:_12 <https://w3id.org/cdisc/cosmos/dss/IS/ARIGAABEPP/ISMETHOD> ;
    rdf:_13 <https://w3id.org/cdisc/cosmos/dss/IS/ARIGAABEPP/ISDTC> ;
    rdf:_2 <https://w3id.org/cdisc/cosmos/dss/IS/ARIGAABEPP/ISTEST> ;
    rdf:_3 <https://w3id.org/cdisc/cosmos/dss/IS/ARIGAABEPP/ISBDAGNT> ;
    rdf:_4 <https://w3id.org/cdisc/cosmos/dss/IS/ARIGAABEPP/ISCAT> ;
    rdf:_5 <https://w3id.org/cdisc/cosmos/dss/IS/ARIGAABEPP/ISSCAT> ;
    rdf:_6 <https://w3id.org/cdisc/cosmos/dss/IS/ARIGAABEPP/ISORRES> ;
    rdf:_7 <https://w3id.org/cdisc/cosmos/dss/IS/ARIGAABEPP/ISORRESU> ;
    rdf:_8 <https://w3id.org/cdisc/cosmos/dss/IS/ARIGAABEPP/ISSTRESC> ;
    rdf:_9 <https://w3id.org/cdisc/cosmos/dss/IS/ARIGAABEPP/ISSTRESN> ;
    cosmos_sdtm:biomedicalConceptId NCIT:C187776 ;
    cosmos_sdtm:domain "IS" ;
    cosmos_sdtm:packageDate "2026-05-26"^^xsd:date ;
    cosmos_sdtm:packageType <https://www.cdisc.org/cosmos/sdtm_v1.0/PackageTypeEnum#sdtm> ;
    cosmos_sdtm:sdtmigStartVersion "3-4" ;
    cosmos_sdtm:shortName "Allergen-induced IgA Antibody for English Plantain Pollen" ;
    cosmos_sdtm:source "IS.ISTESTCD" ;
    cosmos_sdtm:variables <https://w3id.org/cdisc/cosmos/dss/IS/ARIGAABEPP/ISBDAGNT>,
        <https://w3id.org/cdisc/cosmos/dss/IS/ARIGAABEPP/ISCAT>,
        <https://w3id.org/cdisc/cosmos/dss/IS/ARIGAABEPP/ISDTC>,
        <https://w3id.org/cdisc/cosmos/dss/IS/ARIGAABEPP/ISMETHOD>,
        <https://w3id.org/cdisc/cosmos/dss/IS/ARIGAABEPP/ISORRES>,
        <https://w3id.org/cdisc/cosmos/dss/IS/ARIGAABEPP/ISORRESU>,
        <https://w3id.org/cdisc/cosmos/dss/IS/ARIGAABEPP/ISSCAT>,
        <https://w3id.org/cdisc/cosmos/dss/IS/ARIGAABEPP/ISSPEC>,
        <https://w3id.org/cdisc/cosmos/dss/IS/ARIGAABEPP/ISSTRESC>,
        <https://w3id.org/cdisc/cosmos/dss/IS/ARIGAABEPP/ISSTRESN>,
        <https://w3id.org/cdisc/cosmos/dss/IS/ARIGAABEPP/ISSTRESU>,
        <https://w3id.org/cdisc/cosmos/dss/IS/ARIGAABEPP/ISTEST>,
        <https://w3id.org/cdisc/cosmos/dss/IS/ARIGAABEPP/ISTESTCD> .

<https://w3id.org/cdisc/cosmos/dss/IS/ARIGAABGA> a cosmos_sdtm:SDTMGroup ;
    dcterms:identifier "ARIGAABGA" ;
    rdf:_1 <https://w3id.org/cdisc/cosmos/dss/IS/ARIGAABGA/ISTESTCD> ;
    rdf:_10 <https://w3id.org/cdisc/cosmos/dss/IS/ARIGAABGA/ISSTRESU> ;
    rdf:_11 <https://w3id.org/cdisc/cosmos/dss/IS/ARIGAABGA/ISSPEC> ;
    rdf:_12 <https://w3id.org/cdisc/cosmos/dss/IS/ARIGAABGA/ISMETHOD> ;
    rdf:_13 <https://w3id.org/cdisc/cosmos/dss/IS/ARIGAABGA/ISDTC> ;
    rdf:_2 <https://w3id.org/cdisc/cosmos/dss/IS/ARIGAABGA/ISTEST> ;
    rdf:_3 <https://w3id.org/cdisc/cosmos/dss/IS/ARIGAABGA/ISBDAGNT> ;
    rdf:_4 <https://w3id.org/cdisc/cosmos/dss/IS/ARIGAABGA/ISCAT> ;
    rdf:_5 <https://w3id.org/cdisc/cosmos/dss/IS/ARIGAABGA/ISSCAT> ;
    rdf:_6 <https://w3id.org/cdisc/cosmos/dss/IS/ARIGAABGA/ISORRES> ;
    rdf:_7 <https://w3id.org/cdisc/cosmos/dss/IS/ARIGAABGA/ISORRESU> ;
    rdf:_8 <https://w3id.org/cdisc/cosmos/dss/IS/ARIGAABGA/ISSTRESC> ;
    rdf:_9 <https://w3id.org/cdisc/cosmos/dss/IS/ARIGAABGA/ISSTRESN> ;
    cosmos_sdtm:biomedicalConceptId NCIT:C187776 ;
    cosmos_sdtm:domain "IS" ;
    cosmos_sdtm:packageDate "2026-05-26"^^xsd:date ;
    cosmos_sdtm:packageType <https://www.cdisc.org/cosmos/sdtm_v1.0/PackageTypeEnum#sdtm> ;
    cosmos_sdtm:sdtmigStartVersion "3-4" ;
    cosmos_sdtm:shortName "Allergen-induced IgA Antibody for Gliadin Antigen" ;
    cosmos_sdtm:source "IS.ISTESTCD" ;
    cosmos_sdtm:variables <https://w3id.org/cdisc/cosmos/dss/IS/ARIGAABGA/ISBDAGNT>,
        <https://w3id.org/cdisc/cosmos/dss/IS/ARIGAABGA/ISCAT>,
        <https://w3id.org/cdisc/cosmos/dss/IS/ARIGAABGA/ISDTC>,
        <https://w3id.org/cdisc/cosmos/dss/IS/ARIGAABGA/ISMETHOD>,
        <https://w3id.org/cdisc/cosmos/dss/IS/ARIGAABGA/ISORRES>,
        <https://w3id.org/cdisc/cosmos/dss/IS/ARIGAABGA/ISORRESU>,
        <https://w3id.org/cdisc/cosmos/dss/IS/ARIGAABGA/ISSCAT>,
        <https://w3id.org/cdisc/cosmos/dss/IS/ARIGAABGA/ISSPEC>,
        <https://w3id.org/cdisc/cosmos/dss/IS/ARIGAABGA/ISSTRESC>,
        <https://w3id.org/cdisc/cosmos/dss/IS/ARIGAABGA/ISSTRESN>,
        <https://w3id.org/cdisc/cosmos/dss/IS/ARIGAABGA/ISSTRESU>,
        <https://w3id.org/cdisc/cosmos/dss/IS/ARIGAABGA/ISTEST>,
        <https://w3id.org/cdisc/cosmos/dss/IS/ARIGAABGA/ISTESTCD> .

<https://w3id.org/cdisc/cosmos/dss/IS/ARIGAABGCA> a cosmos_sdtm:SDTMGroup ;
    dcterms:identifier "ARIGAABGCA" ;
    rdf:_1 <https://w3id.org/cdisc/cosmos/dss/IS/ARIGAABGCA/ISTESTCD> ;
    rdf:_10 <https://w3id.org/cdisc/cosmos/dss/IS/ARIGAABGCA/ISSTRESU> ;
    rdf:_11 <https://w3id.org/cdisc/cosmos/dss/IS/ARIGAABGCA/ISSPEC> ;
    rdf:_12 <https://w3id.org/cdisc/cosmos/dss/IS/ARIGAABGCA/ISMETHOD> ;
    rdf:_13 <https://w3id.org/cdisc/cosmos/dss/IS/ARIGAABGCA/ISDTC> ;
    rdf:_2 <https://w3id.org/cdisc/cosmos/dss/IS/ARIGAABGCA/ISTEST> ;
    rdf:_3 <https://w3id.org/cdisc/cosmos/dss/IS/ARIGAABGCA/ISBDAGNT> ;
    rdf:_4 <https://w3id.org/cdisc/cosmos/dss/IS/ARIGAABGCA/ISCAT> ;
    rdf:_5 <https://w3id.org/cdisc/cosmos/dss/IS/ARIGAABGCA/ISSCAT> ;
    rdf:_6 <https://w3id.org/cdisc/cosmos/dss/IS/ARIGAABGCA/ISORRES> ;
    rdf:_7 <https://w3id.org/cdisc/cosmos/dss/IS/ARIGAABGCA/ISORRESU> ;
    rdf:_8 <https://w3id.org/cdisc/cosmos/dss/IS/ARIGAABGCA/ISSTRESC> ;
    rdf:_9 <https://w3id.org/cdisc/cosmos/dss/IS/ARIGAABGCA/ISSTRESN> ;
    cosmos_sdtm:biomedicalConceptId NCIT:C187776 ;
    cosmos_sdtm:domain "IS" ;
    cosmos_sdtm:packageDate "2026-05-26"^^xsd:date ;
    cosmos_sdtm:packageType <https://www.cdisc.org/cosmos/sdtm_v1.0/PackageTypeEnum#sdtm> ;
    cosmos_sdtm:sdtmigStartVersion "3-4" ;
    cosmos_sdtm:shortName "Allergen-induced IgA Antibody for German Cockroach Antigen" ;
    cosmos_sdtm:source "IS.ISTESTCD" ;
    cosmos_sdtm:variables <https://w3id.org/cdisc/cosmos/dss/IS/ARIGAABGCA/ISBDAGNT>,
        <https://w3id.org/cdisc/cosmos/dss/IS/ARIGAABGCA/ISCAT>,
        <https://w3id.org/cdisc/cosmos/dss/IS/ARIGAABGCA/ISDTC>,
        <https://w3id.org/cdisc/cosmos/dss/IS/ARIGAABGCA/ISMETHOD>,
        <https://w3id.org/cdisc/cosmos/dss/IS/ARIGAABGCA/ISORRES>,
        <https://w3id.org/cdisc/cosmos/dss/IS/ARIGAABGCA/ISORRESU>,
        <https://w3id.org/cdisc/cosmos/dss/IS/ARIGAABGCA/ISSCAT>,
        <https://w3id.org/cdisc/cosmos/dss/IS/ARIGAABGCA/ISSPEC>,
        <https://w3id.org/cdisc/cosmos/dss/IS/ARIGAABGCA/ISSTRESC>,
        <https://w3id.org/cdisc/cosmos/dss/IS/ARIGAABGCA/ISSTRESN>,
        <https://w3id.org/cdisc/cosmos/dss/IS/ARIGAABGCA/ISSTRESU>,
        <https://w3id.org/cdisc/cosmos/dss/IS/ARIGAABGCA/ISTEST>,
        <https://w3id.org/cdisc/cosmos/dss/IS/ARIGAABGCA/ISTESTCD> .

<https://w3id.org/cdisc/cosmos/dss/IS/ARIGAABGMP> a cosmos_sdtm:SDTMGroup ;
    dcterms:identifier "ARIGAABGMP" ;
    rdf:_1 <https://w3id.org/cdisc/cosmos/dss/IS/ARIGAABGMP/ISTESTCD> ;
    rdf:_10 <https://w3id.org/cdisc/cosmos/dss/IS/ARIGAABGMP/ISSTRESU> ;
    rdf:_11 <https://w3id.org/cdisc/cosmos/dss/IS/ARIGAABGMP/ISSPEC> ;
    rdf:_12 <https://w3id.org/cdisc/cosmos/dss/IS/ARIGAABGMP/ISMETHOD> ;
    rdf:_13 <https://w3id.org/cdisc/cosmos/dss/IS/ARIGAABGMP/ISDTC> ;
    rdf:_2 <https://w3id.org/cdisc/cosmos/dss/IS/ARIGAABGMP/ISTEST> ;
    rdf:_3 <https://w3id.org/cdisc/cosmos/dss/IS/ARIGAABGMP/ISBDAGNT> ;
    rdf:_4 <https://w3id.org/cdisc/cosmos/dss/IS/ARIGAABGMP/ISCAT> ;
    rdf:_5 <https://w3id.org/cdisc/cosmos/dss/IS/ARIGAABGMP/ISSCAT> ;
    rdf:_6 <https://w3id.org/cdisc/cosmos/dss/IS/ARIGAABGMP/ISORRES> ;
    rdf:_7 <https://w3id.org/cdisc/cosmos/dss/IS/ARIGAABGMP/ISORRESU> ;
    rdf:_8 <https://w3id.org/cdisc/cosmos/dss/IS/ARIGAABGMP/ISSTRESC> ;
    rdf:_9 <https://w3id.org/cdisc/cosmos/dss/IS/ARIGAABGMP/ISSTRESN> ;
    cosmos_sdtm:biomedicalConceptId NCIT:C187776 ;
    cosmos_sdtm:domain "IS" ;
    cosmos_sdtm:packageDate "2026-05-26"^^xsd:date ;
    cosmos_sdtm:packageType <https://www.cdisc.org/cosmos/sdtm_v1.0/PackageTypeEnum#sdtm> ;
    cosmos_sdtm:sdtmigStartVersion "3-4" ;
    cosmos_sdtm:shortName "Allergen-induced IgA Antibody for Grass Mix Pollens" ;
    cosmos_sdtm:source "IS.ISTESTCD" ;
    cosmos_sdtm:variables <https://w3id.org/cdisc/cosmos/dss/IS/ARIGAABGMP/ISBDAGNT>,
        <https://w3id.org/cdisc/cosmos/dss/IS/ARIGAABGMP/ISCAT>,
        <https://w3id.org/cdisc/cosmos/dss/IS/ARIGAABGMP/ISDTC>,
        <https://w3id.org/cdisc/cosmos/dss/IS/ARIGAABGMP/ISMETHOD>,
        <https://w3id.org/cdisc/cosmos/dss/IS/ARIGAABGMP/ISORRES>,
        <https://w3id.org/cdisc/cosmos/dss/IS/ARIGAABGMP/ISORRESU>,
        <https://w3id.org/cdisc/cosmos/dss/IS/ARIGAABGMP/ISSCAT>,
        <https://w3id.org/cdisc/cosmos/dss/IS/ARIGAABGMP/ISSPEC>,
        <https://w3id.org/cdisc/cosmos/dss/IS/ARIGAABGMP/ISSTRESC>,
        <https://w3id.org/cdisc/cosmos/dss/IS/ARIGAABGMP/ISSTRESN>,
        <https://w3id.org/cdisc/cosmos/dss/IS/ARIGAABGMP/ISSTRESU>,
        <https://w3id.org/cdisc/cosmos/dss/IS/ARIGAABGMP/ISTEST>,
        <https://w3id.org/cdisc/cosmos/dss/IS/ARIGAABGMP/ISTESTCD> .

<https://w3id.org/cdisc/cosmos/dss/IS/ARIGAABMMA> a cosmos_sdtm:SDTMGroup ;
    dcterms:identifier "ARIGAABMMA" ;
    rdf:_1 <https://w3id.org/cdisc/cosmos/dss/IS/ARIGAABMMA/ISTESTCD> ;
    rdf:_10 <https://w3id.org/cdisc/cosmos/dss/IS/ARIGAABMMA/ISSTRESU> ;
    rdf:_11 <https://w3id.org/cdisc/cosmos/dss/IS/ARIGAABMMA/ISSPEC> ;
    rdf:_12 <https://w3id.org/cdisc/cosmos/dss/IS/ARIGAABMMA/ISMETHOD> ;
    rdf:_13 <https://w3id.org/cdisc/cosmos/dss/IS/ARIGAABMMA/ISDTC> ;
    rdf:_2 <https://w3id.org/cdisc/cosmos/dss/IS/ARIGAABMMA/ISTEST> ;
    rdf:_3 <https://w3id.org/cdisc/cosmos/dss/IS/ARIGAABMMA/ISBDAGNT> ;
    rdf:_4 <https://w3id.org/cdisc/cosmos/dss/IS/ARIGAABMMA/ISCAT> ;
    rdf:_5 <https://w3id.org/cdisc/cosmos/dss/IS/ARIGAABMMA/ISSCAT> ;
    rdf:_6 <https://w3id.org/cdisc/cosmos/dss/IS/ARIGAABMMA/ISORRES> ;
    rdf:_7 <https://w3id.org/cdisc/cosmos/dss/IS/ARIGAABMMA/ISORRESU> ;
    rdf:_8 <https://w3id.org/cdisc/cosmos/dss/IS/ARIGAABMMA/ISSTRESC> ;
    rdf:_9 <https://w3id.org/cdisc/cosmos/dss/IS/ARIGAABMMA/ISSTRESN> ;
    cosmos_sdtm:biomedicalConceptId NCIT:C187776 ;
    cosmos_sdtm:domain "IS" ;
    cosmos_sdtm:packageDate "2026-05-26"^^xsd:date ;
    cosmos_sdtm:packageType <https://www.cdisc.org/cosmos/sdtm_v1.0/PackageTypeEnum#sdtm> ;
    cosmos_sdtm:sdtmigStartVersion "3-4" ;
    cosmos_sdtm:shortName "Allergen-induced IgA Antibody for Mold Mix Antigens" ;
    cosmos_sdtm:source "IS.ISTESTCD" ;
    cosmos_sdtm:variables <https://w3id.org/cdisc/cosmos/dss/IS/ARIGAABMMA/ISBDAGNT>,
        <https://w3id.org/cdisc/cosmos/dss/IS/ARIGAABMMA/ISCAT>,
        <https://w3id.org/cdisc/cosmos/dss/IS/ARIGAABMMA/ISDTC>,
        <https://w3id.org/cdisc/cosmos/dss/IS/ARIGAABMMA/ISMETHOD>,
        <https://w3id.org/cdisc/cosmos/dss/IS/ARIGAABMMA/ISORRES>,
        <https://w3id.org/cdisc/cosmos/dss/IS/ARIGAABMMA/ISORRESU>,
        <https://w3id.org/cdisc/cosmos/dss/IS/ARIGAABMMA/ISSCAT>,
        <https://w3id.org/cdisc/cosmos/dss/IS/ARIGAABMMA/ISSPEC>,
        <https://w3id.org/cdisc/cosmos/dss/IS/ARIGAABMMA/ISSTRESC>,
        <https://w3id.org/cdisc/cosmos/dss/IS/ARIGAABMMA/ISSTRESN>,
        <https://w3id.org/cdisc/cosmos/dss/IS/ARIGAABMMA/ISSTRESU>,
        <https://w3id.org/cdisc/cosmos/dss/IS/ARIGAABMMA/ISTEST>,
        <https://w3id.org/cdisc/cosmos/dss/IS/ARIGAABMMA/ISTESTCD> .

<https://w3id.org/cdisc/cosmos/dss/IS/ARIGAABMUCOR> a cosmos_sdtm:SDTMGroup ;
    dcterms:identifier "ARIGAABMUCOR" ;
    rdf:_1 <https://w3id.org/cdisc/cosmos/dss/IS/ARIGAABMUCOR/ISTESTCD> ;
    rdf:_10 <https://w3id.org/cdisc/cosmos/dss/IS/ARIGAABMUCOR/ISSTRESU> ;
    rdf:_11 <https://w3id.org/cdisc/cosmos/dss/IS/ARIGAABMUCOR/ISSPEC> ;
    rdf:_12 <https://w3id.org/cdisc/cosmos/dss/IS/ARIGAABMUCOR/ISMETHOD> ;
    rdf:_13 <https://w3id.org/cdisc/cosmos/dss/IS/ARIGAABMUCOR/ISDTC> ;
    rdf:_2 <https://w3id.org/cdisc/cosmos/dss/IS/ARIGAABMUCOR/ISTEST> ;
    rdf:_3 <https://w3id.org/cdisc/cosmos/dss/IS/ARIGAABMUCOR/ISBDAGNT> ;
    rdf:_4 <https://w3id.org/cdisc/cosmos/dss/IS/ARIGAABMUCOR/ISCAT> ;
    rdf:_5 <https://w3id.org/cdisc/cosmos/dss/IS/ARIGAABMUCOR/ISSCAT> ;
    rdf:_6 <https://w3id.org/cdisc/cosmos/dss/IS/ARIGAABMUCOR/ISORRES> ;
    rdf:_7 <https://w3id.org/cdisc/cosmos/dss/IS/ARIGAABMUCOR/ISORRESU> ;
    rdf:_8 <https://w3id.org/cdisc/cosmos/dss/IS/ARIGAABMUCOR/ISSTRESC> ;
    rdf:_9 <https://w3id.org/cdisc/cosmos/dss/IS/ARIGAABMUCOR/ISSTRESN> ;
    cosmos_sdtm:biomedicalConceptId NCIT:C187776 ;
    cosmos_sdtm:domain "IS" ;
    cosmos_sdtm:packageDate "2026-05-26"^^xsd:date ;
    cosmos_sdtm:packageType <https://www.cdisc.org/cosmos/sdtm_v1.0/PackageTypeEnum#sdtm> ;
    cosmos_sdtm:sdtmigStartVersion "3-4" ;
    cosmos_sdtm:shortName "Allergen-induced IgA Antibody for Mucor Racemosus" ;
    cosmos_sdtm:source "IS.ISTESTCD" ;
    cosmos_sdtm:variables <https://w3id.org/cdisc/cosmos/dss/IS/ARIGAABMUCOR/ISBDAGNT>,
        <https://w3id.org/cdisc/cosmos/dss/IS/ARIGAABMUCOR/ISCAT>,
        <https://w3id.org/cdisc/cosmos/dss/IS/ARIGAABMUCOR/ISDTC>,
        <https://w3id.org/cdisc/cosmos/dss/IS/ARIGAABMUCOR/ISMETHOD>,
        <https://w3id.org/cdisc/cosmos/dss/IS/ARIGAABMUCOR/ISORRES>,
        <https://w3id.org/cdisc/cosmos/dss/IS/ARIGAABMUCOR/ISORRESU>,
        <https://w3id.org/cdisc/cosmos/dss/IS/ARIGAABMUCOR/ISSCAT>,
        <https://w3id.org/cdisc/cosmos/dss/IS/ARIGAABMUCOR/ISSPEC>,
        <https://w3id.org/cdisc/cosmos/dss/IS/ARIGAABMUCOR/ISSTRESC>,
        <https://w3id.org/cdisc/cosmos/dss/IS/ARIGAABMUCOR/ISSTRESN>,
        <https://w3id.org/cdisc/cosmos/dss/IS/ARIGAABMUCOR/ISSTRESU>,
        <https://w3id.org/cdisc/cosmos/dss/IS/ARIGAABMUCOR/ISTEST>,
        <https://w3id.org/cdisc/cosmos/dss/IS/ARIGAABMUCOR/ISTESTCD> .

<https://w3id.org/cdisc/cosmos/dss/IS/ARIGAABOGP> a cosmos_sdtm:SDTMGroup ;
    dcterms:identifier "ARIGAABOGP" ;
    rdf:_1 <https://w3id.org/cdisc/cosmos/dss/IS/ARIGAABOGP/ISTESTCD> ;
    rdf:_10 <https://w3id.org/cdisc/cosmos/dss/IS/ARIGAABOGP/ISSTRESU> ;
    rdf:_11 <https://w3id.org/cdisc/cosmos/dss/IS/ARIGAABOGP/ISSPEC> ;
    rdf:_12 <https://w3id.org/cdisc/cosmos/dss/IS/ARIGAABOGP/ISMETHOD> ;
    rdf:_13 <https://w3id.org/cdisc/cosmos/dss/IS/ARIGAABOGP/ISDTC> ;
    rdf:_2 <https://w3id.org/cdisc/cosmos/dss/IS/ARIGAABOGP/ISTEST> ;
    rdf:_3 <https://w3id.org/cdisc/cosmos/dss/IS/ARIGAABOGP/ISBDAGNT> ;
    rdf:_4 <https://w3id.org/cdisc/cosmos/dss/IS/ARIGAABOGP/ISCAT> ;
    rdf:_5 <https://w3id.org/cdisc/cosmos/dss/IS/ARIGAABOGP/ISSCAT> ;
    rdf:_6 <https://w3id.org/cdisc/cosmos/dss/IS/ARIGAABOGP/ISORRES> ;
    rdf:_7 <https://w3id.org/cdisc/cosmos/dss/IS/ARIGAABOGP/ISORRESU> ;
    rdf:_8 <https://w3id.org/cdisc/cosmos/dss/IS/ARIGAABOGP/ISSTRESC> ;
    rdf:_9 <https://w3id.org/cdisc/cosmos/dss/IS/ARIGAABOGP/ISSTRESN> ;
    cosmos_sdtm:biomedicalConceptId NCIT:C187776 ;
    cosmos_sdtm:domain "IS" ;
    cosmos_sdtm:packageDate "2026-05-26"^^xsd:date ;
    cosmos_sdtm:packageType <https://www.cdisc.org/cosmos/sdtm_v1.0/PackageTypeEnum#sdtm> ;
    cosmos_sdtm:sdtmigStartVersion "3-4" ;
    cosmos_sdtm:shortName "Allergen-induced IgA Antibody for Orchard Grass Pollen" ;
    cosmos_sdtm:source "IS.ISTESTCD" ;
    cosmos_sdtm:variables <https://w3id.org/cdisc/cosmos/dss/IS/ARIGAABOGP/ISBDAGNT>,
        <https://w3id.org/cdisc/cosmos/dss/IS/ARIGAABOGP/ISCAT>,
        <https://w3id.org/cdisc/cosmos/dss/IS/ARIGAABOGP/ISDTC>,
        <https://w3id.org/cdisc/cosmos/dss/IS/ARIGAABOGP/ISMETHOD>,
        <https://w3id.org/cdisc/cosmos/dss/IS/ARIGAABOGP/ISORRES>,
        <https://w3id.org/cdisc/cosmos/dss/IS/ARIGAABOGP/ISORRESU>,
        <https://w3id.org/cdisc/cosmos/dss/IS/ARIGAABOGP/ISSCAT>,
        <https://w3id.org/cdisc/cosmos/dss/IS/ARIGAABOGP/ISSPEC>,
        <https://w3id.org/cdisc/cosmos/dss/IS/ARIGAABOGP/ISSTRESC>,
        <https://w3id.org/cdisc/cosmos/dss/IS/ARIGAABOGP/ISSTRESN>,
        <https://w3id.org/cdisc/cosmos/dss/IS/ARIGAABOGP/ISSTRESU>,
        <https://w3id.org/cdisc/cosmos/dss/IS/ARIGAABOGP/ISTEST>,
        <https://w3id.org/cdisc/cosmos/dss/IS/ARIGAABOGP/ISTESTCD> .

<https://w3id.org/cdisc/cosmos/dss/IS/ARIGAABPENICILLUM> a cosmos_sdtm:SDTMGroup ;
    dcterms:identifier "ARIGAABPENICILLUM" ;
    rdf:_1 <https://w3id.org/cdisc/cosmos/dss/IS/ARIGAABPENICILLUM/ISTESTCD> ;
    rdf:_10 <https://w3id.org/cdisc/cosmos/dss/IS/ARIGAABPENICILLUM/ISSTRESU> ;
    rdf:_11 <https://w3id.org/cdisc/cosmos/dss/IS/ARIGAABPENICILLUM/ISSPEC> ;
    rdf:_12 <https://w3id.org/cdisc/cosmos/dss/IS/ARIGAABPENICILLUM/ISMETHOD> ;
    rdf:_13 <https://w3id.org/cdisc/cosmos/dss/IS/ARIGAABPENICILLUM/ISDTC> ;
    rdf:_2 <https://w3id.org/cdisc/cosmos/dss/IS/ARIGAABPENICILLUM/ISTEST> ;
    rdf:_3 <https://w3id.org/cdisc/cosmos/dss/IS/ARIGAABPENICILLUM/ISBDAGNT> ;
    rdf:_4 <https://w3id.org/cdisc/cosmos/dss/IS/ARIGAABPENICILLUM/ISCAT> ;
    rdf:_5 <https://w3id.org/cdisc/cosmos/dss/IS/ARIGAABPENICILLUM/ISSCAT> ;
    rdf:_6 <https://w3id.org/cdisc/cosmos/dss/IS/ARIGAABPENICILLUM/ISORRES> ;
    rdf:_7 <https://w3id.org/cdisc/cosmos/dss/IS/ARIGAABPENICILLUM/ISORRESU> ;
    rdf:_8 <https://w3id.org/cdisc/cosmos/dss/IS/ARIGAABPENICILLUM/ISSTRESC> ;
    rdf:_9 <https://w3id.org/cdisc/cosmos/dss/IS/ARIGAABPENICILLUM/ISSTRESN> ;
    cosmos_sdtm:biomedicalConceptId NCIT:C187776 ;
    cosmos_sdtm:domain "IS" ;
    cosmos_sdtm:packageDate "2026-05-26"^^xsd:date ;
    cosmos_sdtm:packageType <https://www.cdisc.org/cosmos/sdtm_v1.0/PackageTypeEnum#sdtm> ;
    cosmos_sdtm:sdtmigStartVersion "3-4" ;
    cosmos_sdtm:shortName "Allergen-induced IgA Antibody for Penicillum Chrysogenum" ;
    cosmos_sdtm:source "IS.ISTESTCD" ;
    cosmos_sdtm:variables <https://w3id.org/cdisc/cosmos/dss/IS/ARIGAABPENICILLUM/ISBDAGNT>,
        <https://w3id.org/cdisc/cosmos/dss/IS/ARIGAABPENICILLUM/ISCAT>,
        <https://w3id.org/cdisc/cosmos/dss/IS/ARIGAABPENICILLUM/ISDTC>,
        <https://w3id.org/cdisc/cosmos/dss/IS/ARIGAABPENICILLUM/ISMETHOD>,
        <https://w3id.org/cdisc/cosmos/dss/IS/ARIGAABPENICILLUM/ISORRES>,
        <https://w3id.org/cdisc/cosmos/dss/IS/ARIGAABPENICILLUM/ISORRESU>,
        <https://w3id.org/cdisc/cosmos/dss/IS/ARIGAABPENICILLUM/ISSCAT>,
        <https://w3id.org/cdisc/cosmos/dss/IS/ARIGAABPENICILLUM/ISSPEC>,
        <https://w3id.org/cdisc/cosmos/dss/IS/ARIGAABPENICILLUM/ISSTRESC>,
        <https://w3id.org/cdisc/cosmos/dss/IS/ARIGAABPENICILLUM/ISSTRESN>,
        <https://w3id.org/cdisc/cosmos/dss/IS/ARIGAABPENICILLUM/ISSTRESU>,
        <https://w3id.org/cdisc/cosmos/dss/IS/ARIGAABPENICILLUM/ISTEST>,
        <https://w3id.org/cdisc/cosmos/dss/IS/ARIGAABPENICILLUM/ISTESTCD> .

<https://w3id.org/cdisc/cosmos/dss/IS/ARIGAABSBP> a cosmos_sdtm:SDTMGroup ;
    dcterms:identifier "ARIGAABSBP" ;
    rdf:_1 <https://w3id.org/cdisc/cosmos/dss/IS/ARIGAABSBP/ISTESTCD> ;
    rdf:_10 <https://w3id.org/cdisc/cosmos/dss/IS/ARIGAABSBP/ISSTRESU> ;
    rdf:_11 <https://w3id.org/cdisc/cosmos/dss/IS/ARIGAABSBP/ISSPEC> ;
    rdf:_12 <https://w3id.org/cdisc/cosmos/dss/IS/ARIGAABSBP/ISMETHOD> ;
    rdf:_13 <https://w3id.org/cdisc/cosmos/dss/IS/ARIGAABSBP/ISDTC> ;
    rdf:_2 <https://w3id.org/cdisc/cosmos/dss/IS/ARIGAABSBP/ISTEST> ;
    rdf:_3 <https://w3id.org/cdisc/cosmos/dss/IS/ARIGAABSBP/ISBDAGNT> ;
    rdf:_4 <https://w3id.org/cdisc/cosmos/dss/IS/ARIGAABSBP/ISCAT> ;
    rdf:_5 <https://w3id.org/cdisc/cosmos/dss/IS/ARIGAABSBP/ISSCAT> ;
    rdf:_6 <https://w3id.org/cdisc/cosmos/dss/IS/ARIGAABSBP/ISORRES> ;
    rdf:_7 <https://w3id.org/cdisc/cosmos/dss/IS/ARIGAABSBP/ISORRESU> ;
    rdf:_8 <https://w3id.org/cdisc/cosmos/dss/IS/ARIGAABSBP/ISSTRESC> ;
    rdf:_9 <https://w3id.org/cdisc/cosmos/dss/IS/ARIGAABSBP/ISSTRESN> ;
    cosmos_sdtm:biomedicalConceptId NCIT:C187776 ;
    cosmos_sdtm:domain "IS" ;
    cosmos_sdtm:packageDate "2026-05-26"^^xsd:date ;
    cosmos_sdtm:packageType <https://www.cdisc.org/cosmos/sdtm_v1.0/PackageTypeEnum#sdtm> ;
    cosmos_sdtm:sdtmigStartVersion "3-4" ;
    cosmos_sdtm:shortName "Allergen-induced IgA Antibody for Silver Birch Pollen" ;
    cosmos_sdtm:source "IS.ISTESTCD" ;
    cosmos_sdtm:variables <https://w3id.org/cdisc/cosmos/dss/IS/ARIGAABSBP/ISBDAGNT>,
        <https://w3id.org/cdisc/cosmos/dss/IS/ARIGAABSBP/ISCAT>,
        <https://w3id.org/cdisc/cosmos/dss/IS/ARIGAABSBP/ISDTC>,
        <https://w3id.org/cdisc/cosmos/dss/IS/ARIGAABSBP/ISMETHOD>,
        <https://w3id.org/cdisc/cosmos/dss/IS/ARIGAABSBP/ISORRES>,
        <https://w3id.org/cdisc/cosmos/dss/IS/ARIGAABSBP/ISORRESU>,
        <https://w3id.org/cdisc/cosmos/dss/IS/ARIGAABSBP/ISSCAT>,
        <https://w3id.org/cdisc/cosmos/dss/IS/ARIGAABSBP/ISSPEC>,
        <https://w3id.org/cdisc/cosmos/dss/IS/ARIGAABSBP/ISSTRESC>,
        <https://w3id.org/cdisc/cosmos/dss/IS/ARIGAABSBP/ISSTRESN>,
        <https://w3id.org/cdisc/cosmos/dss/IS/ARIGAABSBP/ISSTRESU>,
        <https://w3id.org/cdisc/cosmos/dss/IS/ARIGAABSBP/ISTEST>,
        <https://w3id.org/cdisc/cosmos/dss/IS/ARIGAABSBP/ISTESTCD> .

<https://w3id.org/cdisc/cosmos/dss/IS/ARIGAABTGP> a cosmos_sdtm:SDTMGroup ;
    dcterms:identifier "ARIGAABTGP" ;
    rdf:_1 <https://w3id.org/cdisc/cosmos/dss/IS/ARIGAABTGP/ISTESTCD> ;
    rdf:_10 <https://w3id.org/cdisc/cosmos/dss/IS/ARIGAABTGP/ISSTRESU> ;
    rdf:_11 <https://w3id.org/cdisc/cosmos/dss/IS/ARIGAABTGP/ISSPEC> ;
    rdf:_12 <https://w3id.org/cdisc/cosmos/dss/IS/ARIGAABTGP/ISMETHOD> ;
    rdf:_13 <https://w3id.org/cdisc/cosmos/dss/IS/ARIGAABTGP/ISDTC> ;
    rdf:_2 <https://w3id.org/cdisc/cosmos/dss/IS/ARIGAABTGP/ISTEST> ;
    rdf:_3 <https://w3id.org/cdisc/cosmos/dss/IS/ARIGAABTGP/ISBDAGNT> ;
    rdf:_4 <https://w3id.org/cdisc/cosmos/dss/IS/ARIGAABTGP/ISCAT> ;
    rdf:_5 <https://w3id.org/cdisc/cosmos/dss/IS/ARIGAABTGP/ISSCAT> ;
    rdf:_6 <https://w3id.org/cdisc/cosmos/dss/IS/ARIGAABTGP/ISORRES> ;
    rdf:_7 <https://w3id.org/cdisc/cosmos/dss/IS/ARIGAABTGP/ISORRESU> ;
    rdf:_8 <https://w3id.org/cdisc/cosmos/dss/IS/ARIGAABTGP/ISSTRESC> ;
    rdf:_9 <https://w3id.org/cdisc/cosmos/dss/IS/ARIGAABTGP/ISSTRESN> ;
    cosmos_sdtm:biomedicalConceptId NCIT:C187776 ;
    cosmos_sdtm:domain "IS" ;
    cosmos_sdtm:packageDate "2026-05-26"^^xsd:date ;
    cosmos_sdtm:packageType <https://www.cdisc.org/cosmos/sdtm_v1.0/PackageTypeEnum#sdtm> ;
    cosmos_sdtm:sdtmigStartVersion "3-4" ;
    cosmos_sdtm:shortName "Allergen-induced IgA Antibody for Timothy Grass Pollen" ;
    cosmos_sdtm:source "IS.ISTESTCD" ;
    cosmos_sdtm:variables <https://w3id.org/cdisc/cosmos/dss/IS/ARIGAABTGP/ISBDAGNT>,
        <https://w3id.org/cdisc/cosmos/dss/IS/ARIGAABTGP/ISCAT>,
        <https://w3id.org/cdisc/cosmos/dss/IS/ARIGAABTGP/ISDTC>,
        <https://w3id.org/cdisc/cosmos/dss/IS/ARIGAABTGP/ISMETHOD>,
        <https://w3id.org/cdisc/cosmos/dss/IS/ARIGAABTGP/ISORRES>,
        <https://w3id.org/cdisc/cosmos/dss/IS/ARIGAABTGP/ISORRESU>,
        <https://w3id.org/cdisc/cosmos/dss/IS/ARIGAABTGP/ISSCAT>,
        <https://w3id.org/cdisc/cosmos/dss/IS/ARIGAABTGP/ISSPEC>,
        <https://w3id.org/cdisc/cosmos/dss/IS/ARIGAABTGP/ISSTRESC>,
        <https://w3id.org/cdisc/cosmos/dss/IS/ARIGAABTGP/ISSTRESN>,
        <https://w3id.org/cdisc/cosmos/dss/IS/ARIGAABTGP/ISSTRESU>,
        <https://w3id.org/cdisc/cosmos/dss/IS/ARIGAABTGP/ISTEST>,
        <https://w3id.org/cdisc/cosmos/dss/IS/ARIGAABTGP/ISTESTCD> .

<https://w3id.org/cdisc/cosmos/dss/IS/ARIGAABWMP> a cosmos_sdtm:SDTMGroup ;
    dcterms:identifier "ARIGAABWMP" ;
    rdf:_1 <https://w3id.org/cdisc/cosmos/dss/IS/ARIGAABWMP/ISTESTCD> ;
    rdf:_10 <https://w3id.org/cdisc/cosmos/dss/IS/ARIGAABWMP/ISSTRESU> ;
    rdf:_11 <https://w3id.org/cdisc/cosmos/dss/IS/ARIGAABWMP/ISSPEC> ;
    rdf:_12 <https://w3id.org/cdisc/cosmos/dss/IS/ARIGAABWMP/ISMETHOD> ;
    rdf:_13 <https://w3id.org/cdisc/cosmos/dss/IS/ARIGAABWMP/ISDTC> ;
    rdf:_2 <https://w3id.org/cdisc/cosmos/dss/IS/ARIGAABWMP/ISTEST> ;
    rdf:_3 <https://w3id.org/cdisc/cosmos/dss/IS/ARIGAABWMP/ISBDAGNT> ;
    rdf:_4 <https://w3id.org/cdisc/cosmos/dss/IS/ARIGAABWMP/ISCAT> ;
    rdf:_5 <https://w3id.org/cdisc/cosmos/dss/IS/ARIGAABWMP/ISSCAT> ;
    rdf:_6 <https://w3id.org/cdisc/cosmos/dss/IS/ARIGAABWMP/ISORRES> ;
    rdf:_7 <https://w3id.org/cdisc/cosmos/dss/IS/ARIGAABWMP/ISORRESU> ;
    rdf:_8 <https://w3id.org/cdisc/cosmos/dss/IS/ARIGAABWMP/ISSTRESC> ;
    rdf:_9 <https://w3id.org/cdisc/cosmos/dss/IS/ARIGAABWMP/ISSTRESN> ;
    cosmos_sdtm:biomedicalConceptId NCIT:C187776 ;
    cosmos_sdtm:domain "IS" ;
    cosmos_sdtm:packageDate "2026-05-26"^^xsd:date ;
    cosmos_sdtm:packageType <https://www.cdisc.org/cosmos/sdtm_v1.0/PackageTypeEnum#sdtm> ;
    cosmos_sdtm:sdtmigStartVersion "3-4" ;
    cosmos_sdtm:shortName "Allergen-induced IgA Antibody for Weed Mix Pollens" ;
    cosmos_sdtm:source "IS.ISTESTCD" ;
    cosmos_sdtm:variables <https://w3id.org/cdisc/cosmos/dss/IS/ARIGAABWMP/ISBDAGNT>,
        <https://w3id.org/cdisc/cosmos/dss/IS/ARIGAABWMP/ISCAT>,
        <https://w3id.org/cdisc/cosmos/dss/IS/ARIGAABWMP/ISDTC>,
        <https://w3id.org/cdisc/cosmos/dss/IS/ARIGAABWMP/ISMETHOD>,
        <https://w3id.org/cdisc/cosmos/dss/IS/ARIGAABWMP/ISORRES>,
        <https://w3id.org/cdisc/cosmos/dss/IS/ARIGAABWMP/ISORRESU>,
        <https://w3id.org/cdisc/cosmos/dss/IS/ARIGAABWMP/ISSCAT>,
        <https://w3id.org/cdisc/cosmos/dss/IS/ARIGAABWMP/ISSPEC>,
        <https://w3id.org/cdisc/cosmos/dss/IS/ARIGAABWMP/ISSTRESC>,
        <https://w3id.org/cdisc/cosmos/dss/IS/ARIGAABWMP/ISSTRESN>,
        <https://w3id.org/cdisc/cosmos/dss/IS/ARIGAABWMP/ISSTRESU>,
        <https://w3id.org/cdisc/cosmos/dss/IS/ARIGAABWMP/ISTEST>,
        <https://w3id.org/cdisc/cosmos/dss/IS/ARIGAABWMP/ISTESTCD> .

<https://w3id.org/cdisc/cosmos/dss/IS/ARIGAABWRP> a cosmos_sdtm:SDTMGroup ;
    dcterms:identifier "ARIGAABWRP" ;
    rdf:_1 <https://w3id.org/cdisc/cosmos/dss/IS/ARIGAABWRP/ISTESTCD> ;
    rdf:_10 <https://w3id.org/cdisc/cosmos/dss/IS/ARIGAABWRP/ISSTRESU> ;
    rdf:_11 <https://w3id.org/cdisc/cosmos/dss/IS/ARIGAABWRP/ISSPEC> ;
    rdf:_12 <https://w3id.org/cdisc/cosmos/dss/IS/ARIGAABWRP/ISMETHOD> ;
    rdf:_13 <https://w3id.org/cdisc/cosmos/dss/IS/ARIGAABWRP/ISDTC> ;
    rdf:_2 <https://w3id.org/cdisc/cosmos/dss/IS/ARIGAABWRP/ISTEST> ;
    rdf:_3 <https://w3id.org/cdisc/cosmos/dss/IS/ARIGAABWRP/ISBDAGNT> ;
    rdf:_4 <https://w3id.org/cdisc/cosmos/dss/IS/ARIGAABWRP/ISCAT> ;
    rdf:_5 <https://w3id.org/cdisc/cosmos/dss/IS/ARIGAABWRP/ISSCAT> ;
    rdf:_6 <https://w3id.org/cdisc/cosmos/dss/IS/ARIGAABWRP/ISORRES> ;
    rdf:_7 <https://w3id.org/cdisc/cosmos/dss/IS/ARIGAABWRP/ISORRESU> ;
    rdf:_8 <https://w3id.org/cdisc/cosmos/dss/IS/ARIGAABWRP/ISSTRESC> ;
    rdf:_9 <https://w3id.org/cdisc/cosmos/dss/IS/ARIGAABWRP/ISSTRESN> ;
    cosmos_sdtm:biomedicalConceptId NCIT:C187776 ;
    cosmos_sdtm:domain "IS" ;
    cosmos_sdtm:packageDate "2026-05-26"^^xsd:date ;
    cosmos_sdtm:packageType <https://www.cdisc.org/cosmos/sdtm_v1.0/PackageTypeEnum#sdtm> ;
    cosmos_sdtm:sdtmigStartVersion "3-4" ;
    cosmos_sdtm:shortName "Allergen-induced IgA Antibody for Western Ragweed Pollen" ;
    cosmos_sdtm:source "IS.ISTESTCD" ;
    cosmos_sdtm:variables <https://w3id.org/cdisc/cosmos/dss/IS/ARIGAABWRP/ISBDAGNT>,
        <https://w3id.org/cdisc/cosmos/dss/IS/ARIGAABWRP/ISCAT>,
        <https://w3id.org/cdisc/cosmos/dss/IS/ARIGAABWRP/ISDTC>,
        <https://w3id.org/cdisc/cosmos/dss/IS/ARIGAABWRP/ISMETHOD>,
        <https://w3id.org/cdisc/cosmos/dss/IS/ARIGAABWRP/ISORRES>,
        <https://w3id.org/cdisc/cosmos/dss/IS/ARIGAABWRP/ISORRESU>,
        <https://w3id.org/cdisc/cosmos/dss/IS/ARIGAABWRP/ISSCAT>,
        <https://w3id.org/cdisc/cosmos/dss/IS/ARIGAABWRP/ISSPEC>,
        <https://w3id.org/cdisc/cosmos/dss/IS/ARIGAABWRP/ISSTRESC>,
        <https://w3id.org/cdisc/cosmos/dss/IS/ARIGAABWRP/ISSTRESN>,
        <https://w3id.org/cdisc/cosmos/dss/IS/ARIGAABWRP/ISSTRESU>,
        <https://w3id.org/cdisc/cosmos/dss/IS/ARIGAABWRP/ISTEST>,
        <https://w3id.org/cdisc/cosmos/dss/IS/ARIGAABWRP/ISTESTCD> .

<https://w3id.org/cdisc/cosmos/dss/IS/ARIGEABAA> a cosmos_sdtm:SDTMGroup ;
    dcterms:identifier "ARIGEABAA" ;
    rdf:_1 <https://w3id.org/cdisc/cosmos/dss/IS/ARIGEABAA/ISTESTCD> ;
    rdf:_10 <https://w3id.org/cdisc/cosmos/dss/IS/ARIGEABAA/ISSTRESU> ;
    rdf:_11 <https://w3id.org/cdisc/cosmos/dss/IS/ARIGEABAA/ISSPEC> ;
    rdf:_12 <https://w3id.org/cdisc/cosmos/dss/IS/ARIGEABAA/ISMETHOD> ;
    rdf:_13 <https://w3id.org/cdisc/cosmos/dss/IS/ARIGEABAA/ISDTC> ;
    rdf:_2 <https://w3id.org/cdisc/cosmos/dss/IS/ARIGEABAA/ISTEST> ;
    rdf:_3 <https://w3id.org/cdisc/cosmos/dss/IS/ARIGEABAA/ISBDAGNT> ;
    rdf:_4 <https://w3id.org/cdisc/cosmos/dss/IS/ARIGEABAA/ISCAT> ;
    rdf:_5 <https://w3id.org/cdisc/cosmos/dss/IS/ARIGEABAA/ISSCAT> ;
    rdf:_6 <https://w3id.org/cdisc/cosmos/dss/IS/ARIGEABAA/ISORRES> ;
    rdf:_7 <https://w3id.org/cdisc/cosmos/dss/IS/ARIGEABAA/ISORRESU> ;
    rdf:_8 <https://w3id.org/cdisc/cosmos/dss/IS/ARIGEABAA/ISSTRESC> ;
    rdf:_9 <https://w3id.org/cdisc/cosmos/dss/IS/ARIGEABAA/ISSTRESN> ;
    cosmos_sdtm:biomedicalConceptId NCIT:C181398 ;
    cosmos_sdtm:domain "IS" ;
    cosmos_sdtm:packageDate "2026-05-26"^^xsd:date ;
    cosmos_sdtm:packageType <https://www.cdisc.org/cosmos/sdtm_v1.0/PackageTypeEnum#sdtm> ;
    cosmos_sdtm:sdtmigStartVersion "3-4" ;
    cosmos_sdtm:shortName "Allergen-induced IgE Antibody for Alternaria Alternata" ;
    cosmos_sdtm:source "IS.ISTESTCD" ;
    cosmos_sdtm:variables <https://w3id.org/cdisc/cosmos/dss/IS/ARIGEABAA/ISBDAGNT>,
        <https://w3id.org/cdisc/cosmos/dss/IS/ARIGEABAA/ISCAT>,
        <https://w3id.org/cdisc/cosmos/dss/IS/ARIGEABAA/ISDTC>,
        <https://w3id.org/cdisc/cosmos/dss/IS/ARIGEABAA/ISMETHOD>,
        <https://w3id.org/cdisc/cosmos/dss/IS/ARIGEABAA/ISORRES>,
        <https://w3id.org/cdisc/cosmos/dss/IS/ARIGEABAA/ISORRESU>,
        <https://w3id.org/cdisc/cosmos/dss/IS/ARIGEABAA/ISSCAT>,
        <https://w3id.org/cdisc/cosmos/dss/IS/ARIGEABAA/ISSPEC>,
        <https://w3id.org/cdisc/cosmos/dss/IS/ARIGEABAA/ISSTRESC>,
        <https://w3id.org/cdisc/cosmos/dss/IS/ARIGEABAA/ISSTRESN>,
        <https://w3id.org/cdisc/cosmos/dss/IS/ARIGEABAA/ISSTRESU>,
        <https://w3id.org/cdisc/cosmos/dss/IS/ARIGEABAA/ISTEST>,
        <https://w3id.org/cdisc/cosmos/dss/IS/ARIGEABAA/ISTESTCD> .

<https://w3id.org/cdisc/cosmos/dss/IS/ARIGEABAAMAST7> a cosmos_sdtm:SDTMGroup ;
    dcterms:identifier "ARIGEABAAMAST7" ;
    rdf:_1 <https://w3id.org/cdisc/cosmos/dss/IS/ARIGEABAAMAST7/ISTESTCD> ;
    rdf:_10 <https://w3id.org/cdisc/cosmos/dss/IS/ARIGEABAAMAST7/ISSPEC> ;
    rdf:_11 <https://w3id.org/cdisc/cosmos/dss/IS/ARIGEABAAMAST7/ISMETHOD> ;
    rdf:_12 <https://w3id.org/cdisc/cosmos/dss/IS/ARIGEABAAMAST7/ISDTC> ;
    rdf:_2 <https://w3id.org/cdisc/cosmos/dss/IS/ARIGEABAAMAST7/ISTEST> ;
    rdf:_3 <https://w3id.org/cdisc/cosmos/dss/IS/ARIGEABAAMAST7/ISBDAGNT> ;
    rdf:_4 <https://w3id.org/cdisc/cosmos/dss/IS/ARIGEABAAMAST7/ISTSTDTL> ;
    rdf:_5 <https://w3id.org/cdisc/cosmos/dss/IS/ARIGEABAAMAST7/ISCAT> ;
    rdf:_6 <https://w3id.org/cdisc/cosmos/dss/IS/ARIGEABAAMAST7/ISSCAT> ;
    rdf:_7 <https://w3id.org/cdisc/cosmos/dss/IS/ARIGEABAAMAST7/ISORRES> ;
    rdf:_8 <https://w3id.org/cdisc/cosmos/dss/IS/ARIGEABAAMAST7/ISSTRESC> ;
    rdf:_9 <https://w3id.org/cdisc/cosmos/dss/IS/ARIGEABAAMAST7/ISSTRESN> ;
    cosmos_sdtm:biomedicalConceptId NCIT:C181398 ;
    cosmos_sdtm:domain "IS" ;
    cosmos_sdtm:packageDate "2026-07-14"^^xsd:date ;
    cosmos_sdtm:packageType <https://www.cdisc.org/cosmos/sdtm_v1.0/PackageTypeEnum#sdtm> ;
    cosmos_sdtm:sdtmigStartVersion "3-4" ;
    cosmos_sdtm:shortName "Allergen-induced IgE Antibody for Alternaria Alternata Mast 7-Class" ;
    cosmos_sdtm:source "IS.ISTESTCD" ;
    cosmos_sdtm:variables <https://w3id.org/cdisc/cosmos/dss/IS/ARIGEABAAMAST7/ISBDAGNT>,
        <https://w3id.org/cdisc/cosmos/dss/IS/ARIGEABAAMAST7/ISCAT>,
        <https://w3id.org/cdisc/cosmos/dss/IS/ARIGEABAAMAST7/ISDTC>,
        <https://w3id.org/cdisc/cosmos/dss/IS/ARIGEABAAMAST7/ISMETHOD>,
        <https://w3id.org/cdisc/cosmos/dss/IS/ARIGEABAAMAST7/ISORRES>,
        <https://w3id.org/cdisc/cosmos/dss/IS/ARIGEABAAMAST7/ISSCAT>,
        <https://w3id.org/cdisc/cosmos/dss/IS/ARIGEABAAMAST7/ISSPEC>,
        <https://w3id.org/cdisc/cosmos/dss/IS/ARIGEABAAMAST7/ISSTRESC>,
        <https://w3id.org/cdisc/cosmos/dss/IS/ARIGEABAAMAST7/ISSTRESN>,
        <https://w3id.org/cdisc/cosmos/dss/IS/ARIGEABAAMAST7/ISTEST>,
        <https://w3id.org/cdisc/cosmos/dss/IS/ARIGEABAAMAST7/ISTESTCD>,
        <https://w3id.org/cdisc/cosmos/dss/IS/ARIGEABAAMAST7/ISTSTDTL> .

<https://w3id.org/cdisc/cosmos/dss/IS/ARIGEABAARAST> a cosmos_sdtm:SDTMGroup ;
    dcterms:identifier "ARIGEABAARAST" ;
    rdf:_1 <https://w3id.org/cdisc/cosmos/dss/IS/ARIGEABAARAST/ISTESTCD> ;
    rdf:_10 <https://w3id.org/cdisc/cosmos/dss/IS/ARIGEABAARAST/ISSPEC> ;
    rdf:_11 <https://w3id.org/cdisc/cosmos/dss/IS/ARIGEABAARAST/ISMETHOD> ;
    rdf:_12 <https://w3id.org/cdisc/cosmos/dss/IS/ARIGEABAARAST/ISDTC> ;
    rdf:_2 <https://w3id.org/cdisc/cosmos/dss/IS/ARIGEABAARAST/ISTEST> ;
    rdf:_3 <https://w3id.org/cdisc/cosmos/dss/IS/ARIGEABAARAST/ISBDAGNT> ;
    rdf:_4 <https://w3id.org/cdisc/cosmos/dss/IS/ARIGEABAARAST/ISTSTDTL> ;
    rdf:_5 <https://w3id.org/cdisc/cosmos/dss/IS/ARIGEABAARAST/ISCAT> ;
    rdf:_6 <https://w3id.org/cdisc/cosmos/dss/IS/ARIGEABAARAST/ISSCAT> ;
    rdf:_7 <https://w3id.org/cdisc/cosmos/dss/IS/ARIGEABAARAST/ISORRES> ;
    rdf:_8 <https://w3id.org/cdisc/cosmos/dss/IS/ARIGEABAARAST/ISSTRESC> ;
    rdf:_9 <https://w3id.org/cdisc/cosmos/dss/IS/ARIGEABAARAST/ISSTRESN> ;
    cosmos_sdtm:biomedicalConceptId NCIT:C181398 ;
    cosmos_sdtm:domain "IS" ;
    cosmos_sdtm:packageDate "2026-05-26"^^xsd:date ;
    cosmos_sdtm:packageType <https://www.cdisc.org/cosmos/sdtm_v1.0/PackageTypeEnum#sdtm> ;
    cosmos_sdtm:sdtmigStartVersion "3-4" ;
    cosmos_sdtm:shortName "Allergen-induced IgE Antibody for Alternaria Alternata Rast Score" ;
    cosmos_sdtm:source "IS.ISTESTCD" ;
    cosmos_sdtm:variables <https://w3id.org/cdisc/cosmos/dss/IS/ARIGEABAARAST/ISBDAGNT>,
        <https://w3id.org/cdisc/cosmos/dss/IS/ARIGEABAARAST/ISCAT>,
        <https://w3id.org/cdisc/cosmos/dss/IS/ARIGEABAARAST/ISDTC>,
        <https://w3id.org/cdisc/cosmos/dss/IS/ARIGEABAARAST/ISMETHOD>,
        <https://w3id.org/cdisc/cosmos/dss/IS/ARIGEABAARAST/ISORRES>,
        <https://w3id.org/cdisc/cosmos/dss/IS/ARIGEABAARAST/ISSCAT>,
        <https://w3id.org/cdisc/cosmos/dss/IS/ARIGEABAARAST/ISSPEC>,
        <https://w3id.org/cdisc/cosmos/dss/IS/ARIGEABAARAST/ISSTRESC>,
        <https://w3id.org/cdisc/cosmos/dss/IS/ARIGEABAARAST/ISSTRESN>,
        <https://w3id.org/cdisc/cosmos/dss/IS/ARIGEABAARAST/ISTEST>,
        <https://w3id.org/cdisc/cosmos/dss/IS/ARIGEABAARAST/ISTESTCD>,
        <https://w3id.org/cdisc/cosmos/dss/IS/ARIGEABAARAST/ISTSTDTL> .

<https://w3id.org/cdisc/cosmos/dss/IS/ARIGEABACA> a cosmos_sdtm:SDTMGroup ;
    dcterms:identifier "ARIGEABACA" ;
    rdf:_1 <https://w3id.org/cdisc/cosmos/dss/IS/ARIGEABACA/ISTESTCD> ;
    rdf:_10 <https://w3id.org/cdisc/cosmos/dss/IS/ARIGEABACA/ISSTRESU> ;
    rdf:_11 <https://w3id.org/cdisc/cosmos/dss/IS/ARIGEABACA/ISSPEC> ;
    rdf:_12 <https://w3id.org/cdisc/cosmos/dss/IS/ARIGEABACA/ISMETHOD> ;
    rdf:_13 <https://w3id.org/cdisc/cosmos/dss/IS/ARIGEABACA/ISDTC> ;
    rdf:_2 <https://w3id.org/cdisc/cosmos/dss/IS/ARIGEABACA/ISTEST> ;
    rdf:_3 <https://w3id.org/cdisc/cosmos/dss/IS/ARIGEABACA/ISBDAGNT> ;
    rdf:_4 <https://w3id.org/cdisc/cosmos/dss/IS/ARIGEABACA/ISCAT> ;
    rdf:_5 <https://w3id.org/cdisc/cosmos/dss/IS/ARIGEABACA/ISSCAT> ;
    rdf:_6 <https://w3id.org/cdisc/cosmos/dss/IS/ARIGEABACA/ISORRES> ;
    rdf:_7 <https://w3id.org/cdisc/cosmos/dss/IS/ARIGEABACA/ISORRESU> ;
    rdf:_8 <https://w3id.org/cdisc/cosmos/dss/IS/ARIGEABACA/ISSTRESC> ;
    rdf:_9 <https://w3id.org/cdisc/cosmos/dss/IS/ARIGEABACA/ISSTRESN> ;
    cosmos_sdtm:biomedicalConceptId NCIT:C181398 ;
    cosmos_sdtm:domain "IS" ;
    cosmos_sdtm:packageDate "2026-05-26"^^xsd:date ;
    cosmos_sdtm:packageType <https://www.cdisc.org/cosmos/sdtm_v1.0/PackageTypeEnum#sdtm> ;
    cosmos_sdtm:sdtmigStartVersion "3-4" ;
    cosmos_sdtm:shortName "Allergen-induced IgE Antibody for American Cockroach Antigen" ;
    cosmos_sdtm:source "IS.ISTESTCD" ;
    cosmos_sdtm:variables <https://w3id.org/cdisc/cosmos/dss/IS/ARIGEABACA/ISBDAGNT>,
        <https://w3id.org/cdisc/cosmos/dss/IS/ARIGEABACA/ISCAT>,
        <https://w3id.org/cdisc/cosmos/dss/IS/ARIGEABACA/ISDTC>,
        <https://w3id.org/cdisc/cosmos/dss/IS/ARIGEABACA/ISMETHOD>,
        <https://w3id.org/cdisc/cosmos/dss/IS/ARIGEABACA/ISORRES>,
        <https://w3id.org/cdisc/cosmos/dss/IS/ARIGEABACA/ISORRESU>,
        <https://w3id.org/cdisc/cosmos/dss/IS/ARIGEABACA/ISSCAT>,
        <https://w3id.org/cdisc/cosmos/dss/IS/ARIGEABACA/ISSPEC>,
        <https://w3id.org/cdisc/cosmos/dss/IS/ARIGEABACA/ISSTRESC>,
        <https://w3id.org/cdisc/cosmos/dss/IS/ARIGEABACA/ISSTRESN>,
        <https://w3id.org/cdisc/cosmos/dss/IS/ARIGEABACA/ISSTRESU>,
        <https://w3id.org/cdisc/cosmos/dss/IS/ARIGEABACA/ISTEST>,
        <https://w3id.org/cdisc/cosmos/dss/IS/ARIGEABACA/ISTESTCD> .

<https://w3id.org/cdisc/cosmos/dss/IS/ARIGEABACARAST> a cosmos_sdtm:SDTMGroup ;
    dcterms:identifier "ARIGEABACARAST" ;
    rdf:_1 <https://w3id.org/cdisc/cosmos/dss/IS/ARIGEABACARAST/ISTESTCD> ;
    rdf:_10 <https://w3id.org/cdisc/cosmos/dss/IS/ARIGEABACARAST/ISSPEC> ;
    rdf:_11 <https://w3id.org/cdisc/cosmos/dss/IS/ARIGEABACARAST/ISMETHOD> ;
    rdf:_12 <https://w3id.org/cdisc/cosmos/dss/IS/ARIGEABACARAST/ISDTC> ;
    rdf:_2 <https://w3id.org/cdisc/cosmos/dss/IS/ARIGEABACARAST/ISTEST> ;
    rdf:_3 <https://w3id.org/cdisc/cosmos/dss/IS/ARIGEABACARAST/ISBDAGNT> ;
    rdf:_4 <https://w3id.org/cdisc/cosmos/dss/IS/ARIGEABACARAST/ISTSTDTL> ;
    rdf:_5 <https://w3id.org/cdisc/cosmos/dss/IS/ARIGEABACARAST/ISCAT> ;
    rdf:_6 <https://w3id.org/cdisc/cosmos/dss/IS/ARIGEABACARAST/ISSCAT> ;
    rdf:_7 <https://w3id.org/cdisc/cosmos/dss/IS/ARIGEABACARAST/ISORRES> ;
    rdf:_8 <https://w3id.org/cdisc/cosmos/dss/IS/ARIGEABACARAST/ISSTRESC> ;
    rdf:_9 <https://w3id.org/cdisc/cosmos/dss/IS/ARIGEABACARAST/ISSTRESN> ;
    cosmos_sdtm:biomedicalConceptId NCIT:C181398 ;
    cosmos_sdtm:domain "IS" ;
    cosmos_sdtm:packageDate "2026-05-26"^^xsd:date ;
    cosmos_sdtm:packageType <https://www.cdisc.org/cosmos/sdtm_v1.0/PackageTypeEnum#sdtm> ;
    cosmos_sdtm:sdtmigStartVersion "3-4" ;
    cosmos_sdtm:shortName "Allergen-induced IgE Antibody for American Cockroach Antigen Rast Score" ;
    cosmos_sdtm:source "IS.ISTESTCD" ;
    cosmos_sdtm:variables <https://w3id.org/cdisc/cosmos/dss/IS/ARIGEABACARAST/ISBDAGNT>,
        <https://w3id.org/cdisc/cosmos/dss/IS/ARIGEABACARAST/ISCAT>,
        <https://w3id.org/cdisc/cosmos/dss/IS/ARIGEABACARAST/ISDTC>,
        <https://w3id.org/cdisc/cosmos/dss/IS/ARIGEABACARAST/ISMETHOD>,
        <https://w3id.org/cdisc/cosmos/dss/IS/ARIGEABACARAST/ISORRES>,
        <https://w3id.org/cdisc/cosmos/dss/IS/ARIGEABACARAST/ISSCAT>,
        <https://w3id.org/cdisc/cosmos/dss/IS/ARIGEABACARAST/ISSPEC>,
        <https://w3id.org/cdisc/cosmos/dss/IS/ARIGEABACARAST/ISSTRESC>,
        <https://w3id.org/cdisc/cosmos/dss/IS/ARIGEABACARAST/ISSTRESN>,
        <https://w3id.org/cdisc/cosmos/dss/IS/ARIGEABACARAST/ISTEST>,
        <https://w3id.org/cdisc/cosmos/dss/IS/ARIGEABACARAST/ISTESTCD>,
        <https://w3id.org/cdisc/cosmos/dss/IS/ARIGEABACARAST/ISTSTDTL> .

<https://w3id.org/cdisc/cosmos/dss/IS/ARIGEABAF> a cosmos_sdtm:SDTMGroup ;
    dcterms:identifier "ARIGEABAF" ;
    rdf:_1 <https://w3id.org/cdisc/cosmos/dss/IS/ARIGEABAF/ISTESTCD> ;
    rdf:_10 <https://w3id.org/cdisc/cosmos/dss/IS/ARIGEABAF/ISSTRESU> ;
    rdf:_11 <https://w3id.org/cdisc/cosmos/dss/IS/ARIGEABAF/ISSPEC> ;
    rdf:_12 <https://w3id.org/cdisc/cosmos/dss/IS/ARIGEABAF/ISMETHOD> ;
    rdf:_13 <https://w3id.org/cdisc/cosmos/dss/IS/ARIGEABAF/ISDTC> ;
    rdf:_2 <https://w3id.org/cdisc/cosmos/dss/IS/ARIGEABAF/ISTEST> ;
    rdf:_3 <https://w3id.org/cdisc/cosmos/dss/IS/ARIGEABAF/ISBDAGNT> ;
    rdf:_4 <https://w3id.org/cdisc/cosmos/dss/IS/ARIGEABAF/ISCAT> ;
    rdf:_5 <https://w3id.org/cdisc/cosmos/dss/IS/ARIGEABAF/ISSCAT> ;
    rdf:_6 <https://w3id.org/cdisc/cosmos/dss/IS/ARIGEABAF/ISORRES> ;
    rdf:_7 <https://w3id.org/cdisc/cosmos/dss/IS/ARIGEABAF/ISORRESU> ;
    rdf:_8 <https://w3id.org/cdisc/cosmos/dss/IS/ARIGEABAF/ISSTRESC> ;
    rdf:_9 <https://w3id.org/cdisc/cosmos/dss/IS/ARIGEABAF/ISSTRESN> ;
    cosmos_sdtm:biomedicalConceptId NCIT:C181398 ;
    cosmos_sdtm:domain "IS" ;
    cosmos_sdtm:packageDate "2026-05-26"^^xsd:date ;
    cosmos_sdtm:packageType <https://www.cdisc.org/cosmos/sdtm_v1.0/PackageTypeEnum#sdtm> ;
    cosmos_sdtm:sdtmigStartVersion "3-4" ;
    cosmos_sdtm:shortName "Allergen-induced IgE Antibody for Aspergillus Fumigatus" ;
    cosmos_sdtm:source "IS.ISTESTCD" ;
    cosmos_sdtm:variables <https://w3id.org/cdisc/cosmos/dss/IS/ARIGEABAF/ISBDAGNT>,
        <https://w3id.org/cdisc/cosmos/dss/IS/ARIGEABAF/ISCAT>,
        <https://w3id.org/cdisc/cosmos/dss/IS/ARIGEABAF/ISDTC>,
        <https://w3id.org/cdisc/cosmos/dss/IS/ARIGEABAF/ISMETHOD>,
        <https://w3id.org/cdisc/cosmos/dss/IS/ARIGEABAF/ISORRES>,
        <https://w3id.org/cdisc/cosmos/dss/IS/ARIGEABAF/ISORRESU>,
        <https://w3id.org/cdisc/cosmos/dss/IS/ARIGEABAF/ISSCAT>,
        <https://w3id.org/cdisc/cosmos/dss/IS/ARIGEABAF/ISSPEC>,
        <https://w3id.org/cdisc/cosmos/dss/IS/ARIGEABAF/ISSTRESC>,
        <https://w3id.org/cdisc/cosmos/dss/IS/ARIGEABAF/ISSTRESN>,
        <https://w3id.org/cdisc/cosmos/dss/IS/ARIGEABAF/ISSTRESU>,
        <https://w3id.org/cdisc/cosmos/dss/IS/ARIGEABAF/ISTEST>,
        <https://w3id.org/cdisc/cosmos/dss/IS/ARIGEABAF/ISTESTCD> .

<https://w3id.org/cdisc/cosmos/dss/IS/ARIGEABAFRAST> a cosmos_sdtm:SDTMGroup ;
    dcterms:identifier "ARIGEABAFRAST" ;
    rdf:_1 <https://w3id.org/cdisc/cosmos/dss/IS/ARIGEABAFRAST/ISTESTCD> ;
    rdf:_10 <https://w3id.org/cdisc/cosmos/dss/IS/ARIGEABAFRAST/ISSPEC> ;
    rdf:_11 <https://w3id.org/cdisc/cosmos/dss/IS/ARIGEABAFRAST/ISMETHOD> ;
    rdf:_12 <https://w3id.org/cdisc/cosmos/dss/IS/ARIGEABAFRAST/ISDTC> ;
    rdf:_2 <https://w3id.org/cdisc/cosmos/dss/IS/ARIGEABAFRAST/ISTEST> ;
    rdf:_3 <https://w3id.org/cdisc/cosmos/dss/IS/ARIGEABAFRAST/ISBDAGNT> ;
    rdf:_4 <https://w3id.org/cdisc/cosmos/dss/IS/ARIGEABAFRAST/ISTSTDTL> ;
    rdf:_5 <https://w3id.org/cdisc/cosmos/dss/IS/ARIGEABAFRAST/ISCAT> ;
    rdf:_6 <https://w3id.org/cdisc/cosmos/dss/IS/ARIGEABAFRAST/ISSCAT> ;
    rdf:_7 <https://w3id.org/cdisc/cosmos/dss/IS/ARIGEABAFRAST/ISORRES> ;
    rdf:_8 <https://w3id.org/cdisc/cosmos/dss/IS/ARIGEABAFRAST/ISSTRESC> ;
    rdf:_9 <https://w3id.org/cdisc/cosmos/dss/IS/ARIGEABAFRAST/ISSTRESN> ;
    cosmos_sdtm:biomedicalConceptId NCIT:C181398 ;
    cosmos_sdtm:domain "IS" ;
    cosmos_sdtm:packageDate "2026-05-26"^^xsd:date ;
    cosmos_sdtm:packageType <https://www.cdisc.org/cosmos/sdtm_v1.0/PackageTypeEnum#sdtm> ;
    cosmos_sdtm:sdtmigStartVersion "3-4" ;
    cosmos_sdtm:shortName "Allergen-induced IgE Antibody for Aspergillus Fumigatus Rast Score" ;
    cosmos_sdtm:source "IS.ISTESTCD" ;
    cosmos_sdtm:variables <https://w3id.org/cdisc/cosmos/dss/IS/ARIGEABAFRAST/ISBDAGNT>,
        <https://w3id.org/cdisc/cosmos/dss/IS/ARIGEABAFRAST/ISCAT>,
        <https://w3id.org/cdisc/cosmos/dss/IS/ARIGEABAFRAST/ISDTC>,
        <https://w3id.org/cdisc/cosmos/dss/IS/ARIGEABAFRAST/ISMETHOD>,
        <https://w3id.org/cdisc/cosmos/dss/IS/ARIGEABAFRAST/ISORRES>,
        <https://w3id.org/cdisc/cosmos/dss/IS/ARIGEABAFRAST/ISSCAT>,
        <https://w3id.org/cdisc/cosmos/dss/IS/ARIGEABAFRAST/ISSPEC>,
        <https://w3id.org/cdisc/cosmos/dss/IS/ARIGEABAFRAST/ISSTRESC>,
        <https://w3id.org/cdisc/cosmos/dss/IS/ARIGEABAFRAST/ISSTRESN>,
        <https://w3id.org/cdisc/cosmos/dss/IS/ARIGEABAFRAST/ISTEST>,
        <https://w3id.org/cdisc/cosmos/dss/IS/ARIGEABAFRAST/ISTESTCD>,
        <https://w3id.org/cdisc/cosmos/dss/IS/ARIGEABAFRAST/ISTSTDTL> .

<https://w3id.org/cdisc/cosmos/dss/IS/ARIGEABAHDMA> a cosmos_sdtm:SDTMGroup ;
    dcterms:identifier "ARIGEABAHDMA" ;
    rdf:_1 <https://w3id.org/cdisc/cosmos/dss/IS/ARIGEABAHDMA/ISTESTCD> ;
    rdf:_10 <https://w3id.org/cdisc/cosmos/dss/IS/ARIGEABAHDMA/ISSTRESU> ;
    rdf:_11 <https://w3id.org/cdisc/cosmos/dss/IS/ARIGEABAHDMA/ISSPEC> ;
    rdf:_12 <https://w3id.org/cdisc/cosmos/dss/IS/ARIGEABAHDMA/ISMETHOD> ;
    rdf:_13 <https://w3id.org/cdisc/cosmos/dss/IS/ARIGEABAHDMA/ISDTC> ;
    rdf:_2 <https://w3id.org/cdisc/cosmos/dss/IS/ARIGEABAHDMA/ISTEST> ;
    rdf:_3 <https://w3id.org/cdisc/cosmos/dss/IS/ARIGEABAHDMA/ISBDAGNT> ;
    rdf:_4 <https://w3id.org/cdisc/cosmos/dss/IS/ARIGEABAHDMA/ISCAT> ;
    rdf:_5 <https://w3id.org/cdisc/cosmos/dss/IS/ARIGEABAHDMA/ISSCAT> ;
    rdf:_6 <https://w3id.org/cdisc/cosmos/dss/IS/ARIGEABAHDMA/ISORRES> ;
    rdf:_7 <https://w3id.org/cdisc/cosmos/dss/IS/ARIGEABAHDMA/ISORRESU> ;
    rdf:_8 <https://w3id.org/cdisc/cosmos/dss/IS/ARIGEABAHDMA/ISSTRESC> ;
    rdf:_9 <https://w3id.org/cdisc/cosmos/dss/IS/ARIGEABAHDMA/ISSTRESN> ;
    cosmos_sdtm:biomedicalConceptId NCIT:C181398 ;
    cosmos_sdtm:domain "IS" ;
    cosmos_sdtm:packageDate "2026-05-26"^^xsd:date ;
    cosmos_sdtm:packageType <https://www.cdisc.org/cosmos/sdtm_v1.0/PackageTypeEnum#sdtm> ;
    cosmos_sdtm:sdtmigStartVersion "3-4" ;
    cosmos_sdtm:shortName "Allergen-induced IgE Antibody for American House Dust Mite Antigen" ;
    cosmos_sdtm:source "IS.ISTESTCD" ;
    cosmos_sdtm:variables <https://w3id.org/cdisc/cosmos/dss/IS/ARIGEABAHDMA/ISBDAGNT>,
        <https://w3id.org/cdisc/cosmos/dss/IS/ARIGEABAHDMA/ISCAT>,
        <https://w3id.org/cdisc/cosmos/dss/IS/ARIGEABAHDMA/ISDTC>,
        <https://w3id.org/cdisc/cosmos/dss/IS/ARIGEABAHDMA/ISMETHOD>,
        <https://w3id.org/cdisc/cosmos/dss/IS/ARIGEABAHDMA/ISORRES>,
        <https://w3id.org/cdisc/cosmos/dss/IS/ARIGEABAHDMA/ISORRESU>,
        <https://w3id.org/cdisc/cosmos/dss/IS/ARIGEABAHDMA/ISSCAT>,
        <https://w3id.org/cdisc/cosmos/dss/IS/ARIGEABAHDMA/ISSPEC>,
        <https://w3id.org/cdisc/cosmos/dss/IS/ARIGEABAHDMA/ISSTRESC>,
        <https://w3id.org/cdisc/cosmos/dss/IS/ARIGEABAHDMA/ISSTRESN>,
        <https://w3id.org/cdisc/cosmos/dss/IS/ARIGEABAHDMA/ISSTRESU>,
        <https://w3id.org/cdisc/cosmos/dss/IS/ARIGEABAHDMA/ISTEST>,
        <https://w3id.org/cdisc/cosmos/dss/IS/ARIGEABAHDMA/ISTESTCD> .

<https://w3id.org/cdisc/cosmos/dss/IS/ARIGEABAHDMARAST> a cosmos_sdtm:SDTMGroup ;
    dcterms:identifier "ARIGEABAHDMARAST" ;
    rdf:_1 <https://w3id.org/cdisc/cosmos/dss/IS/ARIGEABAHDMARAST/ISTESTCD> ;
    rdf:_10 <https://w3id.org/cdisc/cosmos/dss/IS/ARIGEABAHDMARAST/ISSPEC> ;
    rdf:_11 <https://w3id.org/cdisc/cosmos/dss/IS/ARIGEABAHDMARAST/ISMETHOD> ;
    rdf:_12 <https://w3id.org/cdisc/cosmos/dss/IS/ARIGEABAHDMARAST/ISDTC> ;
    rdf:_2 <https://w3id.org/cdisc/cosmos/dss/IS/ARIGEABAHDMARAST/ISTEST> ;
    rdf:_3 <https://w3id.org/cdisc/cosmos/dss/IS/ARIGEABAHDMARAST/ISBDAGNT> ;
    rdf:_4 <https://w3id.org/cdisc/cosmos/dss/IS/ARIGEABAHDMARAST/ISTSTDTL> ;
    rdf:_5 <https://w3id.org/cdisc/cosmos/dss/IS/ARIGEABAHDMARAST/ISCAT> ;
    rdf:_6 <https://w3id.org/cdisc/cosmos/dss/IS/ARIGEABAHDMARAST/ISSCAT> ;
    rdf:_7 <https://w3id.org/cdisc/cosmos/dss/IS/ARIGEABAHDMARAST/ISORRES> ;
    rdf:_8 <https://w3id.org/cdisc/cosmos/dss/IS/ARIGEABAHDMARAST/ISSTRESC> ;
    rdf:_9 <https://w3id.org/cdisc/cosmos/dss/IS/ARIGEABAHDMARAST/ISSTRESN> ;
    cosmos_sdtm:biomedicalConceptId NCIT:C181398 ;
    cosmos_sdtm:domain "IS" ;
    cosmos_sdtm:packageDate "2026-05-26"^^xsd:date ;
    cosmos_sdtm:packageType <https://www.cdisc.org/cosmos/sdtm_v1.0/PackageTypeEnum#sdtm> ;
    cosmos_sdtm:sdtmigStartVersion "3-4" ;
    cosmos_sdtm:shortName "Allergen-induced IgE Antibody for American House Dust Mite Antigen Rast Score" ;
    cosmos_sdtm:source "IS.ISTESTCD" ;
    cosmos_sdtm:variables <https://w3id.org/cdisc/cosmos/dss/IS/ARIGEABAHDMARAST/ISBDAGNT>,
        <https://w3id.org/cdisc/cosmos/dss/IS/ARIGEABAHDMARAST/ISCAT>,
        <https://w3id.org/cdisc/cosmos/dss/IS/ARIGEABAHDMARAST/ISDTC>,
        <https://w3id.org/cdisc/cosmos/dss/IS/ARIGEABAHDMARAST/ISMETHOD>,
        <https://w3id.org/cdisc/cosmos/dss/IS/ARIGEABAHDMARAST/ISORRES>,
        <https://w3id.org/cdisc/cosmos/dss/IS/ARIGEABAHDMARAST/ISSCAT>,
        <https://w3id.org/cdisc/cosmos/dss/IS/ARIGEABAHDMARAST/ISSPEC>,
        <https://w3id.org/cdisc/cosmos/dss/IS/ARIGEABAHDMARAST/ISSTRESC>,
        <https://w3id.org/cdisc/cosmos/dss/IS/ARIGEABAHDMARAST/ISSTRESN>,
        <https://w3id.org/cdisc/cosmos/dss/IS/ARIGEABAHDMARAST/ISTEST>,
        <https://w3id.org/cdisc/cosmos/dss/IS/ARIGEABAHDMARAST/ISTESTCD>,
        <https://w3id.org/cdisc/cosmos/dss/IS/ARIGEABAHDMARAST/ISTSTDTL> .

<https://w3id.org/cdisc/cosmos/dss/IS/ARIGEABAHDMMAST7> a cosmos_sdtm:SDTMGroup ;
    dcterms:identifier "ARIGEABAHDMMAST7" ;
    rdf:_1 <https://w3id.org/cdisc/cosmos/dss/IS/ARIGEABAHDMMAST7/ISTESTCD> ;
    rdf:_10 <https://w3id.org/cdisc/cosmos/dss/IS/ARIGEABAHDMMAST7/ISSPEC> ;
    rdf:_11 <https://w3id.org/cdisc/cosmos/dss/IS/ARIGEABAHDMMAST7/ISMETHOD> ;
    rdf:_12 <https://w3id.org/cdisc/cosmos/dss/IS/ARIGEABAHDMMAST7/ISDTC> ;
    rdf:_2 <https://w3id.org/cdisc/cosmos/dss/IS/ARIGEABAHDMMAST7/ISTEST> ;
    rdf:_3 <https://w3id.org/cdisc/cosmos/dss/IS/ARIGEABAHDMMAST7/ISBDAGNT> ;
    rdf:_4 <https://w3id.org/cdisc/cosmos/dss/IS/ARIGEABAHDMMAST7/ISTSTDTL> ;
    rdf:_5 <https://w3id.org/cdisc/cosmos/dss/IS/ARIGEABAHDMMAST7/ISCAT> ;
    rdf:_6 <https://w3id.org/cdisc/cosmos/dss/IS/ARIGEABAHDMMAST7/ISSCAT> ;
    rdf:_7 <https://w3id.org/cdisc/cosmos/dss/IS/ARIGEABAHDMMAST7/ISORRES> ;
    rdf:_8 <https://w3id.org/cdisc/cosmos/dss/IS/ARIGEABAHDMMAST7/ISSTRESC> ;
    rdf:_9 <https://w3id.org/cdisc/cosmos/dss/IS/ARIGEABAHDMMAST7/ISSTRESN> ;
    cosmos_sdtm:biomedicalConceptId NCIT:C181398 ;
    cosmos_sdtm:domain "IS" ;
    cosmos_sdtm:packageDate "2026-07-14"^^xsd:date ;
    cosmos_sdtm:packageType <https://www.cdisc.org/cosmos/sdtm_v1.0/PackageTypeEnum#sdtm> ;
    cosmos_sdtm:sdtmigStartVersion "3-4" ;
    cosmos_sdtm:shortName "Allergen-induced IgE Antibody for American House Dust Mite Antigen Mast 7-Class" ;
    cosmos_sdtm:source "IS.ISTESTCD" ;
    cosmos_sdtm:variables <https://w3id.org/cdisc/cosmos/dss/IS/ARIGEABAHDMMAST7/ISBDAGNT>,
        <https://w3id.org/cdisc/cosmos/dss/IS/ARIGEABAHDMMAST7/ISCAT>,
        <https://w3id.org/cdisc/cosmos/dss/IS/ARIGEABAHDMMAST7/ISDTC>,
        <https://w3id.org/cdisc/cosmos/dss/IS/ARIGEABAHDMMAST7/ISMETHOD>,
        <https://w3id.org/cdisc/cosmos/dss/IS/ARIGEABAHDMMAST7/ISORRES>,
        <https://w3id.org/cdisc/cosmos/dss/IS/ARIGEABAHDMMAST7/ISSCAT>,
        <https://w3id.org/cdisc/cosmos/dss/IS/ARIGEABAHDMMAST7/ISSPEC>,
        <https://w3id.org/cdisc/cosmos/dss/IS/ARIGEABAHDMMAST7/ISSTRESC>,
        <https://w3id.org/cdisc/cosmos/dss/IS/ARIGEABAHDMMAST7/ISSTRESN>,
        <https://w3id.org/cdisc/cosmos/dss/IS/ARIGEABAHDMMAST7/ISTEST>,
        <https://w3id.org/cdisc/cosmos/dss/IS/ARIGEABAHDMMAST7/ISTESTCD>,
        <https://w3id.org/cdisc/cosmos/dss/IS/ARIGEABAHDMMAST7/ISTSTDTL> .

<https://w3id.org/cdisc/cosmos/dss/IS/ARIGEABAMA> a cosmos_sdtm:SDTMGroup ;
    dcterms:identifier "ARIGEABAMA" ;
    rdf:_1 <https://w3id.org/cdisc/cosmos/dss/IS/ARIGEABAMA/ISTESTCD> ;
    rdf:_10 <https://w3id.org/cdisc/cosmos/dss/IS/ARIGEABAMA/ISSTRESU> ;
    rdf:_11 <https://w3id.org/cdisc/cosmos/dss/IS/ARIGEABAMA/ISSPEC> ;
    rdf:_12 <https://w3id.org/cdisc/cosmos/dss/IS/ARIGEABAMA/ISMETHOD> ;
    rdf:_13 <https://w3id.org/cdisc/cosmos/dss/IS/ARIGEABAMA/ISDTC> ;
    rdf:_2 <https://w3id.org/cdisc/cosmos/dss/IS/ARIGEABAMA/ISTEST> ;
    rdf:_3 <https://w3id.org/cdisc/cosmos/dss/IS/ARIGEABAMA/ISBDAGNT> ;
    rdf:_4 <https://w3id.org/cdisc/cosmos/dss/IS/ARIGEABAMA/ISCAT> ;
    rdf:_5 <https://w3id.org/cdisc/cosmos/dss/IS/ARIGEABAMA/ISSCAT> ;
    rdf:_6 <https://w3id.org/cdisc/cosmos/dss/IS/ARIGEABAMA/ISORRES> ;
    rdf:_7 <https://w3id.org/cdisc/cosmos/dss/IS/ARIGEABAMA/ISORRESU> ;
    rdf:_8 <https://w3id.org/cdisc/cosmos/dss/IS/ARIGEABAMA/ISSTRESC> ;
    rdf:_9 <https://w3id.org/cdisc/cosmos/dss/IS/ARIGEABAMA/ISSTRESN> ;
    cosmos_sdtm:biomedicalConceptId NCIT:C181398 ;
    cosmos_sdtm:domain "IS" ;
    cosmos_sdtm:packageDate "2026-05-26"^^xsd:date ;
    cosmos_sdtm:packageType <https://www.cdisc.org/cosmos/sdtm_v1.0/PackageTypeEnum#sdtm> ;
    cosmos_sdtm:sdtmigStartVersion "3-4" ;
    cosmos_sdtm:shortName "Allergen-induced IgE Antibody for Animal Mix Antigen" ;
    cosmos_sdtm:source "IS.ISTESTCD" ;
    cosmos_sdtm:variables <https://w3id.org/cdisc/cosmos/dss/IS/ARIGEABAMA/ISBDAGNT>,
        <https://w3id.org/cdisc/cosmos/dss/IS/ARIGEABAMA/ISCAT>,
        <https://w3id.org/cdisc/cosmos/dss/IS/ARIGEABAMA/ISDTC>,
        <https://w3id.org/cdisc/cosmos/dss/IS/ARIGEABAMA/ISMETHOD>,
        <https://w3id.org/cdisc/cosmos/dss/IS/ARIGEABAMA/ISORRES>,
        <https://w3id.org/cdisc/cosmos/dss/IS/ARIGEABAMA/ISORRESU>,
        <https://w3id.org/cdisc/cosmos/dss/IS/ARIGEABAMA/ISSCAT>,
        <https://w3id.org/cdisc/cosmos/dss/IS/ARIGEABAMA/ISSPEC>,
        <https://w3id.org/cdisc/cosmos/dss/IS/ARIGEABAMA/ISSTRESC>,
        <https://w3id.org/cdisc/cosmos/dss/IS/ARIGEABAMA/ISSTRESN>,
        <https://w3id.org/cdisc/cosmos/dss/IS/ARIGEABAMA/ISSTRESU>,
        <https://w3id.org/cdisc/cosmos/dss/IS/ARIGEABAMA/ISTEST>,
        <https://w3id.org/cdisc/cosmos/dss/IS/ARIGEABAMA/ISTESTCD> .

<https://w3id.org/cdisc/cosmos/dss/IS/ARIGEABAMARAST> a cosmos_sdtm:SDTMGroup ;
    dcterms:identifier "ARIGEABAMARAST" ;
    rdf:_1 <https://w3id.org/cdisc/cosmos/dss/IS/ARIGEABAMARAST/ISTESTCD> ;
    rdf:_10 <https://w3id.org/cdisc/cosmos/dss/IS/ARIGEABAMARAST/ISSPEC> ;
    rdf:_11 <https://w3id.org/cdisc/cosmos/dss/IS/ARIGEABAMARAST/ISMETHOD> ;
    rdf:_12 <https://w3id.org/cdisc/cosmos/dss/IS/ARIGEABAMARAST/ISDTC> ;
    rdf:_2 <https://w3id.org/cdisc/cosmos/dss/IS/ARIGEABAMARAST/ISTEST> ;
    rdf:_3 <https://w3id.org/cdisc/cosmos/dss/IS/ARIGEABAMARAST/ISBDAGNT> ;
    rdf:_4 <https://w3id.org/cdisc/cosmos/dss/IS/ARIGEABAMARAST/ISTSTDTL> ;
    rdf:_5 <https://w3id.org/cdisc/cosmos/dss/IS/ARIGEABAMARAST/ISCAT> ;
    rdf:_6 <https://w3id.org/cdisc/cosmos/dss/IS/ARIGEABAMARAST/ISSCAT> ;
    rdf:_7 <https://w3id.org/cdisc/cosmos/dss/IS/ARIGEABAMARAST/ISORRES> ;
    rdf:_8 <https://w3id.org/cdisc/cosmos/dss/IS/ARIGEABAMARAST/ISSTRESC> ;
    rdf:_9 <https://w3id.org/cdisc/cosmos/dss/IS/ARIGEABAMARAST/ISSTRESN> ;
    cosmos_sdtm:biomedicalConceptId NCIT:C181398 ;
    cosmos_sdtm:domain "IS" ;
    cosmos_sdtm:packageDate "2026-05-26"^^xsd:date ;
    cosmos_sdtm:packageType <https://www.cdisc.org/cosmos/sdtm_v1.0/PackageTypeEnum#sdtm> ;
    cosmos_sdtm:sdtmigStartVersion "3-4" ;
    cosmos_sdtm:shortName "Allergen-induced IgE Antibody for Animal Mix Antigen Rast Score" ;
    cosmos_sdtm:source "IS.ISTESTCD" ;
    cosmos_sdtm:variables <https://w3id.org/cdisc/cosmos/dss/IS/ARIGEABAMARAST/ISBDAGNT>,
        <https://w3id.org/cdisc/cosmos/dss/IS/ARIGEABAMARAST/ISCAT>,
        <https://w3id.org/cdisc/cosmos/dss/IS/ARIGEABAMARAST/ISDTC>,
        <https://w3id.org/cdisc/cosmos/dss/IS/ARIGEABAMARAST/ISMETHOD>,
        <https://w3id.org/cdisc/cosmos/dss/IS/ARIGEABAMARAST/ISORRES>,
        <https://w3id.org/cdisc/cosmos/dss/IS/ARIGEABAMARAST/ISSCAT>,
        <https://w3id.org/cdisc/cosmos/dss/IS/ARIGEABAMARAST/ISSPEC>,
        <https://w3id.org/cdisc/cosmos/dss/IS/ARIGEABAMARAST/ISSTRESC>,
        <https://w3id.org/cdisc/cosmos/dss/IS/ARIGEABAMARAST/ISSTRESN>,
        <https://w3id.org/cdisc/cosmos/dss/IS/ARIGEABAMARAST/ISTEST>,
        <https://w3id.org/cdisc/cosmos/dss/IS/ARIGEABAMARAST/ISTESTCD>,
        <https://w3id.org/cdisc/cosmos/dss/IS/ARIGEABAMARAST/ISTSTDTL> .

<https://w3id.org/cdisc/cosmos/dss/IS/ARIGEABAMAST7> a cosmos_sdtm:SDTMGroup ;
    dcterms:identifier "ARIGEABAMAST7" ;
    rdf:_1 <https://w3id.org/cdisc/cosmos/dss/IS/ARIGEABAMAST7/ISTESTCD> ;
    rdf:_10 <https://w3id.org/cdisc/cosmos/dss/IS/ARIGEABAMAST7/ISSPEC> ;
    rdf:_11 <https://w3id.org/cdisc/cosmos/dss/IS/ARIGEABAMAST7/ISMETHOD> ;
    rdf:_12 <https://w3id.org/cdisc/cosmos/dss/IS/ARIGEABAMAST7/ISDTC> ;
    rdf:_2 <https://w3id.org/cdisc/cosmos/dss/IS/ARIGEABAMAST7/ISTEST> ;
    rdf:_3 <https://w3id.org/cdisc/cosmos/dss/IS/ARIGEABAMAST7/ISBDAGNT> ;
    rdf:_4 <https://w3id.org/cdisc/cosmos/dss/IS/ARIGEABAMAST7/ISTSTDTL> ;
    rdf:_5 <https://w3id.org/cdisc/cosmos/dss/IS/ARIGEABAMAST7/ISCAT> ;
    rdf:_6 <https://w3id.org/cdisc/cosmos/dss/IS/ARIGEABAMAST7/ISSCAT> ;
    rdf:_7 <https://w3id.org/cdisc/cosmos/dss/IS/ARIGEABAMAST7/ISORRES> ;
    rdf:_8 <https://w3id.org/cdisc/cosmos/dss/IS/ARIGEABAMAST7/ISSTRESC> ;
    rdf:_9 <https://w3id.org/cdisc/cosmos/dss/IS/ARIGEABAMAST7/ISSTRESN> ;
    cosmos_sdtm:biomedicalConceptId NCIT:C181398 ;
    cosmos_sdtm:domain "IS" ;
    cosmos_sdtm:packageDate "2026-07-14"^^xsd:date ;
    cosmos_sdtm:packageType <https://www.cdisc.org/cosmos/sdtm_v1.0/PackageTypeEnum#sdtm> ;
    cosmos_sdtm:sdtmigStartVersion "3-4" ;
    cosmos_sdtm:shortName "Allergen-induced IgE Antibody for Aspergillus Mast 7-Class" ;
    cosmos_sdtm:source "IS.ISTESTCD" ;
    cosmos_sdtm:variables <https://w3id.org/cdisc/cosmos/dss/IS/ARIGEABAMAST7/ISBDAGNT>,
        <https://w3id.org/cdisc/cosmos/dss/IS/ARIGEABAMAST7/ISCAT>,
        <https://w3id.org/cdisc/cosmos/dss/IS/ARIGEABAMAST7/ISDTC>,
        <https://w3id.org/cdisc/cosmos/dss/IS/ARIGEABAMAST7/ISMETHOD>,
        <https://w3id.org/cdisc/cosmos/dss/IS/ARIGEABAMAST7/ISORRES>,
        <https://w3id.org/cdisc/cosmos/dss/IS/ARIGEABAMAST7/ISSCAT>,
        <https://w3id.org/cdisc/cosmos/dss/IS/ARIGEABAMAST7/ISSPEC>,
        <https://w3id.org/cdisc/cosmos/dss/IS/ARIGEABAMAST7/ISSTRESC>,
        <https://w3id.org/cdisc/cosmos/dss/IS/ARIGEABAMAST7/ISSTRESN>,
        <https://w3id.org/cdisc/cosmos/dss/IS/ARIGEABAMAST7/ISTEST>,
        <https://w3id.org/cdisc/cosmos/dss/IS/ARIGEABAMAST7/ISTESTCD>,
        <https://w3id.org/cdisc/cosmos/dss/IS/ARIGEABAMAST7/ISTSTDTL> .

<https://w3id.org/cdisc/cosmos/dss/IS/ARIGEABBEP> a cosmos_sdtm:SDTMGroup ;
    dcterms:identifier "ARIGEABBEP" ;
    rdf:_1 <https://w3id.org/cdisc/cosmos/dss/IS/ARIGEABBEP/ISTESTCD> ;
    rdf:_10 <https://w3id.org/cdisc/cosmos/dss/IS/ARIGEABBEP/ISSTRESU> ;
    rdf:_11 <https://w3id.org/cdisc/cosmos/dss/IS/ARIGEABBEP/ISSPEC> ;
    rdf:_12 <https://w3id.org/cdisc/cosmos/dss/IS/ARIGEABBEP/ISMETHOD> ;
    rdf:_13 <https://w3id.org/cdisc/cosmos/dss/IS/ARIGEABBEP/ISDTC> ;
    rdf:_2 <https://w3id.org/cdisc/cosmos/dss/IS/ARIGEABBEP/ISTEST> ;
    rdf:_3 <https://w3id.org/cdisc/cosmos/dss/IS/ARIGEABBEP/ISBDAGNT> ;
    rdf:_4 <https://w3id.org/cdisc/cosmos/dss/IS/ARIGEABBEP/ISCAT> ;
    rdf:_5 <https://w3id.org/cdisc/cosmos/dss/IS/ARIGEABBEP/ISSCAT> ;
    rdf:_6 <https://w3id.org/cdisc/cosmos/dss/IS/ARIGEABBEP/ISORRES> ;
    rdf:_7 <https://w3id.org/cdisc/cosmos/dss/IS/ARIGEABBEP/ISORRESU> ;
    rdf:_8 <https://w3id.org/cdisc/cosmos/dss/IS/ARIGEABBEP/ISSTRESC> ;
    rdf:_9 <https://w3id.org/cdisc/cosmos/dss/IS/ARIGEABBEP/ISSTRESN> ;
    cosmos_sdtm:biomedicalConceptId NCIT:C181398 ;
    cosmos_sdtm:domain "IS" ;
    cosmos_sdtm:packageDate "2026-05-26"^^xsd:date ;
    cosmos_sdtm:packageType <https://www.cdisc.org/cosmos/sdtm_v1.0/PackageTypeEnum#sdtm> ;
    cosmos_sdtm:sdtmigStartVersion "3-4" ;
    cosmos_sdtm:shortName "Allergen-induced IgE Antibody for Box Elder Pollen" ;
    cosmos_sdtm:source "IS.ISTESTCD" ;
    cosmos_sdtm:variables <https://w3id.org/cdisc/cosmos/dss/IS/ARIGEABBEP/ISBDAGNT>,
        <https://w3id.org/cdisc/cosmos/dss/IS/ARIGEABBEP/ISCAT>,
        <https://w3id.org/cdisc/cosmos/dss/IS/ARIGEABBEP/ISDTC>,
        <https://w3id.org/cdisc/cosmos/dss/IS/ARIGEABBEP/ISMETHOD>,
        <https://w3id.org/cdisc/cosmos/dss/IS/ARIGEABBEP/ISORRES>,
        <https://w3id.org/cdisc/cosmos/dss/IS/ARIGEABBEP/ISORRESU>,
        <https://w3id.org/cdisc/cosmos/dss/IS/ARIGEABBEP/ISSCAT>,
        <https://w3id.org/cdisc/cosmos/dss/IS/ARIGEABBEP/ISSPEC>,
        <https://w3id.org/cdisc/cosmos/dss/IS/ARIGEABBEP/ISSTRESC>,
        <https://w3id.org/cdisc/cosmos/dss/IS/ARIGEABBEP/ISSTRESN>,
        <https://w3id.org/cdisc/cosmos/dss/IS/ARIGEABBEP/ISSTRESU>,
        <https://w3id.org/cdisc/cosmos/dss/IS/ARIGEABBEP/ISTEST>,
        <https://w3id.org/cdisc/cosmos/dss/IS/ARIGEABBEP/ISTESTCD> .

<https://w3id.org/cdisc/cosmos/dss/IS/ARIGEABBEPRAST> a cosmos_sdtm:SDTMGroup ;
    dcterms:identifier "ARIGEABBEPRAST" ;
    rdf:_1 <https://w3id.org/cdisc/cosmos/dss/IS/ARIGEABBEPRAST/ISTESTCD> ;
    rdf:_10 <https://w3id.org/cdisc/cosmos/dss/IS/ARIGEABBEPRAST/ISSPEC> ;
    rdf:_11 <https://w3id.org/cdisc/cosmos/dss/IS/ARIGEABBEPRAST/ISMETHOD> ;
    rdf:_12 <https://w3id.org/cdisc/cosmos/dss/IS/ARIGEABBEPRAST/ISDTC> ;
    rdf:_2 <https://w3id.org/cdisc/cosmos/dss/IS/ARIGEABBEPRAST/ISTEST> ;
    rdf:_3 <https://w3id.org/cdisc/cosmos/dss/IS/ARIGEABBEPRAST/ISBDAGNT> ;
    rdf:_4 <https://w3id.org/cdisc/cosmos/dss/IS/ARIGEABBEPRAST/ISTSTDTL> ;
    rdf:_5 <https://w3id.org/cdisc/cosmos/dss/IS/ARIGEABBEPRAST/ISCAT> ;
    rdf:_6 <https://w3id.org/cdisc/cosmos/dss/IS/ARIGEABBEPRAST/ISSCAT> ;
    rdf:_7 <https://w3id.org/cdisc/cosmos/dss/IS/ARIGEABBEPRAST/ISORRES> ;
    rdf:_8 <https://w3id.org/cdisc/cosmos/dss/IS/ARIGEABBEPRAST/ISSTRESC> ;
    rdf:_9 <https://w3id.org/cdisc/cosmos/dss/IS/ARIGEABBEPRAST/ISSTRESN> ;
    cosmos_sdtm:biomedicalConceptId NCIT:C181398 ;
    cosmos_sdtm:domain "IS" ;
    cosmos_sdtm:packageDate "2026-05-26"^^xsd:date ;
    cosmos_sdtm:packageType <https://www.cdisc.org/cosmos/sdtm_v1.0/PackageTypeEnum#sdtm> ;
    cosmos_sdtm:sdtmigStartVersion "3-4" ;
    cosmos_sdtm:shortName "Allergen-induced IgE Antibody for Box Elder Pollen Rast Score" ;
    cosmos_sdtm:source "IS.ISTESTCD" ;
    cosmos_sdtm:variables <https://w3id.org/cdisc/cosmos/dss/IS/ARIGEABBEPRAST/ISBDAGNT>,
        <https://w3id.org/cdisc/cosmos/dss/IS/ARIGEABBEPRAST/ISCAT>,
        <https://w3id.org/cdisc/cosmos/dss/IS/ARIGEABBEPRAST/ISDTC>,
        <https://w3id.org/cdisc/cosmos/dss/IS/ARIGEABBEPRAST/ISMETHOD>,
        <https://w3id.org/cdisc/cosmos/dss/IS/ARIGEABBEPRAST/ISORRES>,
        <https://w3id.org/cdisc/cosmos/dss/IS/ARIGEABBEPRAST/ISSCAT>,
        <https://w3id.org/cdisc/cosmos/dss/IS/ARIGEABBEPRAST/ISSPEC>,
        <https://w3id.org/cdisc/cosmos/dss/IS/ARIGEABBEPRAST/ISSTRESC>,
        <https://w3id.org/cdisc/cosmos/dss/IS/ARIGEABBEPRAST/ISSTRESN>,
        <https://w3id.org/cdisc/cosmos/dss/IS/ARIGEABBEPRAST/ISTEST>,
        <https://w3id.org/cdisc/cosmos/dss/IS/ARIGEABBEPRAST/ISTESTCD>,
        <https://w3id.org/cdisc/cosmos/dss/IS/ARIGEABBEPRAST/ISTSTDTL> .

<https://w3id.org/cdisc/cosmos/dss/IS/ARIGEABBGP> a cosmos_sdtm:SDTMGroup ;
    dcterms:identifier "ARIGEABBGP" ;
    rdf:_1 <https://w3id.org/cdisc/cosmos/dss/IS/ARIGEABBGP/ISTESTCD> ;
    rdf:_10 <https://w3id.org/cdisc/cosmos/dss/IS/ARIGEABBGP/ISSTRESU> ;
    rdf:_11 <https://w3id.org/cdisc/cosmos/dss/IS/ARIGEABBGP/ISSPEC> ;
    rdf:_12 <https://w3id.org/cdisc/cosmos/dss/IS/ARIGEABBGP/ISMETHOD> ;
    rdf:_13 <https://w3id.org/cdisc/cosmos/dss/IS/ARIGEABBGP/ISDTC> ;
    rdf:_2 <https://w3id.org/cdisc/cosmos/dss/IS/ARIGEABBGP/ISTEST> ;
    rdf:_3 <https://w3id.org/cdisc/cosmos/dss/IS/ARIGEABBGP/ISBDAGNT> ;
    rdf:_4 <https://w3id.org/cdisc/cosmos/dss/IS/ARIGEABBGP/ISCAT> ;
    rdf:_5 <https://w3id.org/cdisc/cosmos/dss/IS/ARIGEABBGP/ISSCAT> ;
    rdf:_6 <https://w3id.org/cdisc/cosmos/dss/IS/ARIGEABBGP/ISORRES> ;
    rdf:_7 <https://w3id.org/cdisc/cosmos/dss/IS/ARIGEABBGP/ISORRESU> ;
    rdf:_8 <https://w3id.org/cdisc/cosmos/dss/IS/ARIGEABBGP/ISSTRESC> ;
    rdf:_9 <https://w3id.org/cdisc/cosmos/dss/IS/ARIGEABBGP/ISSTRESN> ;
    cosmos_sdtm:biomedicalConceptId NCIT:C181398 ;
    cosmos_sdtm:domain "IS" ;
    cosmos_sdtm:packageDate "2026-05-26"^^xsd:date ;
    cosmos_sdtm:packageType <https://www.cdisc.org/cosmos/sdtm_v1.0/PackageTypeEnum#sdtm> ;
    cosmos_sdtm:sdtmigStartVersion "3-4" ;
    cosmos_sdtm:shortName "Allergen-induced IgE Antibody for Bermuda Grass Pollen" ;
    cosmos_sdtm:source "IS.ISTESTCD" ;
    cosmos_sdtm:variables <https://w3id.org/cdisc/cosmos/dss/IS/ARIGEABBGP/ISBDAGNT>,
        <https://w3id.org/cdisc/cosmos/dss/IS/ARIGEABBGP/ISCAT>,
        <https://w3id.org/cdisc/cosmos/dss/IS/ARIGEABBGP/ISDTC>,
        <https://w3id.org/cdisc/cosmos/dss/IS/ARIGEABBGP/ISMETHOD>,
        <https://w3id.org/cdisc/cosmos/dss/IS/ARIGEABBGP/ISORRES>,
        <https://w3id.org/cdisc/cosmos/dss/IS/ARIGEABBGP/ISORRESU>,
        <https://w3id.org/cdisc/cosmos/dss/IS/ARIGEABBGP/ISSCAT>,
        <https://w3id.org/cdisc/cosmos/dss/IS/ARIGEABBGP/ISSPEC>,
        <https://w3id.org/cdisc/cosmos/dss/IS/ARIGEABBGP/ISSTRESC>,
        <https://w3id.org/cdisc/cosmos/dss/IS/ARIGEABBGP/ISSTRESN>,
        <https://w3id.org/cdisc/cosmos/dss/IS/ARIGEABBGP/ISSTRESU>,
        <https://w3id.org/cdisc/cosmos/dss/IS/ARIGEABBGP/ISTEST>,
        <https://w3id.org/cdisc/cosmos/dss/IS/ARIGEABBGP/ISTESTCD> .

<https://w3id.org/cdisc/cosmos/dss/IS/ARIGEABBGPRAST> a cosmos_sdtm:SDTMGroup ;
    dcterms:identifier "ARIGEABBGPRAST" ;
    rdf:_1 <https://w3id.org/cdisc/cosmos/dss/IS/ARIGEABBGPRAST/ISTESTCD> ;
    rdf:_10 <https://w3id.org/cdisc/cosmos/dss/IS/ARIGEABBGPRAST/ISSPEC> ;
    rdf:_11 <https://w3id.org/cdisc/cosmos/dss/IS/ARIGEABBGPRAST/ISMETHOD> ;
    rdf:_12 <https://w3id.org/cdisc/cosmos/dss/IS/ARIGEABBGPRAST/ISDTC> ;
    rdf:_2 <https://w3id.org/cdisc/cosmos/dss/IS/ARIGEABBGPRAST/ISTEST> ;
    rdf:_3 <https://w3id.org/cdisc/cosmos/dss/IS/ARIGEABBGPRAST/ISBDAGNT> ;
    rdf:_4 <https://w3id.org/cdisc/cosmos/dss/IS/ARIGEABBGPRAST/ISTSTDTL> ;
    rdf:_5 <https://w3id.org/cdisc/cosmos/dss/IS/ARIGEABBGPRAST/ISCAT> ;
    rdf:_6 <https://w3id.org/cdisc/cosmos/dss/IS/ARIGEABBGPRAST/ISSCAT> ;
    rdf:_7 <https://w3id.org/cdisc/cosmos/dss/IS/ARIGEABBGPRAST/ISORRES> ;
    rdf:_8 <https://w3id.org/cdisc/cosmos/dss/IS/ARIGEABBGPRAST/ISSTRESC> ;
    rdf:_9 <https://w3id.org/cdisc/cosmos/dss/IS/ARIGEABBGPRAST/ISSTRESN> ;
    cosmos_sdtm:biomedicalConceptId NCIT:C181398 ;
    cosmos_sdtm:domain "IS" ;
    cosmos_sdtm:packageDate "2026-05-26"^^xsd:date ;
    cosmos_sdtm:packageType <https://www.cdisc.org/cosmos/sdtm_v1.0/PackageTypeEnum#sdtm> ;
    cosmos_sdtm:sdtmigStartVersion "3-4" ;
    cosmos_sdtm:shortName "Allergen-induced IgE Antibody for Bermuda Grass Pollen Rast Score" ;
    cosmos_sdtm:source "IS.ISTESTCD" ;
    cosmos_sdtm:variables <https://w3id.org/cdisc/cosmos/dss/IS/ARIGEABBGPRAST/ISBDAGNT>,
        <https://w3id.org/cdisc/cosmos/dss/IS/ARIGEABBGPRAST/ISCAT>,
        <https://w3id.org/cdisc/cosmos/dss/IS/ARIGEABBGPRAST/ISDTC>,
        <https://w3id.org/cdisc/cosmos/dss/IS/ARIGEABBGPRAST/ISMETHOD>,
        <https://w3id.org/cdisc/cosmos/dss/IS/ARIGEABBGPRAST/ISORRES>,
        <https://w3id.org/cdisc/cosmos/dss/IS/ARIGEABBGPRAST/ISSCAT>,
        <https://w3id.org/cdisc/cosmos/dss/IS/ARIGEABBGPRAST/ISSPEC>,
        <https://w3id.org/cdisc/cosmos/dss/IS/ARIGEABBGPRAST/ISSTRESC>,
        <https://w3id.org/cdisc/cosmos/dss/IS/ARIGEABBGPRAST/ISSTRESN>,
        <https://w3id.org/cdisc/cosmos/dss/IS/ARIGEABBGPRAST/ISTEST>,
        <https://w3id.org/cdisc/cosmos/dss/IS/ARIGEABBGPRAST/ISTESTCD>,
        <https://w3id.org/cdisc/cosmos/dss/IS/ARIGEABBGPRAST/ISTSTDTL> .

<https://w3id.org/cdisc/cosmos/dss/IS/ARIGEABBMAST7> a cosmos_sdtm:SDTMGroup ;
    dcterms:identifier "ARIGEABBMAST7" ;
    rdf:_1 <https://w3id.org/cdisc/cosmos/dss/IS/ARIGEABBMAST7/ISTESTCD> ;
    rdf:_10 <https://w3id.org/cdisc/cosmos/dss/IS/ARIGEABBMAST7/ISSPEC> ;
    rdf:_11 <https://w3id.org/cdisc/cosmos/dss/IS/ARIGEABBMAST7/ISMETHOD> ;
    rdf:_12 <https://w3id.org/cdisc/cosmos/dss/IS/ARIGEABBMAST7/ISDTC> ;
    rdf:_2 <https://w3id.org/cdisc/cosmos/dss/IS/ARIGEABBMAST7/ISTEST> ;
    rdf:_3 <https://w3id.org/cdisc/cosmos/dss/IS/ARIGEABBMAST7/ISBDAGNT> ;
    rdf:_4 <https://w3id.org/cdisc/cosmos/dss/IS/ARIGEABBMAST7/ISTSTDTL> ;
    rdf:_5 <https://w3id.org/cdisc/cosmos/dss/IS/ARIGEABBMAST7/ISCAT> ;
    rdf:_6 <https://w3id.org/cdisc/cosmos/dss/IS/ARIGEABBMAST7/ISSCAT> ;
    rdf:_7 <https://w3id.org/cdisc/cosmos/dss/IS/ARIGEABBMAST7/ISORRES> ;
    rdf:_8 <https://w3id.org/cdisc/cosmos/dss/IS/ARIGEABBMAST7/ISSTRESC> ;
    rdf:_9 <https://w3id.org/cdisc/cosmos/dss/IS/ARIGEABBMAST7/ISSTRESN> ;
    cosmos_sdtm:biomedicalConceptId NCIT:C181398 ;
    cosmos_sdtm:domain "IS" ;
    cosmos_sdtm:packageDate "2026-07-14"^^xsd:date ;
    cosmos_sdtm:packageType <https://www.cdisc.org/cosmos/sdtm_v1.0/PackageTypeEnum#sdtm> ;
    cosmos_sdtm:sdtmigStartVersion "3-4" ;
    cosmos_sdtm:shortName "Allergen-induced IgE Antibody for Beef Antigen Mast 7-Class" ;
    cosmos_sdtm:source "IS.ISTESTCD" ;
    cosmos_sdtm:variables <https://w3id.org/cdisc/cosmos/dss/IS/ARIGEABBMAST7/ISBDAGNT>,
        <https://w3id.org/cdisc/cosmos/dss/IS/ARIGEABBMAST7/ISCAT>,
        <https://w3id.org/cdisc/cosmos/dss/IS/ARIGEABBMAST7/ISDTC>,
        <https://w3id.org/cdisc/cosmos/dss/IS/ARIGEABBMAST7/ISMETHOD>,
        <https://w3id.org/cdisc/cosmos/dss/IS/ARIGEABBMAST7/ISORRES>,
        <https://w3id.org/cdisc/cosmos/dss/IS/ARIGEABBMAST7/ISSCAT>,
        <https://w3id.org/cdisc/cosmos/dss/IS/ARIGEABBMAST7/ISSPEC>,
        <https://w3id.org/cdisc/cosmos/dss/IS/ARIGEABBMAST7/ISSTRESC>,
        <https://w3id.org/cdisc/cosmos/dss/IS/ARIGEABBMAST7/ISSTRESN>,
        <https://w3id.org/cdisc/cosmos/dss/IS/ARIGEABBMAST7/ISTEST>,
        <https://w3id.org/cdisc/cosmos/dss/IS/ARIGEABBMAST7/ISTESTCD>,
        <https://w3id.org/cdisc/cosmos/dss/IS/ARIGEABBMAST7/ISTSTDTL> .

<https://w3id.org/cdisc/cosmos/dss/IS/ARIGEABBMAST72> a cosmos_sdtm:SDTMGroup ;
    dcterms:identifier "ARIGEABBMAST72" ;
    rdf:_1 <https://w3id.org/cdisc/cosmos/dss/IS/ARIGEABBMAST72/ISTESTCD> ;
    rdf:_10 <https://w3id.org/cdisc/cosmos/dss/IS/ARIGEABBMAST72/ISSPEC> ;
    rdf:_11 <https://w3id.org/cdisc/cosmos/dss/IS/ARIGEABBMAST72/ISMETHOD> ;
    rdf:_12 <https://w3id.org/cdisc/cosmos/dss/IS/ARIGEABBMAST72/ISDTC> ;
    rdf:_2 <https://w3id.org/cdisc/cosmos/dss/IS/ARIGEABBMAST72/ISTEST> ;
    rdf:_3 <https://w3id.org/cdisc/cosmos/dss/IS/ARIGEABBMAST72/ISBDAGNT> ;
    rdf:_4 <https://w3id.org/cdisc/cosmos/dss/IS/ARIGEABBMAST72/ISTSTDTL> ;
    rdf:_5 <https://w3id.org/cdisc/cosmos/dss/IS/ARIGEABBMAST72/ISCAT> ;
    rdf:_6 <https://w3id.org/cdisc/cosmos/dss/IS/ARIGEABBMAST72/ISSCAT> ;
    rdf:_7 <https://w3id.org/cdisc/cosmos/dss/IS/ARIGEABBMAST72/ISORRES> ;
    rdf:_8 <https://w3id.org/cdisc/cosmos/dss/IS/ARIGEABBMAST72/ISSTRESC> ;
    rdf:_9 <https://w3id.org/cdisc/cosmos/dss/IS/ARIGEABBMAST72/ISSTRESN> ;
    cosmos_sdtm:biomedicalConceptId NCIT:C181398 ;
    cosmos_sdtm:domain "IS" ;
    cosmos_sdtm:packageDate "2026-07-14"^^xsd:date ;
    cosmos_sdtm:packageType <https://www.cdisc.org/cosmos/sdtm_v1.0/PackageTypeEnum#sdtm> ;
    cosmos_sdtm:sdtmigStartVersion "3-4" ;
    cosmos_sdtm:shortName "Allergen-induced IgE Antibody for Banana Antigen Mast 7-Class" ;
    cosmos_sdtm:source "IS.ISTESTCD" ;
    cosmos_sdtm:variables <https://w3id.org/cdisc/cosmos/dss/IS/ARIGEABBMAST72/ISBDAGNT>,
        <https://w3id.org/cdisc/cosmos/dss/IS/ARIGEABBMAST72/ISCAT>,
        <https://w3id.org/cdisc/cosmos/dss/IS/ARIGEABBMAST72/ISDTC>,
        <https://w3id.org/cdisc/cosmos/dss/IS/ARIGEABBMAST72/ISMETHOD>,
        <https://w3id.org/cdisc/cosmos/dss/IS/ARIGEABBMAST72/ISORRES>,
        <https://w3id.org/cdisc/cosmos/dss/IS/ARIGEABBMAST72/ISSCAT>,
        <https://w3id.org/cdisc/cosmos/dss/IS/ARIGEABBMAST72/ISSPEC>,
        <https://w3id.org/cdisc/cosmos/dss/IS/ARIGEABBMAST72/ISSTRESC>,
        <https://w3id.org/cdisc/cosmos/dss/IS/ARIGEABBMAST72/ISSTRESN>,
        <https://w3id.org/cdisc/cosmos/dss/IS/ARIGEABBMAST72/ISTEST>,
        <https://w3id.org/cdisc/cosmos/dss/IS/ARIGEABBMAST72/ISTESTCD>,
        <https://w3id.org/cdisc/cosmos/dss/IS/ARIGEABBMAST72/ISTSTDTL> .

<https://w3id.org/cdisc/cosmos/dss/IS/ARIGEABBMVA> a cosmos_sdtm:SDTMGroup ;
    dcterms:identifier "ARIGEABBMVA" ;
    rdf:_1 <https://w3id.org/cdisc/cosmos/dss/IS/ARIGEABBMVA/ISTESTCD> ;
    rdf:_10 <https://w3id.org/cdisc/cosmos/dss/IS/ARIGEABBMVA/ISSTRESU> ;
    rdf:_11 <https://w3id.org/cdisc/cosmos/dss/IS/ARIGEABBMVA/ISSPEC> ;
    rdf:_12 <https://w3id.org/cdisc/cosmos/dss/IS/ARIGEABBMVA/ISMETHOD> ;
    rdf:_13 <https://w3id.org/cdisc/cosmos/dss/IS/ARIGEABBMVA/ISDTC> ;
    rdf:_2 <https://w3id.org/cdisc/cosmos/dss/IS/ARIGEABBMVA/ISTEST> ;
    rdf:_3 <https://w3id.org/cdisc/cosmos/dss/IS/ARIGEABBMVA/ISBDAGNT> ;
    rdf:_4 <https://w3id.org/cdisc/cosmos/dss/IS/ARIGEABBMVA/ISCAT> ;
    rdf:_5 <https://w3id.org/cdisc/cosmos/dss/IS/ARIGEABBMVA/ISSCAT> ;
    rdf:_6 <https://w3id.org/cdisc/cosmos/dss/IS/ARIGEABBMVA/ISORRES> ;
    rdf:_7 <https://w3id.org/cdisc/cosmos/dss/IS/ARIGEABBMVA/ISORRESU> ;
    rdf:_8 <https://w3id.org/cdisc/cosmos/dss/IS/ARIGEABBMVA/ISSTRESC> ;
    rdf:_9 <https://w3id.org/cdisc/cosmos/dss/IS/ARIGEABBMVA/ISSTRESN> ;
    cosmos_sdtm:biomedicalConceptId NCIT:C181398 ;
    cosmos_sdtm:domain "IS" ;
    cosmos_sdtm:packageDate "2026-05-26"^^xsd:date ;
    cosmos_sdtm:packageType <https://www.cdisc.org/cosmos/sdtm_v1.0/PackageTypeEnum#sdtm> ;
    cosmos_sdtm:sdtmigStartVersion "3-4" ;
    cosmos_sdtm:shortName "Allergen-induced IgE Antibody for Bee Mix Venom Antigen" ;
    cosmos_sdtm:source "IS.ISTESTCD" ;
    cosmos_sdtm:variables <https://w3id.org/cdisc/cosmos/dss/IS/ARIGEABBMVA/ISBDAGNT>,
        <https://w3id.org/cdisc/cosmos/dss/IS/ARIGEABBMVA/ISCAT>,
        <https://w3id.org/cdisc/cosmos/dss/IS/ARIGEABBMVA/ISDTC>,
        <https://w3id.org/cdisc/cosmos/dss/IS/ARIGEABBMVA/ISMETHOD>,
        <https://w3id.org/cdisc/cosmos/dss/IS/ARIGEABBMVA/ISORRES>,
        <https://w3id.org/cdisc/cosmos/dss/IS/ARIGEABBMVA/ISORRESU>,
        <https://w3id.org/cdisc/cosmos/dss/IS/ARIGEABBMVA/ISSCAT>,
        <https://w3id.org/cdisc/cosmos/dss/IS/ARIGEABBMVA/ISSPEC>,
        <https://w3id.org/cdisc/cosmos/dss/IS/ARIGEABBMVA/ISSTRESC>,
        <https://w3id.org/cdisc/cosmos/dss/IS/ARIGEABBMVA/ISSTRESN>,
        <https://w3id.org/cdisc/cosmos/dss/IS/ARIGEABBMVA/ISSTRESU>,
        <https://w3id.org/cdisc/cosmos/dss/IS/ARIGEABBMVA/ISTEST>,
        <https://w3id.org/cdisc/cosmos/dss/IS/ARIGEABBMVA/ISTESTCD> .

<https://w3id.org/cdisc/cosmos/dss/IS/ARIGEABBMVARAST> a cosmos_sdtm:SDTMGroup ;
    dcterms:identifier "ARIGEABBMVARAST" ;
    rdf:_1 <https://w3id.org/cdisc/cosmos/dss/IS/ARIGEABBMVARAST/ISTESTCD> ;
    rdf:_10 <https://w3id.org/cdisc/cosmos/dss/IS/ARIGEABBMVARAST/ISSPEC> ;
    rdf:_11 <https://w3id.org/cdisc/cosmos/dss/IS/ARIGEABBMVARAST/ISMETHOD> ;
    rdf:_12 <https://w3id.org/cdisc/cosmos/dss/IS/ARIGEABBMVARAST/ISDTC> ;
    rdf:_2 <https://w3id.org/cdisc/cosmos/dss/IS/ARIGEABBMVARAST/ISTEST> ;
    rdf:_3 <https://w3id.org/cdisc/cosmos/dss/IS/ARIGEABBMVARAST/ISBDAGNT> ;
    rdf:_4 <https://w3id.org/cdisc/cosmos/dss/IS/ARIGEABBMVARAST/ISTSTDTL> ;
    rdf:_5 <https://w3id.org/cdisc/cosmos/dss/IS/ARIGEABBMVARAST/ISCAT> ;
    rdf:_6 <https://w3id.org/cdisc/cosmos/dss/IS/ARIGEABBMVARAST/ISSCAT> ;
    rdf:_7 <https://w3id.org/cdisc/cosmos/dss/IS/ARIGEABBMVARAST/ISORRES> ;
    rdf:_8 <https://w3id.org/cdisc/cosmos/dss/IS/ARIGEABBMVARAST/ISSTRESC> ;
    rdf:_9 <https://w3id.org/cdisc/cosmos/dss/IS/ARIGEABBMVARAST/ISSTRESN> ;
    cosmos_sdtm:biomedicalConceptId NCIT:C181398 ;
    cosmos_sdtm:domain "IS" ;
    cosmos_sdtm:packageDate "2026-05-26"^^xsd:date ;
    cosmos_sdtm:packageType <https://www.cdisc.org/cosmos/sdtm_v1.0/PackageTypeEnum#sdtm> ;
    cosmos_sdtm:sdtmigStartVersion "3-4" ;
    cosmos_sdtm:shortName "Allergen-induced IgE Antibody for Bee Mix Venom Antigen Rast Score" ;
    cosmos_sdtm:source "IS.ISTESTCD" ;
    cosmos_sdtm:variables <https://w3id.org/cdisc/cosmos/dss/IS/ARIGEABBMVARAST/ISBDAGNT>,
        <https://w3id.org/cdisc/cosmos/dss/IS/ARIGEABBMVARAST/ISCAT>,
        <https://w3id.org/cdisc/cosmos/dss/IS/ARIGEABBMVARAST/ISDTC>,
        <https://w3id.org/cdisc/cosmos/dss/IS/ARIGEABBMVARAST/ISMETHOD>,
        <https://w3id.org/cdisc/cosmos/dss/IS/ARIGEABBMVARAST/ISORRES>,
        <https://w3id.org/cdisc/cosmos/dss/IS/ARIGEABBMVARAST/ISSCAT>,
        <https://w3id.org/cdisc/cosmos/dss/IS/ARIGEABBMVARAST/ISSPEC>,
        <https://w3id.org/cdisc/cosmos/dss/IS/ARIGEABBMVARAST/ISSTRESC>,
        <https://w3id.org/cdisc/cosmos/dss/IS/ARIGEABBMVARAST/ISSTRESN>,
        <https://w3id.org/cdisc/cosmos/dss/IS/ARIGEABBMVARAST/ISTEST>,
        <https://w3id.org/cdisc/cosmos/dss/IS/ARIGEABBMVARAST/ISTESTCD>,
        <https://w3id.org/cdisc/cosmos/dss/IS/ARIGEABBMVARAST/ISTSTDTL> .

<https://w3id.org/cdisc/cosmos/dss/IS/ARIGEABCA> a cosmos_sdtm:SDTMGroup ;
    dcterms:identifier "ARIGEABCA" ;
    rdf:_1 <https://w3id.org/cdisc/cosmos/dss/IS/ARIGEABCA/ISTESTCD> ;
    rdf:_10 <https://w3id.org/cdisc/cosmos/dss/IS/ARIGEABCA/ISSTRESU> ;
    rdf:_11 <https://w3id.org/cdisc/cosmos/dss/IS/ARIGEABCA/ISSPEC> ;
    rdf:_12 <https://w3id.org/cdisc/cosmos/dss/IS/ARIGEABCA/ISMETHOD> ;
    rdf:_13 <https://w3id.org/cdisc/cosmos/dss/IS/ARIGEABCA/ISDTC> ;
    rdf:_2 <https://w3id.org/cdisc/cosmos/dss/IS/ARIGEABCA/ISTEST> ;
    rdf:_3 <https://w3id.org/cdisc/cosmos/dss/IS/ARIGEABCA/ISBDAGNT> ;
    rdf:_4 <https://w3id.org/cdisc/cosmos/dss/IS/ARIGEABCA/ISCAT> ;
    rdf:_5 <https://w3id.org/cdisc/cosmos/dss/IS/ARIGEABCA/ISSCAT> ;
    rdf:_6 <https://w3id.org/cdisc/cosmos/dss/IS/ARIGEABCA/ISORRES> ;
    rdf:_7 <https://w3id.org/cdisc/cosmos/dss/IS/ARIGEABCA/ISORRESU> ;
    rdf:_8 <https://w3id.org/cdisc/cosmos/dss/IS/ARIGEABCA/ISSTRESC> ;
    rdf:_9 <https://w3id.org/cdisc/cosmos/dss/IS/ARIGEABCA/ISSTRESN> ;
    cosmos_sdtm:biomedicalConceptId NCIT:C181398 ;
    cosmos_sdtm:domain "IS" ;
    cosmos_sdtm:packageDate "2026-05-26"^^xsd:date ;
    cosmos_sdtm:packageType <https://www.cdisc.org/cosmos/sdtm_v1.0/PackageTypeEnum#sdtm> ;
    cosmos_sdtm:sdtmigStartVersion "3-4" ;
    cosmos_sdtm:shortName "Allergen-induced IgE Antibody for Corn Antigen" ;
    cosmos_sdtm:source "IS.ISTESTCD" ;
    cosmos_sdtm:variables <https://w3id.org/cdisc/cosmos/dss/IS/ARIGEABCA/ISBDAGNT>,
        <https://w3id.org/cdisc/cosmos/dss/IS/ARIGEABCA/ISCAT>,
        <https://w3id.org/cdisc/cosmos/dss/IS/ARIGEABCA/ISDTC>,
        <https://w3id.org/cdisc/cosmos/dss/IS/ARIGEABCA/ISMETHOD>,
        <https://w3id.org/cdisc/cosmos/dss/IS/ARIGEABCA/ISORRES>,
        <https://w3id.org/cdisc/cosmos/dss/IS/ARIGEABCA/ISORRESU>,
        <https://w3id.org/cdisc/cosmos/dss/IS/ARIGEABCA/ISSCAT>,
        <https://w3id.org/cdisc/cosmos/dss/IS/ARIGEABCA/ISSPEC>,
        <https://w3id.org/cdisc/cosmos/dss/IS/ARIGEABCA/ISSTRESC>,
        <https://w3id.org/cdisc/cosmos/dss/IS/ARIGEABCA/ISSTRESN>,
        <https://w3id.org/cdisc/cosmos/dss/IS/ARIGEABCA/ISSTRESU>,
        <https://w3id.org/cdisc/cosmos/dss/IS/ARIGEABCA/ISTEST>,
        <https://w3id.org/cdisc/cosmos/dss/IS/ARIGEABCA/ISTESTCD> .

<https://w3id.org/cdisc/cosmos/dss/IS/ARIGEABCANA> a cosmos_sdtm:SDTMGroup ;
    dcterms:identifier "ARIGEABCANA" ;
    rdf:_1 <https://w3id.org/cdisc/cosmos/dss/IS/ARIGEABCANA/ISTESTCD> ;
    rdf:_10 <https://w3id.org/cdisc/cosmos/dss/IS/ARIGEABCANA/ISSTRESU> ;
    rdf:_11 <https://w3id.org/cdisc/cosmos/dss/IS/ARIGEABCANA/ISSPEC> ;
    rdf:_12 <https://w3id.org/cdisc/cosmos/dss/IS/ARIGEABCANA/ISMETHOD> ;
    rdf:_13 <https://w3id.org/cdisc/cosmos/dss/IS/ARIGEABCANA/ISDTC> ;
    rdf:_2 <https://w3id.org/cdisc/cosmos/dss/IS/ARIGEABCANA/ISTEST> ;
    rdf:_3 <https://w3id.org/cdisc/cosmos/dss/IS/ARIGEABCANA/ISBDAGNT> ;
    rdf:_4 <https://w3id.org/cdisc/cosmos/dss/IS/ARIGEABCANA/ISCAT> ;
    rdf:_5 <https://w3id.org/cdisc/cosmos/dss/IS/ARIGEABCANA/ISSCAT> ;
    rdf:_6 <https://w3id.org/cdisc/cosmos/dss/IS/ARIGEABCANA/ISORRES> ;
    rdf:_7 <https://w3id.org/cdisc/cosmos/dss/IS/ARIGEABCANA/ISORRESU> ;
    rdf:_8 <https://w3id.org/cdisc/cosmos/dss/IS/ARIGEABCANA/ISSTRESC> ;
    rdf:_9 <https://w3id.org/cdisc/cosmos/dss/IS/ARIGEABCANA/ISSTRESN> ;
    cosmos_sdtm:biomedicalConceptId NCIT:C181398 ;
    cosmos_sdtm:domain "IS" ;
    cosmos_sdtm:packageDate "2026-05-26"^^xsd:date ;
    cosmos_sdtm:packageType <https://www.cdisc.org/cosmos/sdtm_v1.0/PackageTypeEnum#sdtm> ;
    cosmos_sdtm:sdtmigStartVersion "3-4" ;
    cosmos_sdtm:shortName "Allergen-induced IgE Antibody for Corylus Avellana Nut Antigen" ;
    cosmos_sdtm:source "IS.ISTESTCD" ;
    cosmos_sdtm:variables <https://w3id.org/cdisc/cosmos/dss/IS/ARIGEABCANA/ISBDAGNT>,
        <https://w3id.org/cdisc/cosmos/dss/IS/ARIGEABCANA/ISCAT>,
        <https://w3id.org/cdisc/cosmos/dss/IS/ARIGEABCANA/ISDTC>,
        <https://w3id.org/cdisc/cosmos/dss/IS/ARIGEABCANA/ISMETHOD>,
        <https://w3id.org/cdisc/cosmos/dss/IS/ARIGEABCANA/ISORRES>,
        <https://w3id.org/cdisc/cosmos/dss/IS/ARIGEABCANA/ISORRESU>,
        <https://w3id.org/cdisc/cosmos/dss/IS/ARIGEABCANA/ISSCAT>,
        <https://w3id.org/cdisc/cosmos/dss/IS/ARIGEABCANA/ISSPEC>,
        <https://w3id.org/cdisc/cosmos/dss/IS/ARIGEABCANA/ISSTRESC>,
        <https://w3id.org/cdisc/cosmos/dss/IS/ARIGEABCANA/ISSTRESN>,
        <https://w3id.org/cdisc/cosmos/dss/IS/ARIGEABCANA/ISSTRESU>,
        <https://w3id.org/cdisc/cosmos/dss/IS/ARIGEABCANA/ISTEST>,
        <https://w3id.org/cdisc/cosmos/dss/IS/ARIGEABCANA/ISTESTCD> .

<https://w3id.org/cdisc/cosmos/dss/IS/ARIGEABCANARAST> a cosmos_sdtm:SDTMGroup ;
    dcterms:identifier "ARIGEABCANARAST" ;
    rdf:_1 <https://w3id.org/cdisc/cosmos/dss/IS/ARIGEABCANARAST/ISTESTCD> ;
    rdf:_10 <https://w3id.org/cdisc/cosmos/dss/IS/ARIGEABCANARAST/ISSPEC> ;
    rdf:_11 <https://w3id.org/cdisc/cosmos/dss/IS/ARIGEABCANARAST/ISMETHOD> ;
    rdf:_12 <https://w3id.org/cdisc/cosmos/dss/IS/ARIGEABCANARAST/ISDTC> ;
    rdf:_2 <https://w3id.org/cdisc/cosmos/dss/IS/ARIGEABCANARAST/ISTEST> ;
    rdf:_3 <https://w3id.org/cdisc/cosmos/dss/IS/ARIGEABCANARAST/ISBDAGNT> ;
    rdf:_4 <https://w3id.org/cdisc/cosmos/dss/IS/ARIGEABCANARAST/ISTSTDTL> ;
    rdf:_5 <https://w3id.org/cdisc/cosmos/dss/IS/ARIGEABCANARAST/ISCAT> ;
    rdf:_6 <https://w3id.org/cdisc/cosmos/dss/IS/ARIGEABCANARAST/ISSCAT> ;
    rdf:_7 <https://w3id.org/cdisc/cosmos/dss/IS/ARIGEABCANARAST/ISORRES> ;
    rdf:_8 <https://w3id.org/cdisc/cosmos/dss/IS/ARIGEABCANARAST/ISSTRESC> ;
    rdf:_9 <https://w3id.org/cdisc/cosmos/dss/IS/ARIGEABCANARAST/ISSTRESN> ;
    cosmos_sdtm:biomedicalConceptId NCIT:C181398 ;
    cosmos_sdtm:domain "IS" ;
    cosmos_sdtm:packageDate "2026-05-26"^^xsd:date ;
    cosmos_sdtm:packageType <https://www.cdisc.org/cosmos/sdtm_v1.0/PackageTypeEnum#sdtm> ;
    cosmos_sdtm:sdtmigStartVersion "3-4" ;
    cosmos_sdtm:shortName "Allergen-induced IgE Antibody for Corylus Avellana Nut Antigen Rast Score" ;
    cosmos_sdtm:source "IS.ISTESTCD" ;
    cosmos_sdtm:variables <https://w3id.org/cdisc/cosmos/dss/IS/ARIGEABCANARAST/ISBDAGNT>,
        <https://w3id.org/cdisc/cosmos/dss/IS/ARIGEABCANARAST/ISCAT>,
        <https://w3id.org/cdisc/cosmos/dss/IS/ARIGEABCANARAST/ISDTC>,
        <https://w3id.org/cdisc/cosmos/dss/IS/ARIGEABCANARAST/ISMETHOD>,
        <https://w3id.org/cdisc/cosmos/dss/IS/ARIGEABCANARAST/ISORRES>,
        <https://w3id.org/cdisc/cosmos/dss/IS/ARIGEABCANARAST/ISSCAT>,
        <https://w3id.org/cdisc/cosmos/dss/IS/ARIGEABCANARAST/ISSPEC>,
        <https://w3id.org/cdisc/cosmos/dss/IS/ARIGEABCANARAST/ISSTRESC>,
        <https://w3id.org/cdisc/cosmos/dss/IS/ARIGEABCANARAST/ISSTRESN>,
        <https://w3id.org/cdisc/cosmos/dss/IS/ARIGEABCANARAST/ISTEST>,
        <https://w3id.org/cdisc/cosmos/dss/IS/ARIGEABCANARAST/ISTESTCD>,
        <https://w3id.org/cdisc/cosmos/dss/IS/ARIGEABCANARAST/ISTSTDTL> .

<https://w3id.org/cdisc/cosmos/dss/IS/ARIGEABCARAST> a cosmos_sdtm:SDTMGroup ;
    dcterms:identifier "ARIGEABCARAST" ;
    rdf:_1 <https://w3id.org/cdisc/cosmos/dss/IS/ARIGEABCARAST/ISTESTCD> ;
    rdf:_10 <https://w3id.org/cdisc/cosmos/dss/IS/ARIGEABCARAST/ISSPEC> ;
    rdf:_11 <https://w3id.org/cdisc/cosmos/dss/IS/ARIGEABCARAST/ISMETHOD> ;
    rdf:_12 <https://w3id.org/cdisc/cosmos/dss/IS/ARIGEABCARAST/ISDTC> ;
    rdf:_2 <https://w3id.org/cdisc/cosmos/dss/IS/ARIGEABCARAST/ISTEST> ;
    rdf:_3 <https://w3id.org/cdisc/cosmos/dss/IS/ARIGEABCARAST/ISBDAGNT> ;
    rdf:_4 <https://w3id.org/cdisc/cosmos/dss/IS/ARIGEABCARAST/ISTSTDTL> ;
    rdf:_5 <https://w3id.org/cdisc/cosmos/dss/IS/ARIGEABCARAST/ISCAT> ;
    rdf:_6 <https://w3id.org/cdisc/cosmos/dss/IS/ARIGEABCARAST/ISSCAT> ;
    rdf:_7 <https://w3id.org/cdisc/cosmos/dss/IS/ARIGEABCARAST/ISORRES> ;
    rdf:_8 <https://w3id.org/cdisc/cosmos/dss/IS/ARIGEABCARAST/ISSTRESC> ;
    rdf:_9 <https://w3id.org/cdisc/cosmos/dss/IS/ARIGEABCARAST/ISSTRESN> ;
    cosmos_sdtm:biomedicalConceptId NCIT:C181398 ;
    cosmos_sdtm:domain "IS" ;
    cosmos_sdtm:packageDate "2026-05-26"^^xsd:date ;
    cosmos_sdtm:packageType <https://www.cdisc.org/cosmos/sdtm_v1.0/PackageTypeEnum#sdtm> ;
    cosmos_sdtm:sdtmigStartVersion "3-4" ;
    cosmos_sdtm:shortName "Allergen-induced IgE Antibody for Corn Antigen Rast Score" ;
    cosmos_sdtm:source "IS.ISTESTCD" ;
    cosmos_sdtm:variables <https://w3id.org/cdisc/cosmos/dss/IS/ARIGEABCARAST/ISBDAGNT>,
        <https://w3id.org/cdisc/cosmos/dss/IS/ARIGEABCARAST/ISCAT>,
        <https://w3id.org/cdisc/cosmos/dss/IS/ARIGEABCARAST/ISDTC>,
        <https://w3id.org/cdisc/cosmos/dss/IS/ARIGEABCARAST/ISMETHOD>,
        <https://w3id.org/cdisc/cosmos/dss/IS/ARIGEABCARAST/ISORRES>,
        <https://w3id.org/cdisc/cosmos/dss/IS/ARIGEABCARAST/ISSCAT>,
        <https://w3id.org/cdisc/cosmos/dss/IS/ARIGEABCARAST/ISSPEC>,
        <https://w3id.org/cdisc/cosmos/dss/IS/ARIGEABCARAST/ISSTRESC>,
        <https://w3id.org/cdisc/cosmos/dss/IS/ARIGEABCARAST/ISSTRESN>,
        <https://w3id.org/cdisc/cosmos/dss/IS/ARIGEABCARAST/ISTEST>,
        <https://w3id.org/cdisc/cosmos/dss/IS/ARIGEABCARAST/ISTESTCD>,
        <https://w3id.org/cdisc/cosmos/dss/IS/ARIGEABCARAST/ISTSTDTL> .

<https://w3id.org/cdisc/cosmos/dss/IS/ARIGEABCBMAST7> a cosmos_sdtm:SDTMGroup ;
    dcterms:identifier "ARIGEABCBMAST7" ;
    rdf:_1 <https://w3id.org/cdisc/cosmos/dss/IS/ARIGEABCBMAST7/ISTESTCD> ;
    rdf:_10 <https://w3id.org/cdisc/cosmos/dss/IS/ARIGEABCBMAST7/ISSPEC> ;
    rdf:_11 <https://w3id.org/cdisc/cosmos/dss/IS/ARIGEABCBMAST7/ISMETHOD> ;
    rdf:_12 <https://w3id.org/cdisc/cosmos/dss/IS/ARIGEABCBMAST7/ISDTC> ;
    rdf:_2 <https://w3id.org/cdisc/cosmos/dss/IS/ARIGEABCBMAST7/ISTEST> ;
    rdf:_3 <https://w3id.org/cdisc/cosmos/dss/IS/ARIGEABCBMAST7/ISBDAGNT> ;
    rdf:_4 <https://w3id.org/cdisc/cosmos/dss/IS/ARIGEABCBMAST7/ISTSTDTL> ;
    rdf:_5 <https://w3id.org/cdisc/cosmos/dss/IS/ARIGEABCBMAST7/ISCAT> ;
    rdf:_6 <https://w3id.org/cdisc/cosmos/dss/IS/ARIGEABCBMAST7/ISSCAT> ;
    rdf:_7 <https://w3id.org/cdisc/cosmos/dss/IS/ARIGEABCBMAST7/ISORRES> ;
    rdf:_8 <https://w3id.org/cdisc/cosmos/dss/IS/ARIGEABCBMAST7/ISSTRESC> ;
    rdf:_9 <https://w3id.org/cdisc/cosmos/dss/IS/ARIGEABCBMAST7/ISSTRESN> ;
    cosmos_sdtm:biomedicalConceptId NCIT:C181398 ;
    cosmos_sdtm:domain "IS" ;
    cosmos_sdtm:packageDate "2026-07-14"^^xsd:date ;
    cosmos_sdtm:packageType <https://www.cdisc.org/cosmos/sdtm_v1.0/PackageTypeEnum#sdtm> ;
    cosmos_sdtm:sdtmigStartVersion "3-4" ;
    cosmos_sdtm:shortName "Allergen-induced IgE Antibody for Common Buckwheat Antigen Mast 7-Class" ;
    cosmos_sdtm:source "IS.ISTESTCD" ;
    cosmos_sdtm:variables <https://w3id.org/cdisc/cosmos/dss/IS/ARIGEABCBMAST7/ISBDAGNT>,
        <https://w3id.org/cdisc/cosmos/dss/IS/ARIGEABCBMAST7/ISCAT>,
        <https://w3id.org/cdisc/cosmos/dss/IS/ARIGEABCBMAST7/ISDTC>,
        <https://w3id.org/cdisc/cosmos/dss/IS/ARIGEABCBMAST7/ISMETHOD>,
        <https://w3id.org/cdisc/cosmos/dss/IS/ARIGEABCBMAST7/ISORRES>,
        <https://w3id.org/cdisc/cosmos/dss/IS/ARIGEABCBMAST7/ISSCAT>,
        <https://w3id.org/cdisc/cosmos/dss/IS/ARIGEABCBMAST7/ISSPEC>,
        <https://w3id.org/cdisc/cosmos/dss/IS/ARIGEABCBMAST7/ISSTRESC>,
        <https://w3id.org/cdisc/cosmos/dss/IS/ARIGEABCBMAST7/ISSTRESN>,
        <https://w3id.org/cdisc/cosmos/dss/IS/ARIGEABCBMAST7/ISTEST>,
        <https://w3id.org/cdisc/cosmos/dss/IS/ARIGEABCBMAST7/ISTESTCD>,
        <https://w3id.org/cdisc/cosmos/dss/IS/ARIGEABCBMAST7/ISTSTDTL> .

<https://w3id.org/cdisc/cosmos/dss/IS/ARIGEABCDA> a cosmos_sdtm:SDTMGroup ;
    dcterms:identifier "ARIGEABCDA" ;
    rdf:_1 <https://w3id.org/cdisc/cosmos/dss/IS/ARIGEABCDA/ISTESTCD> ;
    rdf:_10 <https://w3id.org/cdisc/cosmos/dss/IS/ARIGEABCDA/ISSTRESU> ;
    rdf:_11 <https://w3id.org/cdisc/cosmos/dss/IS/ARIGEABCDA/ISSPEC> ;
    rdf:_12 <https://w3id.org/cdisc/cosmos/dss/IS/ARIGEABCDA/ISMETHOD> ;
    rdf:_13 <https://w3id.org/cdisc/cosmos/dss/IS/ARIGEABCDA/ISDTC> ;
    rdf:_2 <https://w3id.org/cdisc/cosmos/dss/IS/ARIGEABCDA/ISTEST> ;
    rdf:_3 <https://w3id.org/cdisc/cosmos/dss/IS/ARIGEABCDA/ISBDAGNT> ;
    rdf:_4 <https://w3id.org/cdisc/cosmos/dss/IS/ARIGEABCDA/ISCAT> ;
    rdf:_5 <https://w3id.org/cdisc/cosmos/dss/IS/ARIGEABCDA/ISSCAT> ;
    rdf:_6 <https://w3id.org/cdisc/cosmos/dss/IS/ARIGEABCDA/ISORRES> ;
    rdf:_7 <https://w3id.org/cdisc/cosmos/dss/IS/ARIGEABCDA/ISORRESU> ;
    rdf:_8 <https://w3id.org/cdisc/cosmos/dss/IS/ARIGEABCDA/ISSTRESC> ;
    rdf:_9 <https://w3id.org/cdisc/cosmos/dss/IS/ARIGEABCDA/ISSTRESN> ;
    cosmos_sdtm:biomedicalConceptId NCIT:C181398 ;
    cosmos_sdtm:domain "IS" ;
    cosmos_sdtm:packageDate "2026-05-26"^^xsd:date ;
    cosmos_sdtm:packageType <https://www.cdisc.org/cosmos/sdtm_v1.0/PackageTypeEnum#sdtm> ;
    cosmos_sdtm:sdtmigStartVersion "3-4" ;
    cosmos_sdtm:shortName "Allergen-induced IgE Antibody for Cat Dander Antigen" ;
    cosmos_sdtm:source "IS.ISTESTCD" ;
    cosmos_sdtm:variables <https://w3id.org/cdisc/cosmos/dss/IS/ARIGEABCDA/ISBDAGNT>,
        <https://w3id.org/cdisc/cosmos/dss/IS/ARIGEABCDA/ISCAT>,
        <https://w3id.org/cdisc/cosmos/dss/IS/ARIGEABCDA/ISDTC>,
        <https://w3id.org/cdisc/cosmos/dss/IS/ARIGEABCDA/ISMETHOD>,
        <https://w3id.org/cdisc/cosmos/dss/IS/ARIGEABCDA/ISORRES>,
        <https://w3id.org/cdisc/cosmos/dss/IS/ARIGEABCDA/ISORRESU>,
        <https://w3id.org/cdisc/cosmos/dss/IS/ARIGEABCDA/ISSCAT>,
        <https://w3id.org/cdisc/cosmos/dss/IS/ARIGEABCDA/ISSPEC>,
        <https://w3id.org/cdisc/cosmos/dss/IS/ARIGEABCDA/ISSTRESC>,
        <https://w3id.org/cdisc/cosmos/dss/IS/ARIGEABCDA/ISSTRESN>,
        <https://w3id.org/cdisc/cosmos/dss/IS/ARIGEABCDA/ISSTRESU>,
        <https://w3id.org/cdisc/cosmos/dss/IS/ARIGEABCDA/ISTEST>,
        <https://w3id.org/cdisc/cosmos/dss/IS/ARIGEABCDA/ISTESTCD> .

<https://w3id.org/cdisc/cosmos/dss/IS/ARIGEABCDARAST> a cosmos_sdtm:SDTMGroup ;
    dcterms:identifier "ARIGEABCDARAST" ;
    rdf:_1 <https://w3id.org/cdisc/cosmos/dss/IS/ARIGEABCDARAST/ISTESTCD> ;
    rdf:_10 <https://w3id.org/cdisc/cosmos/dss/IS/ARIGEABCDARAST/ISSPEC> ;
    rdf:_11 <https://w3id.org/cdisc/cosmos/dss/IS/ARIGEABCDARAST/ISMETHOD> ;
    rdf:_12 <https://w3id.org/cdisc/cosmos/dss/IS/ARIGEABCDARAST/ISDTC> ;
    rdf:_2 <https://w3id.org/cdisc/cosmos/dss/IS/ARIGEABCDARAST/ISTEST> ;
    rdf:_3 <https://w3id.org/cdisc/cosmos/dss/IS/ARIGEABCDARAST/ISBDAGNT> ;
    rdf:_4 <https://w3id.org/cdisc/cosmos/dss/IS/ARIGEABCDARAST/ISTSTDTL> ;
    rdf:_5 <https://w3id.org/cdisc/cosmos/dss/IS/ARIGEABCDARAST/ISCAT> ;
    rdf:_6 <https://w3id.org/cdisc/cosmos/dss/IS/ARIGEABCDARAST/ISSCAT> ;
    rdf:_7 <https://w3id.org/cdisc/cosmos/dss/IS/ARIGEABCDARAST/ISORRES> ;
    rdf:_8 <https://w3id.org/cdisc/cosmos/dss/IS/ARIGEABCDARAST/ISSTRESC> ;
    rdf:_9 <https://w3id.org/cdisc/cosmos/dss/IS/ARIGEABCDARAST/ISSTRESN> ;
    cosmos_sdtm:biomedicalConceptId NCIT:C181398 ;
    cosmos_sdtm:domain "IS" ;
    cosmos_sdtm:packageDate "2026-05-26"^^xsd:date ;
    cosmos_sdtm:packageType <https://www.cdisc.org/cosmos/sdtm_v1.0/PackageTypeEnum#sdtm> ;
    cosmos_sdtm:sdtmigStartVersion "3-4" ;
    cosmos_sdtm:shortName "Allergen-induced IgE Antibody for Cat Dander Antigen Rast Score" ;
    cosmos_sdtm:source "IS.ISTESTCD" ;
    cosmos_sdtm:variables <https://w3id.org/cdisc/cosmos/dss/IS/ARIGEABCDARAST/ISBDAGNT>,
        <https://w3id.org/cdisc/cosmos/dss/IS/ARIGEABCDARAST/ISCAT>,
        <https://w3id.org/cdisc/cosmos/dss/IS/ARIGEABCDARAST/ISDTC>,
        <https://w3id.org/cdisc/cosmos/dss/IS/ARIGEABCDARAST/ISMETHOD>,
        <https://w3id.org/cdisc/cosmos/dss/IS/ARIGEABCDARAST/ISORRES>,
        <https://w3id.org/cdisc/cosmos/dss/IS/ARIGEABCDARAST/ISSCAT>,
        <https://w3id.org/cdisc/cosmos/dss/IS/ARIGEABCDARAST/ISSPEC>,
        <https://w3id.org/cdisc/cosmos/dss/IS/ARIGEABCDARAST/ISSTRESC>,
        <https://w3id.org/cdisc/cosmos/dss/IS/ARIGEABCDARAST/ISSTRESN>,
        <https://w3id.org/cdisc/cosmos/dss/IS/ARIGEABCDARAST/ISTEST>,
        <https://w3id.org/cdisc/cosmos/dss/IS/ARIGEABCDARAST/ISTESTCD>,
        <https://w3id.org/cdisc/cosmos/dss/IS/ARIGEABCDARAST/ISTSTDTL> .

<https://w3id.org/cdisc/cosmos/dss/IS/ARIGEABCDMAST7> a cosmos_sdtm:SDTMGroup ;
    dcterms:identifier "ARIGEABCDMAST7" ;
    rdf:_1 <https://w3id.org/cdisc/cosmos/dss/IS/ARIGEABCDMAST7/ISTESTCD> ;
    rdf:_10 <https://w3id.org/cdisc/cosmos/dss/IS/ARIGEABCDMAST7/ISSPEC> ;
    rdf:_11 <https://w3id.org/cdisc/cosmos/dss/IS/ARIGEABCDMAST7/ISMETHOD> ;
    rdf:_12 <https://w3id.org/cdisc/cosmos/dss/IS/ARIGEABCDMAST7/ISDTC> ;
    rdf:_2 <https://w3id.org/cdisc/cosmos/dss/IS/ARIGEABCDMAST7/ISTEST> ;
    rdf:_3 <https://w3id.org/cdisc/cosmos/dss/IS/ARIGEABCDMAST7/ISBDAGNT> ;
    rdf:_4 <https://w3id.org/cdisc/cosmos/dss/IS/ARIGEABCDMAST7/ISTSTDTL> ;
    rdf:_5 <https://w3id.org/cdisc/cosmos/dss/IS/ARIGEABCDMAST7/ISCAT> ;
    rdf:_6 <https://w3id.org/cdisc/cosmos/dss/IS/ARIGEABCDMAST7/ISSCAT> ;
    rdf:_7 <https://w3id.org/cdisc/cosmos/dss/IS/ARIGEABCDMAST7/ISORRES> ;
    rdf:_8 <https://w3id.org/cdisc/cosmos/dss/IS/ARIGEABCDMAST7/ISSTRESC> ;
    rdf:_9 <https://w3id.org/cdisc/cosmos/dss/IS/ARIGEABCDMAST7/ISSTRESN> ;
    cosmos_sdtm:biomedicalConceptId NCIT:C181398 ;
    cosmos_sdtm:domain "IS" ;
    cosmos_sdtm:packageDate "2026-07-14"^^xsd:date ;
    cosmos_sdtm:packageType <https://www.cdisc.org/cosmos/sdtm_v1.0/PackageTypeEnum#sdtm> ;
    cosmos_sdtm:sdtmigStartVersion "3-4" ;
    cosmos_sdtm:shortName "Allergen-induced IgE Antibody for Cat Dander Antigen Mast 7-Class" ;
    cosmos_sdtm:source "IS.ISTESTCD" ;
    cosmos_sdtm:variables <https://w3id.org/cdisc/cosmos/dss/IS/ARIGEABCDMAST7/ISBDAGNT>,
        <https://w3id.org/cdisc/cosmos/dss/IS/ARIGEABCDMAST7/ISCAT>,
        <https://w3id.org/cdisc/cosmos/dss/IS/ARIGEABCDMAST7/ISDTC>,
        <https://w3id.org/cdisc/cosmos/dss/IS/ARIGEABCDMAST7/ISMETHOD>,
        <https://w3id.org/cdisc/cosmos/dss/IS/ARIGEABCDMAST7/ISORRES>,
        <https://w3id.org/cdisc/cosmos/dss/IS/ARIGEABCDMAST7/ISSCAT>,
        <https://w3id.org/cdisc/cosmos/dss/IS/ARIGEABCDMAST7/ISSPEC>,
        <https://w3id.org/cdisc/cosmos/dss/IS/ARIGEABCDMAST7/ISSTRESC>,
        <https://w3id.org/cdisc/cosmos/dss/IS/ARIGEABCDMAST7/ISSTRESN>,
        <https://w3id.org/cdisc/cosmos/dss/IS/ARIGEABCDMAST7/ISTEST>,
        <https://w3id.org/cdisc/cosmos/dss/IS/ARIGEABCDMAST7/ISTESTCD>,
        <https://w3id.org/cdisc/cosmos/dss/IS/ARIGEABCDMAST7/ISTSTDTL> .

<https://w3id.org/cdisc/cosmos/dss/IS/ARIGEABCH> a cosmos_sdtm:SDTMGroup ;
    dcterms:identifier "ARIGEABCH" ;
    rdf:_1 <https://w3id.org/cdisc/cosmos/dss/IS/ARIGEABCH/ISTEST> ;
    rdf:_10 <https://w3id.org/cdisc/cosmos/dss/IS/ARIGEABCH/ISSPEC> ;
    rdf:_11 <https://w3id.org/cdisc/cosmos/dss/IS/ARIGEABCH/ISMETHOD> ;
    rdf:_12 <https://w3id.org/cdisc/cosmos/dss/IS/ARIGEABCH/ISDTC> ;
    rdf:_13 <https://w3id.org/cdisc/cosmos/dss/IS/ARIGEABCH/ISTESTCD> ;
    rdf:_2 <https://w3id.org/cdisc/cosmos/dss/IS/ARIGEABCH/ISBDAGNT> ;
    rdf:_3 <https://w3id.org/cdisc/cosmos/dss/IS/ARIGEABCH/ISCAT> ;
    rdf:_4 <https://w3id.org/cdisc/cosmos/dss/IS/ARIGEABCH/ISSCAT> ;
    rdf:_5 <https://w3id.org/cdisc/cosmos/dss/IS/ARIGEABCH/ISORRES> ;
    rdf:_6 <https://w3id.org/cdisc/cosmos/dss/IS/ARIGEABCH/ISORRESU> ;
    rdf:_7 <https://w3id.org/cdisc/cosmos/dss/IS/ARIGEABCH/ISSTRESC> ;
    rdf:_8 <https://w3id.org/cdisc/cosmos/dss/IS/ARIGEABCH/ISSTRESN> ;
    rdf:_9 <https://w3id.org/cdisc/cosmos/dss/IS/ARIGEABCH/ISSTRESU> ;
    cosmos_sdtm:biomedicalConceptId NCIT:C181398 ;
    cosmos_sdtm:domain "IS" ;
    cosmos_sdtm:packageDate "2026-05-26"^^xsd:date ;
    cosmos_sdtm:packageType <https://www.cdisc.org/cosmos/sdtm_v1.0/PackageTypeEnum#sdtm> ;
    cosmos_sdtm:sdtmigStartVersion "3-4" ;
    cosmos_sdtm:shortName "Allergen-induced IgE Antibody for Cladosporium Herbarum" ;
    cosmos_sdtm:source "IS.ISTESTCD" ;
    cosmos_sdtm:variables <https://w3id.org/cdisc/cosmos/dss/IS/ARIGEABCH/ISBDAGNT>,
        <https://w3id.org/cdisc/cosmos/dss/IS/ARIGEABCH/ISCAT>,
        <https://w3id.org/cdisc/cosmos/dss/IS/ARIGEABCH/ISDTC>,
        <https://w3id.org/cdisc/cosmos/dss/IS/ARIGEABCH/ISMETHOD>,
        <https://w3id.org/cdisc/cosmos/dss/IS/ARIGEABCH/ISORRES>,
        <https://w3id.org/cdisc/cosmos/dss/IS/ARIGEABCH/ISORRESU>,
        <https://w3id.org/cdisc/cosmos/dss/IS/ARIGEABCH/ISSCAT>,
        <https://w3id.org/cdisc/cosmos/dss/IS/ARIGEABCH/ISSPEC>,
        <https://w3id.org/cdisc/cosmos/dss/IS/ARIGEABCH/ISSTRESC>,
        <https://w3id.org/cdisc/cosmos/dss/IS/ARIGEABCH/ISSTRESN>,
        <https://w3id.org/cdisc/cosmos/dss/IS/ARIGEABCH/ISSTRESU>,
        <https://w3id.org/cdisc/cosmos/dss/IS/ARIGEABCH/ISTEST>,
        <https://w3id.org/cdisc/cosmos/dss/IS/ARIGEABCH/ISTESTCD> .

<https://w3id.org/cdisc/cosmos/dss/IS/ARIGEABCHRAST> a cosmos_sdtm:SDTMGroup ;
    dcterms:identifier "ARIGEABCHRAST" ;
    rdf:_1 <https://w3id.org/cdisc/cosmos/dss/IS/ARIGEABCHRAST/ISTESTCD> ;
    rdf:_10 <https://w3id.org/cdisc/cosmos/dss/IS/ARIGEABCHRAST/ISSPEC> ;
    rdf:_11 <https://w3id.org/cdisc/cosmos/dss/IS/ARIGEABCHRAST/ISMETHOD> ;
    rdf:_12 <https://w3id.org/cdisc/cosmos/dss/IS/ARIGEABCHRAST/ISDTC> ;
    rdf:_2 <https://w3id.org/cdisc/cosmos/dss/IS/ARIGEABCHRAST/ISTEST> ;
    rdf:_3 <https://w3id.org/cdisc/cosmos/dss/IS/ARIGEABCHRAST/ISBDAGNT> ;
    rdf:_4 <https://w3id.org/cdisc/cosmos/dss/IS/ARIGEABCHRAST/ISTSTDTL> ;
    rdf:_5 <https://w3id.org/cdisc/cosmos/dss/IS/ARIGEABCHRAST/ISCAT> ;
    rdf:_6 <https://w3id.org/cdisc/cosmos/dss/IS/ARIGEABCHRAST/ISSCAT> ;
    rdf:_7 <https://w3id.org/cdisc/cosmos/dss/IS/ARIGEABCHRAST/ISORRES> ;
    rdf:_8 <https://w3id.org/cdisc/cosmos/dss/IS/ARIGEABCHRAST/ISSTRESC> ;
    rdf:_9 <https://w3id.org/cdisc/cosmos/dss/IS/ARIGEABCHRAST/ISSTRESN> ;
    cosmos_sdtm:biomedicalConceptId NCIT:C181398 ;
    cosmos_sdtm:domain "IS" ;
    cosmos_sdtm:packageDate "2026-05-26"^^xsd:date ;
    cosmos_sdtm:packageType <https://www.cdisc.org/cosmos/sdtm_v1.0/PackageTypeEnum#sdtm> ;
    cosmos_sdtm:sdtmigStartVersion "3-4" ;
    cosmos_sdtm:shortName "Allergen-induced IgE Antibody for Cladosporium Herbarum Rast Score" ;
    cosmos_sdtm:source "IS.ISTESTCD" ;
    cosmos_sdtm:variables <https://w3id.org/cdisc/cosmos/dss/IS/ARIGEABCHRAST/ISBDAGNT>,
        <https://w3id.org/cdisc/cosmos/dss/IS/ARIGEABCHRAST/ISCAT>,
        <https://w3id.org/cdisc/cosmos/dss/IS/ARIGEABCHRAST/ISDTC>,
        <https://w3id.org/cdisc/cosmos/dss/IS/ARIGEABCHRAST/ISMETHOD>,
        <https://w3id.org/cdisc/cosmos/dss/IS/ARIGEABCHRAST/ISORRES>,
        <https://w3id.org/cdisc/cosmos/dss/IS/ARIGEABCHRAST/ISSCAT>,
        <https://w3id.org/cdisc/cosmos/dss/IS/ARIGEABCHRAST/ISSPEC>,
        <https://w3id.org/cdisc/cosmos/dss/IS/ARIGEABCHRAST/ISSTRESC>,
        <https://w3id.org/cdisc/cosmos/dss/IS/ARIGEABCHRAST/ISSTRESN>,
        <https://w3id.org/cdisc/cosmos/dss/IS/ARIGEABCHRAST/ISTEST>,
        <https://w3id.org/cdisc/cosmos/dss/IS/ARIGEABCHRAST/ISTESTCD>,
        <https://w3id.org/cdisc/cosmos/dss/IS/ARIGEABCHRAST/ISTSTDTL> .

<https://w3id.org/cdisc/cosmos/dss/IS/ARIGEABCMA> a cosmos_sdtm:SDTMGroup ;
    dcterms:identifier "ARIGEABCMA" ;
    rdf:_1 <https://w3id.org/cdisc/cosmos/dss/IS/ARIGEABCMA/ISTESTCD> ;
    rdf:_10 <https://w3id.org/cdisc/cosmos/dss/IS/ARIGEABCMA/ISSTRESU> ;
    rdf:_11 <https://w3id.org/cdisc/cosmos/dss/IS/ARIGEABCMA/ISSPEC> ;
    rdf:_12 <https://w3id.org/cdisc/cosmos/dss/IS/ARIGEABCMA/ISMETHOD> ;
    rdf:_13 <https://w3id.org/cdisc/cosmos/dss/IS/ARIGEABCMA/ISDTC> ;
    rdf:_2 <https://w3id.org/cdisc/cosmos/dss/IS/ARIGEABCMA/ISTEST> ;
    rdf:_3 <https://w3id.org/cdisc/cosmos/dss/IS/ARIGEABCMA/ISBDAGNT> ;
    rdf:_4 <https://w3id.org/cdisc/cosmos/dss/IS/ARIGEABCMA/ISCAT> ;
    rdf:_5 <https://w3id.org/cdisc/cosmos/dss/IS/ARIGEABCMA/ISSCAT> ;
    rdf:_6 <https://w3id.org/cdisc/cosmos/dss/IS/ARIGEABCMA/ISORRES> ;
    rdf:_7 <https://w3id.org/cdisc/cosmos/dss/IS/ARIGEABCMA/ISORRESU> ;
    rdf:_8 <https://w3id.org/cdisc/cosmos/dss/IS/ARIGEABCMA/ISSTRESC> ;
    rdf:_9 <https://w3id.org/cdisc/cosmos/dss/IS/ARIGEABCMA/ISSTRESN> ;
    cosmos_sdtm:biomedicalConceptId NCIT:C181398 ;
    cosmos_sdtm:domain "IS" ;
    cosmos_sdtm:packageDate "2026-05-26"^^xsd:date ;
    cosmos_sdtm:packageType <https://www.cdisc.org/cosmos/sdtm_v1.0/PackageTypeEnum#sdtm> ;
    cosmos_sdtm:sdtmigStartVersion "3-4" ;
    cosmos_sdtm:shortName "Allergen-induced IgE Antibody for Cow Milk Antigen" ;
    cosmos_sdtm:source "IS.ISTESTCD" ;
    cosmos_sdtm:variables <https://w3id.org/cdisc/cosmos/dss/IS/ARIGEABCMA/ISBDAGNT>,
        <https://w3id.org/cdisc/cosmos/dss/IS/ARIGEABCMA/ISCAT>,
        <https://w3id.org/cdisc/cosmos/dss/IS/ARIGEABCMA/ISDTC>,
        <https://w3id.org/cdisc/cosmos/dss/IS/ARIGEABCMA/ISMETHOD>,
        <https://w3id.org/cdisc/cosmos/dss/IS/ARIGEABCMA/ISORRES>,
        <https://w3id.org/cdisc/cosmos/dss/IS/ARIGEABCMA/ISORRESU>,
        <https://w3id.org/cdisc/cosmos/dss/IS/ARIGEABCMA/ISSCAT>,
        <https://w3id.org/cdisc/cosmos/dss/IS/ARIGEABCMA/ISSPEC>,
        <https://w3id.org/cdisc/cosmos/dss/IS/ARIGEABCMA/ISSTRESC>,
        <https://w3id.org/cdisc/cosmos/dss/IS/ARIGEABCMA/ISSTRESN>,
        <https://w3id.org/cdisc/cosmos/dss/IS/ARIGEABCMA/ISSTRESU>,
        <https://w3id.org/cdisc/cosmos/dss/IS/ARIGEABCMA/ISTEST>,
        <https://w3id.org/cdisc/cosmos/dss/IS/ARIGEABCMA/ISTESTCD> .

<https://w3id.org/cdisc/cosmos/dss/IS/ARIGEABCMARAST> a cosmos_sdtm:SDTMGroup ;
    dcterms:identifier "ARIGEABCMARAST" ;
    rdf:_1 <https://w3id.org/cdisc/cosmos/dss/IS/ARIGEABCMARAST/ISTESTCD> ;
    rdf:_10 <https://w3id.org/cdisc/cosmos/dss/IS/ARIGEABCMARAST/ISSPEC> ;
    rdf:_11 <https://w3id.org/cdisc/cosmos/dss/IS/ARIGEABCMARAST/ISMETHOD> ;
    rdf:_12 <https://w3id.org/cdisc/cosmos/dss/IS/ARIGEABCMARAST/ISDTC> ;
    rdf:_2 <https://w3id.org/cdisc/cosmos/dss/IS/ARIGEABCMARAST/ISTEST> ;
    rdf:_3 <https://w3id.org/cdisc/cosmos/dss/IS/ARIGEABCMARAST/ISBDAGNT> ;
    rdf:_4 <https://w3id.org/cdisc/cosmos/dss/IS/ARIGEABCMARAST/ISTSTDTL> ;
    rdf:_5 <https://w3id.org/cdisc/cosmos/dss/IS/ARIGEABCMARAST/ISCAT> ;
    rdf:_6 <https://w3id.org/cdisc/cosmos/dss/IS/ARIGEABCMARAST/ISSCAT> ;
    rdf:_7 <https://w3id.org/cdisc/cosmos/dss/IS/ARIGEABCMARAST/ISORRES> ;
    rdf:_8 <https://w3id.org/cdisc/cosmos/dss/IS/ARIGEABCMARAST/ISSTRESC> ;
    rdf:_9 <https://w3id.org/cdisc/cosmos/dss/IS/ARIGEABCMARAST/ISSTRESN> ;
    cosmos_sdtm:biomedicalConceptId NCIT:C181398 ;
    cosmos_sdtm:domain "IS" ;
    cosmos_sdtm:packageDate "2026-05-26"^^xsd:date ;
    cosmos_sdtm:packageType <https://www.cdisc.org/cosmos/sdtm_v1.0/PackageTypeEnum#sdtm> ;
    cosmos_sdtm:sdtmigStartVersion "3-4" ;
    cosmos_sdtm:shortName "Allergen-induced IgE Antibody for Cow Milk Antigen Rast Score" ;
    cosmos_sdtm:source "IS.ISTESTCD" ;
    cosmos_sdtm:variables <https://w3id.org/cdisc/cosmos/dss/IS/ARIGEABCMARAST/ISBDAGNT>,
        <https://w3id.org/cdisc/cosmos/dss/IS/ARIGEABCMARAST/ISCAT>,
        <https://w3id.org/cdisc/cosmos/dss/IS/ARIGEABCMARAST/ISDTC>,
        <https://w3id.org/cdisc/cosmos/dss/IS/ARIGEABCMARAST/ISMETHOD>,
        <https://w3id.org/cdisc/cosmos/dss/IS/ARIGEABCMARAST/ISORRES>,
        <https://w3id.org/cdisc/cosmos/dss/IS/ARIGEABCMARAST/ISSCAT>,
        <https://w3id.org/cdisc/cosmos/dss/IS/ARIGEABCMARAST/ISSPEC>,
        <https://w3id.org/cdisc/cosmos/dss/IS/ARIGEABCMARAST/ISSTRESC>,
        <https://w3id.org/cdisc/cosmos/dss/IS/ARIGEABCMARAST/ISSTRESN>,
        <https://w3id.org/cdisc/cosmos/dss/IS/ARIGEABCMARAST/ISTEST>,
        <https://w3id.org/cdisc/cosmos/dss/IS/ARIGEABCMARAST/ISTESTCD>,
        <https://w3id.org/cdisc/cosmos/dss/IS/ARIGEABCMARAST/ISTSTDTL> .

<https://w3id.org/cdisc/cosmos/dss/IS/ARIGEABCMAST7> a cosmos_sdtm:SDTMGroup ;
    dcterms:identifier "ARIGEABCMAST7" ;
    rdf:_1 <https://w3id.org/cdisc/cosmos/dss/IS/ARIGEABCMAST7/ISTESTCD> ;
    rdf:_10 <https://w3id.org/cdisc/cosmos/dss/IS/ARIGEABCMAST7/ISSPEC> ;
    rdf:_11 <https://w3id.org/cdisc/cosmos/dss/IS/ARIGEABCMAST7/ISMETHOD> ;
    rdf:_12 <https://w3id.org/cdisc/cosmos/dss/IS/ARIGEABCMAST7/ISDTC> ;
    rdf:_2 <https://w3id.org/cdisc/cosmos/dss/IS/ARIGEABCMAST7/ISTEST> ;
    rdf:_3 <https://w3id.org/cdisc/cosmos/dss/IS/ARIGEABCMAST7/ISBDAGNT> ;
    rdf:_4 <https://w3id.org/cdisc/cosmos/dss/IS/ARIGEABCMAST7/ISTSTDTL> ;
    rdf:_5 <https://w3id.org/cdisc/cosmos/dss/IS/ARIGEABCMAST7/ISCAT> ;
    rdf:_6 <https://w3id.org/cdisc/cosmos/dss/IS/ARIGEABCMAST7/ISSCAT> ;
    rdf:_7 <https://w3id.org/cdisc/cosmos/dss/IS/ARIGEABCMAST7/ISORRES> ;
    rdf:_8 <https://w3id.org/cdisc/cosmos/dss/IS/ARIGEABCMAST7/ISSTRESC> ;
    rdf:_9 <https://w3id.org/cdisc/cosmos/dss/IS/ARIGEABCMAST7/ISSTRESN> ;
    cosmos_sdtm:biomedicalConceptId NCIT:C181398 ;
    cosmos_sdtm:domain "IS" ;
    cosmos_sdtm:packageDate "2026-07-14"^^xsd:date ;
    cosmos_sdtm:packageType <https://www.cdisc.org/cosmos/sdtm_v1.0/PackageTypeEnum#sdtm> ;
    cosmos_sdtm:sdtmigStartVersion "3-4" ;
    cosmos_sdtm:shortName "Allergen-induced IgE Antibody for Candida Mast 7-Class" ;
    cosmos_sdtm:source "IS.ISTESTCD" ;
    cosmos_sdtm:variables <https://w3id.org/cdisc/cosmos/dss/IS/ARIGEABCMAST7/ISBDAGNT>,
        <https://w3id.org/cdisc/cosmos/dss/IS/ARIGEABCMAST7/ISCAT>,
        <https://w3id.org/cdisc/cosmos/dss/IS/ARIGEABCMAST7/ISDTC>,
        <https://w3id.org/cdisc/cosmos/dss/IS/ARIGEABCMAST7/ISMETHOD>,
        <https://w3id.org/cdisc/cosmos/dss/IS/ARIGEABCMAST7/ISORRES>,
        <https://w3id.org/cdisc/cosmos/dss/IS/ARIGEABCMAST7/ISSCAT>,
        <https://w3id.org/cdisc/cosmos/dss/IS/ARIGEABCMAST7/ISSPEC>,
        <https://w3id.org/cdisc/cosmos/dss/IS/ARIGEABCMAST7/ISSTRESC>,
        <https://w3id.org/cdisc/cosmos/dss/IS/ARIGEABCMAST7/ISSTRESN>,
        <https://w3id.org/cdisc/cosmos/dss/IS/ARIGEABCMAST7/ISTEST>,
        <https://w3id.org/cdisc/cosmos/dss/IS/ARIGEABCMAST7/ISTESTCD>,
        <https://w3id.org/cdisc/cosmos/dss/IS/ARIGEABCMAST7/ISTSTDTL> .

<https://w3id.org/cdisc/cosmos/dss/IS/ARIGEABCMIXA> a cosmos_sdtm:SDTMGroup ;
    dcterms:identifier "ARIGEABCMIXA" ;
    rdf:_1 <https://w3id.org/cdisc/cosmos/dss/IS/ARIGEABCMIXA/ISTESTCD> ;
    rdf:_10 <https://w3id.org/cdisc/cosmos/dss/IS/ARIGEABCMIXA/ISSTRESU> ;
    rdf:_11 <https://w3id.org/cdisc/cosmos/dss/IS/ARIGEABCMIXA/ISSPEC> ;
    rdf:_12 <https://w3id.org/cdisc/cosmos/dss/IS/ARIGEABCMIXA/ISMETHOD> ;
    rdf:_13 <https://w3id.org/cdisc/cosmos/dss/IS/ARIGEABCMIXA/ISDTC> ;
    rdf:_2 <https://w3id.org/cdisc/cosmos/dss/IS/ARIGEABCMIXA/ISTEST> ;
    rdf:_3 <https://w3id.org/cdisc/cosmos/dss/IS/ARIGEABCMIXA/ISBDAGNT> ;
    rdf:_4 <https://w3id.org/cdisc/cosmos/dss/IS/ARIGEABCMIXA/ISCAT> ;
    rdf:_5 <https://w3id.org/cdisc/cosmos/dss/IS/ARIGEABCMIXA/ISSCAT> ;
    rdf:_6 <https://w3id.org/cdisc/cosmos/dss/IS/ARIGEABCMIXA/ISORRES> ;
    rdf:_7 <https://w3id.org/cdisc/cosmos/dss/IS/ARIGEABCMIXA/ISORRESU> ;
    rdf:_8 <https://w3id.org/cdisc/cosmos/dss/IS/ARIGEABCMIXA/ISSTRESC> ;
    rdf:_9 <https://w3id.org/cdisc/cosmos/dss/IS/ARIGEABCMIXA/ISSTRESN> ;
    cosmos_sdtm:biomedicalConceptId NCIT:C181398 ;
    cosmos_sdtm:domain "IS" ;
    cosmos_sdtm:packageDate "2026-05-26"^^xsd:date ;
    cosmos_sdtm:packageType <https://www.cdisc.org/cosmos/sdtm_v1.0/PackageTypeEnum#sdtm> ;
    cosmos_sdtm:sdtmigStartVersion "3-4" ;
    cosmos_sdtm:shortName "Allergen-induced IgE Antibody for Chemical Mix Antigens" ;
    cosmos_sdtm:source "IS.ISTESTCD" ;
    cosmos_sdtm:variables <https://w3id.org/cdisc/cosmos/dss/IS/ARIGEABCMIXA/ISBDAGNT>,
        <https://w3id.org/cdisc/cosmos/dss/IS/ARIGEABCMIXA/ISCAT>,
        <https://w3id.org/cdisc/cosmos/dss/IS/ARIGEABCMIXA/ISDTC>,
        <https://w3id.org/cdisc/cosmos/dss/IS/ARIGEABCMIXA/ISMETHOD>,
        <https://w3id.org/cdisc/cosmos/dss/IS/ARIGEABCMIXA/ISORRES>,
        <https://w3id.org/cdisc/cosmos/dss/IS/ARIGEABCMIXA/ISORRESU>,
        <https://w3id.org/cdisc/cosmos/dss/IS/ARIGEABCMIXA/ISSCAT>,
        <https://w3id.org/cdisc/cosmos/dss/IS/ARIGEABCMIXA/ISSPEC>,
        <https://w3id.org/cdisc/cosmos/dss/IS/ARIGEABCMIXA/ISSTRESC>,
        <https://w3id.org/cdisc/cosmos/dss/IS/ARIGEABCMIXA/ISSTRESN>,
        <https://w3id.org/cdisc/cosmos/dss/IS/ARIGEABCMIXA/ISSTRESU>,
        <https://w3id.org/cdisc/cosmos/dss/IS/ARIGEABCMIXA/ISTEST>,
        <https://w3id.org/cdisc/cosmos/dss/IS/ARIGEABCMIXA/ISTESTCD> .

<https://w3id.org/cdisc/cosmos/dss/IS/ARIGEABCMIXARAST> a cosmos_sdtm:SDTMGroup ;
    dcterms:identifier "ARIGEABCMIXARAST" ;
    rdf:_1 <https://w3id.org/cdisc/cosmos/dss/IS/ARIGEABCMIXARAST/ISTESTCD> ;
    rdf:_10 <https://w3id.org/cdisc/cosmos/dss/IS/ARIGEABCMIXARAST/ISSPEC> ;
    rdf:_11 <https://w3id.org/cdisc/cosmos/dss/IS/ARIGEABCMIXARAST/ISMETHOD> ;
    rdf:_12 <https://w3id.org/cdisc/cosmos/dss/IS/ARIGEABCMIXARAST/ISDTC> ;
    rdf:_2 <https://w3id.org/cdisc/cosmos/dss/IS/ARIGEABCMIXARAST/ISTEST> ;
    rdf:_3 <https://w3id.org/cdisc/cosmos/dss/IS/ARIGEABCMIXARAST/ISBDAGNT> ;
    rdf:_4 <https://w3id.org/cdisc/cosmos/dss/IS/ARIGEABCMIXARAST/ISTSTDTL> ;
    rdf:_5 <https://w3id.org/cdisc/cosmos/dss/IS/ARIGEABCMIXARAST/ISCAT> ;
    rdf:_6 <https://w3id.org/cdisc/cosmos/dss/IS/ARIGEABCMIXARAST/ISSCAT> ;
    rdf:_7 <https://w3id.org/cdisc/cosmos/dss/IS/ARIGEABCMIXARAST/ISORRES> ;
    rdf:_8 <https://w3id.org/cdisc/cosmos/dss/IS/ARIGEABCMIXARAST/ISSTRESC> ;
    rdf:_9 <https://w3id.org/cdisc/cosmos/dss/IS/ARIGEABCMIXARAST/ISSTRESN> ;
    cosmos_sdtm:biomedicalConceptId NCIT:C181398 ;
    cosmos_sdtm:domain "IS" ;
    cosmos_sdtm:packageDate "2026-05-26"^^xsd:date ;
    cosmos_sdtm:packageType <https://www.cdisc.org/cosmos/sdtm_v1.0/PackageTypeEnum#sdtm> ;
    cosmos_sdtm:sdtmigStartVersion "3-4" ;
    cosmos_sdtm:shortName "Allergen-induced IgE Antibody for Chemical Mix Antigens Rast Score" ;
    cosmos_sdtm:source "IS.ISTESTCD" ;
    cosmos_sdtm:variables <https://w3id.org/cdisc/cosmos/dss/IS/ARIGEABCMIXARAST/ISBDAGNT>,
        <https://w3id.org/cdisc/cosmos/dss/IS/ARIGEABCMIXARAST/ISCAT>,
        <https://w3id.org/cdisc/cosmos/dss/IS/ARIGEABCMIXARAST/ISDTC>,
        <https://w3id.org/cdisc/cosmos/dss/IS/ARIGEABCMIXARAST/ISMETHOD>,
        <https://w3id.org/cdisc/cosmos/dss/IS/ARIGEABCMIXARAST/ISORRES>,
        <https://w3id.org/cdisc/cosmos/dss/IS/ARIGEABCMIXARAST/ISSCAT>,
        <https://w3id.org/cdisc/cosmos/dss/IS/ARIGEABCMIXARAST/ISSPEC>,
        <https://w3id.org/cdisc/cosmos/dss/IS/ARIGEABCMIXARAST/ISSTRESC>,
        <https://w3id.org/cdisc/cosmos/dss/IS/ARIGEABCMIXARAST/ISSTRESN>,
        <https://w3id.org/cdisc/cosmos/dss/IS/ARIGEABCMIXARAST/ISTEST>,
        <https://w3id.org/cdisc/cosmos/dss/IS/ARIGEABCMIXARAST/ISTESTCD>,
        <https://w3id.org/cdisc/cosmos/dss/IS/ARIGEABCMIXARAST/ISTSTDTL> .

<https://w3id.org/cdisc/cosmos/dss/IS/ARIGEABCMMAST7> a cosmos_sdtm:SDTMGroup ;
    dcterms:identifier "ARIGEABCMMAST7" ;
    rdf:_1 <https://w3id.org/cdisc/cosmos/dss/IS/ARIGEABCMMAST7/ISTESTCD> ;
    rdf:_10 <https://w3id.org/cdisc/cosmos/dss/IS/ARIGEABCMMAST7/ISSPEC> ;
    rdf:_11 <https://w3id.org/cdisc/cosmos/dss/IS/ARIGEABCMMAST7/ISMETHOD> ;
    rdf:_12 <https://w3id.org/cdisc/cosmos/dss/IS/ARIGEABCMMAST7/ISDTC> ;
    rdf:_2 <https://w3id.org/cdisc/cosmos/dss/IS/ARIGEABCMMAST7/ISTEST> ;
    rdf:_3 <https://w3id.org/cdisc/cosmos/dss/IS/ARIGEABCMMAST7/ISBDAGNT> ;
    rdf:_4 <https://w3id.org/cdisc/cosmos/dss/IS/ARIGEABCMMAST7/ISTSTDTL> ;
    rdf:_5 <https://w3id.org/cdisc/cosmos/dss/IS/ARIGEABCMMAST7/ISCAT> ;
    rdf:_6 <https://w3id.org/cdisc/cosmos/dss/IS/ARIGEABCMMAST7/ISSCAT> ;
    rdf:_7 <https://w3id.org/cdisc/cosmos/dss/IS/ARIGEABCMMAST7/ISORRES> ;
    rdf:_8 <https://w3id.org/cdisc/cosmos/dss/IS/ARIGEABCMMAST7/ISSTRESC> ;
    rdf:_9 <https://w3id.org/cdisc/cosmos/dss/IS/ARIGEABCMMAST7/ISSTRESN> ;
    cosmos_sdtm:biomedicalConceptId NCIT:C181398 ;
    cosmos_sdtm:domain "IS" ;
    cosmos_sdtm:packageDate "2026-07-14"^^xsd:date ;
    cosmos_sdtm:packageType <https://www.cdisc.org/cosmos/sdtm_v1.0/PackageTypeEnum#sdtm> ;
    cosmos_sdtm:sdtmigStartVersion "3-4" ;
    cosmos_sdtm:shortName "Allergen-induced IgE Antibody for Chicken Meat Antigen Mast 7-Class" ;
    cosmos_sdtm:source "IS.ISTESTCD" ;
    cosmos_sdtm:variables <https://w3id.org/cdisc/cosmos/dss/IS/ARIGEABCMMAST7/ISBDAGNT>,
        <https://w3id.org/cdisc/cosmos/dss/IS/ARIGEABCMMAST7/ISCAT>,
        <https://w3id.org/cdisc/cosmos/dss/IS/ARIGEABCMMAST7/ISDTC>,
        <https://w3id.org/cdisc/cosmos/dss/IS/ARIGEABCMMAST7/ISMETHOD>,
        <https://w3id.org/cdisc/cosmos/dss/IS/ARIGEABCMMAST7/ISORRES>,
        <https://w3id.org/cdisc/cosmos/dss/IS/ARIGEABCMMAST7/ISSCAT>,
        <https://w3id.org/cdisc/cosmos/dss/IS/ARIGEABCMMAST7/ISSPEC>,
        <https://w3id.org/cdisc/cosmos/dss/IS/ARIGEABCMMAST7/ISSTRESC>,
        <https://w3id.org/cdisc/cosmos/dss/IS/ARIGEABCMMAST7/ISSTRESN>,
        <https://w3id.org/cdisc/cosmos/dss/IS/ARIGEABCMMAST7/ISTEST>,
        <https://w3id.org/cdisc/cosmos/dss/IS/ARIGEABCMMAST7/ISTESTCD>,
        <https://w3id.org/cdisc/cosmos/dss/IS/ARIGEABCMMAST7/ISTSTDTL> .

<https://w3id.org/cdisc/cosmos/dss/IS/ARIGEABCNA> a cosmos_sdtm:SDTMGroup ;
    dcterms:identifier "ARIGEABCNA" ;
    rdf:_1 <https://w3id.org/cdisc/cosmos/dss/IS/ARIGEABCNA/ISTESTCD> ;
    rdf:_10 <https://w3id.org/cdisc/cosmos/dss/IS/ARIGEABCNA/ISSTRESU> ;
    rdf:_11 <https://w3id.org/cdisc/cosmos/dss/IS/ARIGEABCNA/ISSPEC> ;
    rdf:_12 <https://w3id.org/cdisc/cosmos/dss/IS/ARIGEABCNA/ISMETHOD> ;
    rdf:_13 <https://w3id.org/cdisc/cosmos/dss/IS/ARIGEABCNA/ISDTC> ;
    rdf:_2 <https://w3id.org/cdisc/cosmos/dss/IS/ARIGEABCNA/ISTEST> ;
    rdf:_3 <https://w3id.org/cdisc/cosmos/dss/IS/ARIGEABCNA/ISBDAGNT> ;
    rdf:_4 <https://w3id.org/cdisc/cosmos/dss/IS/ARIGEABCNA/ISCAT> ;
    rdf:_5 <https://w3id.org/cdisc/cosmos/dss/IS/ARIGEABCNA/ISSCAT> ;
    rdf:_6 <https://w3id.org/cdisc/cosmos/dss/IS/ARIGEABCNA/ISORRES> ;
    rdf:_7 <https://w3id.org/cdisc/cosmos/dss/IS/ARIGEABCNA/ISORRESU> ;
    rdf:_8 <https://w3id.org/cdisc/cosmos/dss/IS/ARIGEABCNA/ISSTRESC> ;
    rdf:_9 <https://w3id.org/cdisc/cosmos/dss/IS/ARIGEABCNA/ISSTRESN> ;
    cosmos_sdtm:biomedicalConceptId NCIT:C181398 ;
    cosmos_sdtm:domain "IS" ;
    cosmos_sdtm:packageDate "2026-05-26"^^xsd:date ;
    cosmos_sdtm:packageType <https://www.cdisc.org/cosmos/sdtm_v1.0/PackageTypeEnum#sdtm> ;
    cosmos_sdtm:sdtmigStartVersion "3-4" ;
    cosmos_sdtm:shortName "Allergen-induced IgE Antibody for Cashew Nut Antigen" ;
    cosmos_sdtm:source "IS.ISTESTCD" ;
    cosmos_sdtm:variables <https://w3id.org/cdisc/cosmos/dss/IS/ARIGEABCNA/ISBDAGNT>,
        <https://w3id.org/cdisc/cosmos/dss/IS/ARIGEABCNA/ISCAT>,
        <https://w3id.org/cdisc/cosmos/dss/IS/ARIGEABCNA/ISDTC>,
        <https://w3id.org/cdisc/cosmos/dss/IS/ARIGEABCNA/ISMETHOD>,
        <https://w3id.org/cdisc/cosmos/dss/IS/ARIGEABCNA/ISORRES>,
        <https://w3id.org/cdisc/cosmos/dss/IS/ARIGEABCNA/ISORRESU>,
        <https://w3id.org/cdisc/cosmos/dss/IS/ARIGEABCNA/ISSCAT>,
        <https://w3id.org/cdisc/cosmos/dss/IS/ARIGEABCNA/ISSPEC>,
        <https://w3id.org/cdisc/cosmos/dss/IS/ARIGEABCNA/ISSTRESC>,
        <https://w3id.org/cdisc/cosmos/dss/IS/ARIGEABCNA/ISSTRESN>,
        <https://w3id.org/cdisc/cosmos/dss/IS/ARIGEABCNA/ISSTRESU>,
        <https://w3id.org/cdisc/cosmos/dss/IS/ARIGEABCNA/ISTEST>,
        <https://w3id.org/cdisc/cosmos/dss/IS/ARIGEABCNA/ISTESTCD> .

<https://w3id.org/cdisc/cosmos/dss/IS/ARIGEABCNARAST> a cosmos_sdtm:SDTMGroup ;
    dcterms:identifier "ARIGEABCNARAST" ;
    rdf:_1 <https://w3id.org/cdisc/cosmos/dss/IS/ARIGEABCNARAST/ISTESTCD> ;
    rdf:_10 <https://w3id.org/cdisc/cosmos/dss/IS/ARIGEABCNARAST/ISSPEC> ;
    rdf:_11 <https://w3id.org/cdisc/cosmos/dss/IS/ARIGEABCNARAST/ISMETHOD> ;
    rdf:_12 <https://w3id.org/cdisc/cosmos/dss/IS/ARIGEABCNARAST/ISDTC> ;
    rdf:_2 <https://w3id.org/cdisc/cosmos/dss/IS/ARIGEABCNARAST/ISTEST> ;
    rdf:_3 <https://w3id.org/cdisc/cosmos/dss/IS/ARIGEABCNARAST/ISBDAGNT> ;
    rdf:_4 <https://w3id.org/cdisc/cosmos/dss/IS/ARIGEABCNARAST/ISTSTDTL> ;
    rdf:_5 <https://w3id.org/cdisc/cosmos/dss/IS/ARIGEABCNARAST/ISCAT> ;
    rdf:_6 <https://w3id.org/cdisc/cosmos/dss/IS/ARIGEABCNARAST/ISSCAT> ;
    rdf:_7 <https://w3id.org/cdisc/cosmos/dss/IS/ARIGEABCNARAST/ISORRES> ;
    rdf:_8 <https://w3id.org/cdisc/cosmos/dss/IS/ARIGEABCNARAST/ISSTRESC> ;
    rdf:_9 <https://w3id.org/cdisc/cosmos/dss/IS/ARIGEABCNARAST/ISSTRESN> ;
    cosmos_sdtm:biomedicalConceptId NCIT:C181398 ;
    cosmos_sdtm:domain "IS" ;
    cosmos_sdtm:packageDate "2026-05-26"^^xsd:date ;
    cosmos_sdtm:packageType <https://www.cdisc.org/cosmos/sdtm_v1.0/PackageTypeEnum#sdtm> ;
    cosmos_sdtm:sdtmigStartVersion "3-4" ;
    cosmos_sdtm:shortName "Allergen-induced IgE Antibody for Cashew Nut Antigen Rast Score" ;
    cosmos_sdtm:source "IS.ISTESTCD" ;
    cosmos_sdtm:variables <https://w3id.org/cdisc/cosmos/dss/IS/ARIGEABCNARAST/ISBDAGNT>,
        <https://w3id.org/cdisc/cosmos/dss/IS/ARIGEABCNARAST/ISCAT>,
        <https://w3id.org/cdisc/cosmos/dss/IS/ARIGEABCNARAST/ISDTC>,
        <https://w3id.org/cdisc/cosmos/dss/IS/ARIGEABCNARAST/ISMETHOD>,
        <https://w3id.org/cdisc/cosmos/dss/IS/ARIGEABCNARAST/ISORRES>,
        <https://w3id.org/cdisc/cosmos/dss/IS/ARIGEABCNARAST/ISSCAT>,
        <https://w3id.org/cdisc/cosmos/dss/IS/ARIGEABCNARAST/ISSPEC>,
        <https://w3id.org/cdisc/cosmos/dss/IS/ARIGEABCNARAST/ISSTRESC>,
        <https://w3id.org/cdisc/cosmos/dss/IS/ARIGEABCNARAST/ISSTRESN>,
        <https://w3id.org/cdisc/cosmos/dss/IS/ARIGEABCNARAST/ISTEST>,
        <https://w3id.org/cdisc/cosmos/dss/IS/ARIGEABCNARAST/ISTESTCD>,
        <https://w3id.org/cdisc/cosmos/dss/IS/ARIGEABCNARAST/ISTSTDTL> .

<https://w3id.org/cdisc/cosmos/dss/IS/ARIGEABCPMAST7> a cosmos_sdtm:SDTMGroup ;
    dcterms:identifier "ARIGEABCPMAST7" ;
    rdf:_1 <https://w3id.org/cdisc/cosmos/dss/IS/ARIGEABCPMAST7/ISTESTCD> ;
    rdf:_10 <https://w3id.org/cdisc/cosmos/dss/IS/ARIGEABCPMAST7/ISSPEC> ;
    rdf:_11 <https://w3id.org/cdisc/cosmos/dss/IS/ARIGEABCPMAST7/ISMETHOD> ;
    rdf:_12 <https://w3id.org/cdisc/cosmos/dss/IS/ARIGEABCPMAST7/ISDTC> ;
    rdf:_2 <https://w3id.org/cdisc/cosmos/dss/IS/ARIGEABCPMAST7/ISTEST> ;
    rdf:_3 <https://w3id.org/cdisc/cosmos/dss/IS/ARIGEABCPMAST7/ISBDAGNT> ;
    rdf:_4 <https://w3id.org/cdisc/cosmos/dss/IS/ARIGEABCPMAST7/ISTSTDTL> ;
    rdf:_5 <https://w3id.org/cdisc/cosmos/dss/IS/ARIGEABCPMAST7/ISCAT> ;
    rdf:_6 <https://w3id.org/cdisc/cosmos/dss/IS/ARIGEABCPMAST7/ISSCAT> ;
    rdf:_7 <https://w3id.org/cdisc/cosmos/dss/IS/ARIGEABCPMAST7/ISORRES> ;
    rdf:_8 <https://w3id.org/cdisc/cosmos/dss/IS/ARIGEABCPMAST7/ISSTRESC> ;
    rdf:_9 <https://w3id.org/cdisc/cosmos/dss/IS/ARIGEABCPMAST7/ISSTRESN> ;
    cosmos_sdtm:biomedicalConceptId NCIT:C181398 ;
    cosmos_sdtm:domain "IS" ;
    cosmos_sdtm:packageDate "2026-07-14"^^xsd:date ;
    cosmos_sdtm:packageType <https://www.cdisc.org/cosmos/sdtm_v1.0/PackageTypeEnum#sdtm> ;
    cosmos_sdtm:sdtmigStartVersion "3-4" ;
    cosmos_sdtm:shortName "Allergen-induced IgE Antibody for Cancer Pagurus Antigen Mast 7-Class" ;
    cosmos_sdtm:source "IS.ISTESTCD" ;
    cosmos_sdtm:variables <https://w3id.org/cdisc/cosmos/dss/IS/ARIGEABCPMAST7/ISBDAGNT>,
        <https://w3id.org/cdisc/cosmos/dss/IS/ARIGEABCPMAST7/ISCAT>,
        <https://w3id.org/cdisc/cosmos/dss/IS/ARIGEABCPMAST7/ISDTC>,
        <https://w3id.org/cdisc/cosmos/dss/IS/ARIGEABCPMAST7/ISMETHOD>,
        <https://w3id.org/cdisc/cosmos/dss/IS/ARIGEABCPMAST7/ISORRES>,
        <https://w3id.org/cdisc/cosmos/dss/IS/ARIGEABCPMAST7/ISSCAT>,
        <https://w3id.org/cdisc/cosmos/dss/IS/ARIGEABCPMAST7/ISSPEC>,
        <https://w3id.org/cdisc/cosmos/dss/IS/ARIGEABCPMAST7/ISSTRESC>,
        <https://w3id.org/cdisc/cosmos/dss/IS/ARIGEABCPMAST7/ISSTRESN>,
        <https://w3id.org/cdisc/cosmos/dss/IS/ARIGEABCPMAST7/ISTEST>,
        <https://w3id.org/cdisc/cosmos/dss/IS/ARIGEABCPMAST7/ISTESTCD>,
        <https://w3id.org/cdisc/cosmos/dss/IS/ARIGEABCPMAST7/ISTSTDTL> .

<https://w3id.org/cdisc/cosmos/dss/IS/ARIGEABCRP> a cosmos_sdtm:SDTMGroup ;
    dcterms:identifier "ARIGEABCRP" ;
    rdf:_1 <https://w3id.org/cdisc/cosmos/dss/IS/ARIGEABCRP/ISTESTCD> ;
    rdf:_10 <https://w3id.org/cdisc/cosmos/dss/IS/ARIGEABCRP/ISSTRESU> ;
    rdf:_11 <https://w3id.org/cdisc/cosmos/dss/IS/ARIGEABCRP/ISSPEC> ;
    rdf:_12 <https://w3id.org/cdisc/cosmos/dss/IS/ARIGEABCRP/ISMETHOD> ;
    rdf:_13 <https://w3id.org/cdisc/cosmos/dss/IS/ARIGEABCRP/ISDTC> ;
    rdf:_2 <https://w3id.org/cdisc/cosmos/dss/IS/ARIGEABCRP/ISTEST> ;
    rdf:_3 <https://w3id.org/cdisc/cosmos/dss/IS/ARIGEABCRP/ISBDAGNT> ;
    rdf:_4 <https://w3id.org/cdisc/cosmos/dss/IS/ARIGEABCRP/ISCAT> ;
    rdf:_5 <https://w3id.org/cdisc/cosmos/dss/IS/ARIGEABCRP/ISSCAT> ;
    rdf:_6 <https://w3id.org/cdisc/cosmos/dss/IS/ARIGEABCRP/ISORRES> ;
    rdf:_7 <https://w3id.org/cdisc/cosmos/dss/IS/ARIGEABCRP/ISORRESU> ;
    rdf:_8 <https://w3id.org/cdisc/cosmos/dss/IS/ARIGEABCRP/ISSTRESC> ;
    rdf:_9 <https://w3id.org/cdisc/cosmos/dss/IS/ARIGEABCRP/ISSTRESN> ;
    cosmos_sdtm:biomedicalConceptId NCIT:C181398 ;
    cosmos_sdtm:domain "IS" ;
    cosmos_sdtm:packageDate "2026-05-26"^^xsd:date ;
    cosmos_sdtm:packageType <https://www.cdisc.org/cosmos/sdtm_v1.0/PackageTypeEnum#sdtm> ;
    cosmos_sdtm:sdtmigStartVersion "3-4" ;
    cosmos_sdtm:shortName "Allergen-induced IgE Antibody for Common Ragweed Pollen" ;
    cosmos_sdtm:source "IS.ISTESTCD" ;
    cosmos_sdtm:variables <https://w3id.org/cdisc/cosmos/dss/IS/ARIGEABCRP/ISBDAGNT>,
        <https://w3id.org/cdisc/cosmos/dss/IS/ARIGEABCRP/ISCAT>,
        <https://w3id.org/cdisc/cosmos/dss/IS/ARIGEABCRP/ISDTC>,
        <https://w3id.org/cdisc/cosmos/dss/IS/ARIGEABCRP/ISMETHOD>,
        <https://w3id.org/cdisc/cosmos/dss/IS/ARIGEABCRP/ISORRES>,
        <https://w3id.org/cdisc/cosmos/dss/IS/ARIGEABCRP/ISORRESU>,
        <https://w3id.org/cdisc/cosmos/dss/IS/ARIGEABCRP/ISSCAT>,
        <https://w3id.org/cdisc/cosmos/dss/IS/ARIGEABCRP/ISSPEC>,
        <https://w3id.org/cdisc/cosmos/dss/IS/ARIGEABCRP/ISSTRESC>,
        <https://w3id.org/cdisc/cosmos/dss/IS/ARIGEABCRP/ISSTRESN>,
        <https://w3id.org/cdisc/cosmos/dss/IS/ARIGEABCRP/ISSTRESU>,
        <https://w3id.org/cdisc/cosmos/dss/IS/ARIGEABCRP/ISTEST>,
        <https://w3id.org/cdisc/cosmos/dss/IS/ARIGEABCRP/ISTESTCD> .

<https://w3id.org/cdisc/cosmos/dss/IS/ARIGEABCRPRAST> a cosmos_sdtm:SDTMGroup ;
    dcterms:identifier "ARIGEABCRPRAST" ;
    rdf:_1 <https://w3id.org/cdisc/cosmos/dss/IS/ARIGEABCRPRAST/ISTESTCD> ;
    rdf:_10 <https://w3id.org/cdisc/cosmos/dss/IS/ARIGEABCRPRAST/ISSPEC> ;
    rdf:_11 <https://w3id.org/cdisc/cosmos/dss/IS/ARIGEABCRPRAST/ISMETHOD> ;
    rdf:_12 <https://w3id.org/cdisc/cosmos/dss/IS/ARIGEABCRPRAST/ISDTC> ;
    rdf:_2 <https://w3id.org/cdisc/cosmos/dss/IS/ARIGEABCRPRAST/ISTEST> ;
    rdf:_3 <https://w3id.org/cdisc/cosmos/dss/IS/ARIGEABCRPRAST/ISBDAGNT> ;
    rdf:_4 <https://w3id.org/cdisc/cosmos/dss/IS/ARIGEABCRPRAST/ISTSTDTL> ;
    rdf:_5 <https://w3id.org/cdisc/cosmos/dss/IS/ARIGEABCRPRAST/ISCAT> ;
    rdf:_6 <https://w3id.org/cdisc/cosmos/dss/IS/ARIGEABCRPRAST/ISSCAT> ;
    rdf:_7 <https://w3id.org/cdisc/cosmos/dss/IS/ARIGEABCRPRAST/ISORRES> ;
    rdf:_8 <https://w3id.org/cdisc/cosmos/dss/IS/ARIGEABCRPRAST/ISSTRESC> ;
    rdf:_9 <https://w3id.org/cdisc/cosmos/dss/IS/ARIGEABCRPRAST/ISSTRESN> ;
    cosmos_sdtm:biomedicalConceptId NCIT:C181398 ;
    cosmos_sdtm:domain "IS" ;
    cosmos_sdtm:packageDate "2026-05-26"^^xsd:date ;
    cosmos_sdtm:packageType <https://www.cdisc.org/cosmos/sdtm_v1.0/PackageTypeEnum#sdtm> ;
    cosmos_sdtm:sdtmigStartVersion "3-4" ;
    cosmos_sdtm:shortName "Allergen-induced IgE Antibody for Common Ragweed Pollen Rast Score" ;
    cosmos_sdtm:source "IS.ISTESTCD" ;
    cosmos_sdtm:variables <https://w3id.org/cdisc/cosmos/dss/IS/ARIGEABCRPRAST/ISBDAGNT>,
        <https://w3id.org/cdisc/cosmos/dss/IS/ARIGEABCRPRAST/ISCAT>,
        <https://w3id.org/cdisc/cosmos/dss/IS/ARIGEABCRPRAST/ISDTC>,
        <https://w3id.org/cdisc/cosmos/dss/IS/ARIGEABCRPRAST/ISMETHOD>,
        <https://w3id.org/cdisc/cosmos/dss/IS/ARIGEABCRPRAST/ISORRES>,
        <https://w3id.org/cdisc/cosmos/dss/IS/ARIGEABCRPRAST/ISSCAT>,
        <https://w3id.org/cdisc/cosmos/dss/IS/ARIGEABCRPRAST/ISSPEC>,
        <https://w3id.org/cdisc/cosmos/dss/IS/ARIGEABCRPRAST/ISSTRESC>,
        <https://w3id.org/cdisc/cosmos/dss/IS/ARIGEABCRPRAST/ISSTRESN>,
        <https://w3id.org/cdisc/cosmos/dss/IS/ARIGEABCRPRAST/ISTEST>,
        <https://w3id.org/cdisc/cosmos/dss/IS/ARIGEABCRPRAST/ISTESTCD>,
        <https://w3id.org/cdisc/cosmos/dss/IS/ARIGEABCRPRAST/ISTSTDTL> .

<https://w3id.org/cdisc/cosmos/dss/IS/ARIGEABDDA> a cosmos_sdtm:SDTMGroup ;
    dcterms:identifier "ARIGEABDDA" ;
    rdf:_1 <https://w3id.org/cdisc/cosmos/dss/IS/ARIGEABDDA/ISTESTCD> ;
    rdf:_10 <https://w3id.org/cdisc/cosmos/dss/IS/ARIGEABDDA/ISSTRESU> ;
    rdf:_11 <https://w3id.org/cdisc/cosmos/dss/IS/ARIGEABDDA/ISSPEC> ;
    rdf:_12 <https://w3id.org/cdisc/cosmos/dss/IS/ARIGEABDDA/ISMETHOD> ;
    rdf:_13 <https://w3id.org/cdisc/cosmos/dss/IS/ARIGEABDDA/ISDTC> ;
    rdf:_2 <https://w3id.org/cdisc/cosmos/dss/IS/ARIGEABDDA/ISTEST> ;
    rdf:_3 <https://w3id.org/cdisc/cosmos/dss/IS/ARIGEABDDA/ISBDAGNT> ;
    rdf:_4 <https://w3id.org/cdisc/cosmos/dss/IS/ARIGEABDDA/ISCAT> ;
    rdf:_5 <https://w3id.org/cdisc/cosmos/dss/IS/ARIGEABDDA/ISSCAT> ;
    rdf:_6 <https://w3id.org/cdisc/cosmos/dss/IS/ARIGEABDDA/ISORRES> ;
    rdf:_7 <https://w3id.org/cdisc/cosmos/dss/IS/ARIGEABDDA/ISORRESU> ;
    rdf:_8 <https://w3id.org/cdisc/cosmos/dss/IS/ARIGEABDDA/ISSTRESC> ;
    rdf:_9 <https://w3id.org/cdisc/cosmos/dss/IS/ARIGEABDDA/ISSTRESN> ;
    cosmos_sdtm:biomedicalConceptId NCIT:C181398 ;
    cosmos_sdtm:domain "IS" ;
    cosmos_sdtm:packageDate "2026-05-26"^^xsd:date ;
    cosmos_sdtm:packageType <https://www.cdisc.org/cosmos/sdtm_v1.0/PackageTypeEnum#sdtm> ;
    cosmos_sdtm:sdtmigStartVersion "3-4" ;
    cosmos_sdtm:shortName "Allergen-induced IgE Antibody for Dog DanderAntigen" ;
    cosmos_sdtm:source "IS.ISTESTCD" ;
    cosmos_sdtm:variables <https://w3id.org/cdisc/cosmos/dss/IS/ARIGEABDDA/ISBDAGNT>,
        <https://w3id.org/cdisc/cosmos/dss/IS/ARIGEABDDA/ISCAT>,
        <https://w3id.org/cdisc/cosmos/dss/IS/ARIGEABDDA/ISDTC>,
        <https://w3id.org/cdisc/cosmos/dss/IS/ARIGEABDDA/ISMETHOD>,
        <https://w3id.org/cdisc/cosmos/dss/IS/ARIGEABDDA/ISORRES>,
        <https://w3id.org/cdisc/cosmos/dss/IS/ARIGEABDDA/ISORRESU>,
        <https://w3id.org/cdisc/cosmos/dss/IS/ARIGEABDDA/ISSCAT>,
        <https://w3id.org/cdisc/cosmos/dss/IS/ARIGEABDDA/ISSPEC>,
        <https://w3id.org/cdisc/cosmos/dss/IS/ARIGEABDDA/ISSTRESC>,
        <https://w3id.org/cdisc/cosmos/dss/IS/ARIGEABDDA/ISSTRESN>,
        <https://w3id.org/cdisc/cosmos/dss/IS/ARIGEABDDA/ISSTRESU>,
        <https://w3id.org/cdisc/cosmos/dss/IS/ARIGEABDDA/ISTEST>,
        <https://w3id.org/cdisc/cosmos/dss/IS/ARIGEABDDA/ISTESTCD> .

<https://w3id.org/cdisc/cosmos/dss/IS/ARIGEABDDARAST> a cosmos_sdtm:SDTMGroup ;
    dcterms:identifier "ARIGEABDDARAST" ;
    rdf:_1 <https://w3id.org/cdisc/cosmos/dss/IS/ARIGEABDDARAST/ISTESTCD> ;
    rdf:_10 <https://w3id.org/cdisc/cosmos/dss/IS/ARIGEABDDARAST/ISSPEC> ;
    rdf:_11 <https://w3id.org/cdisc/cosmos/dss/IS/ARIGEABDDARAST/ISMETHOD> ;
    rdf:_12 <https://w3id.org/cdisc/cosmos/dss/IS/ARIGEABDDARAST/ISDTC> ;
    rdf:_2 <https://w3id.org/cdisc/cosmos/dss/IS/ARIGEABDDARAST/ISTEST> ;
    rdf:_3 <https://w3id.org/cdisc/cosmos/dss/IS/ARIGEABDDARAST/ISBDAGNT> ;
    rdf:_4 <https://w3id.org/cdisc/cosmos/dss/IS/ARIGEABDDARAST/ISTSTDTL> ;
    rdf:_5 <https://w3id.org/cdisc/cosmos/dss/IS/ARIGEABDDARAST/ISCAT> ;
    rdf:_6 <https://w3id.org/cdisc/cosmos/dss/IS/ARIGEABDDARAST/ISSCAT> ;
    rdf:_7 <https://w3id.org/cdisc/cosmos/dss/IS/ARIGEABDDARAST/ISORRES> ;
    rdf:_8 <https://w3id.org/cdisc/cosmos/dss/IS/ARIGEABDDARAST/ISSTRESC> ;
    rdf:_9 <https://w3id.org/cdisc/cosmos/dss/IS/ARIGEABDDARAST/ISSTRESN> ;
    cosmos_sdtm:biomedicalConceptId NCIT:C181398 ;
    cosmos_sdtm:domain "IS" ;
    cosmos_sdtm:packageDate "2026-05-26"^^xsd:date ;
    cosmos_sdtm:packageType <https://www.cdisc.org/cosmos/sdtm_v1.0/PackageTypeEnum#sdtm> ;
    cosmos_sdtm:sdtmigStartVersion "3-4" ;
    cosmos_sdtm:shortName "Allergen-induced IgE Antibody for Dog DanderAntigen Rast Score" ;
    cosmos_sdtm:source "IS.ISTESTCD" ;
    cosmos_sdtm:variables <https://w3id.org/cdisc/cosmos/dss/IS/ARIGEABDDARAST/ISBDAGNT>,
        <https://w3id.org/cdisc/cosmos/dss/IS/ARIGEABDDARAST/ISCAT>,
        <https://w3id.org/cdisc/cosmos/dss/IS/ARIGEABDDARAST/ISDTC>,
        <https://w3id.org/cdisc/cosmos/dss/IS/ARIGEABDDARAST/ISMETHOD>,
        <https://w3id.org/cdisc/cosmos/dss/IS/ARIGEABDDARAST/ISORRES>,
        <https://w3id.org/cdisc/cosmos/dss/IS/ARIGEABDDARAST/ISSCAT>,
        <https://w3id.org/cdisc/cosmos/dss/IS/ARIGEABDDARAST/ISSPEC>,
        <https://w3id.org/cdisc/cosmos/dss/IS/ARIGEABDDARAST/ISSTRESC>,
        <https://w3id.org/cdisc/cosmos/dss/IS/ARIGEABDDARAST/ISSTRESN>,
        <https://w3id.org/cdisc/cosmos/dss/IS/ARIGEABDDARAST/ISTEST>,
        <https://w3id.org/cdisc/cosmos/dss/IS/ARIGEABDDARAST/ISTESTCD>,
        <https://w3id.org/cdisc/cosmos/dss/IS/ARIGEABDDARAST/ISTSTDTL> .

<https://w3id.org/cdisc/cosmos/dss/IS/ARIGEABDDMAST7> a cosmos_sdtm:SDTMGroup ;
    dcterms:identifier "ARIGEABDDMAST7" ;
    rdf:_1 <https://w3id.org/cdisc/cosmos/dss/IS/ARIGEABDDMAST7/ISTESTCD> ;
    rdf:_10 <https://w3id.org/cdisc/cosmos/dss/IS/ARIGEABDDMAST7/ISSPEC> ;
    rdf:_11 <https://w3id.org/cdisc/cosmos/dss/IS/ARIGEABDDMAST7/ISMETHOD> ;
    rdf:_12 <https://w3id.org/cdisc/cosmos/dss/IS/ARIGEABDDMAST7/ISDTC> ;
    rdf:_2 <https://w3id.org/cdisc/cosmos/dss/IS/ARIGEABDDMAST7/ISTEST> ;
    rdf:_3 <https://w3id.org/cdisc/cosmos/dss/IS/ARIGEABDDMAST7/ISBDAGNT> ;
    rdf:_4 <https://w3id.org/cdisc/cosmos/dss/IS/ARIGEABDDMAST7/ISTSTDTL> ;
    rdf:_5 <https://w3id.org/cdisc/cosmos/dss/IS/ARIGEABDDMAST7/ISCAT> ;
    rdf:_6 <https://w3id.org/cdisc/cosmos/dss/IS/ARIGEABDDMAST7/ISSCAT> ;
    rdf:_7 <https://w3id.org/cdisc/cosmos/dss/IS/ARIGEABDDMAST7/ISORRES> ;
    rdf:_8 <https://w3id.org/cdisc/cosmos/dss/IS/ARIGEABDDMAST7/ISSTRESC> ;
    rdf:_9 <https://w3id.org/cdisc/cosmos/dss/IS/ARIGEABDDMAST7/ISSTRESN> ;
    cosmos_sdtm:biomedicalConceptId NCIT:C181398 ;
    cosmos_sdtm:domain "IS" ;
    cosmos_sdtm:packageDate "2026-07-14"^^xsd:date ;
    cosmos_sdtm:packageType <https://www.cdisc.org/cosmos/sdtm_v1.0/PackageTypeEnum#sdtm> ;
    cosmos_sdtm:sdtmigStartVersion "3-4" ;
    cosmos_sdtm:shortName "Allergen-induced IgE Antibody for Dog Dander Antigen Mast 7-Class" ;
    cosmos_sdtm:source "IS.ISTESTCD" ;
    cosmos_sdtm:variables <https://w3id.org/cdisc/cosmos/dss/IS/ARIGEABDDMAST7/ISBDAGNT>,
        <https://w3id.org/cdisc/cosmos/dss/IS/ARIGEABDDMAST7/ISCAT>,
        <https://w3id.org/cdisc/cosmos/dss/IS/ARIGEABDDMAST7/ISDTC>,
        <https://w3id.org/cdisc/cosmos/dss/IS/ARIGEABDDMAST7/ISMETHOD>,
        <https://w3id.org/cdisc/cosmos/dss/IS/ARIGEABDDMAST7/ISORRES>,
        <https://w3id.org/cdisc/cosmos/dss/IS/ARIGEABDDMAST7/ISSCAT>,
        <https://w3id.org/cdisc/cosmos/dss/IS/ARIGEABDDMAST7/ISSPEC>,
        <https://w3id.org/cdisc/cosmos/dss/IS/ARIGEABDDMAST7/ISSTRESC>,
        <https://w3id.org/cdisc/cosmos/dss/IS/ARIGEABDDMAST7/ISSTRESN>,
        <https://w3id.org/cdisc/cosmos/dss/IS/ARIGEABDDMAST7/ISTEST>,
        <https://w3id.org/cdisc/cosmos/dss/IS/ARIGEABDDMAST7/ISTESTCD>,
        <https://w3id.org/cdisc/cosmos/dss/IS/ARIGEABDDMAST7/ISTSTDTL> .

<https://w3id.org/cdisc/cosmos/dss/IS/ARIGEABEHDMA> a cosmos_sdtm:SDTMGroup ;
    dcterms:identifier "ARIGEABEHDMA" ;
    rdf:_1 <https://w3id.org/cdisc/cosmos/dss/IS/ARIGEABEHDMA/ISTESTCD> ;
    rdf:_10 <https://w3id.org/cdisc/cosmos/dss/IS/ARIGEABEHDMA/ISSTRESU> ;
    rdf:_11 <https://w3id.org/cdisc/cosmos/dss/IS/ARIGEABEHDMA/ISSPEC> ;
    rdf:_12 <https://w3id.org/cdisc/cosmos/dss/IS/ARIGEABEHDMA/ISMETHOD> ;
    rdf:_13 <https://w3id.org/cdisc/cosmos/dss/IS/ARIGEABEHDMA/ISDTC> ;
    rdf:_2 <https://w3id.org/cdisc/cosmos/dss/IS/ARIGEABEHDMA/ISTEST> ;
    rdf:_3 <https://w3id.org/cdisc/cosmos/dss/IS/ARIGEABEHDMA/ISBDAGNT> ;
    rdf:_4 <https://w3id.org/cdisc/cosmos/dss/IS/ARIGEABEHDMA/ISCAT> ;
    rdf:_5 <https://w3id.org/cdisc/cosmos/dss/IS/ARIGEABEHDMA/ISSCAT> ;
    rdf:_6 <https://w3id.org/cdisc/cosmos/dss/IS/ARIGEABEHDMA/ISORRES> ;
    rdf:_7 <https://w3id.org/cdisc/cosmos/dss/IS/ARIGEABEHDMA/ISORRESU> ;
    rdf:_8 <https://w3id.org/cdisc/cosmos/dss/IS/ARIGEABEHDMA/ISSTRESC> ;
    rdf:_9 <https://w3id.org/cdisc/cosmos/dss/IS/ARIGEABEHDMA/ISSTRESN> ;
    cosmos_sdtm:biomedicalConceptId NCIT:C181398 ;
    cosmos_sdtm:domain "IS" ;
    cosmos_sdtm:packageDate "2026-05-26"^^xsd:date ;
    cosmos_sdtm:packageType <https://www.cdisc.org/cosmos/sdtm_v1.0/PackageTypeEnum#sdtm> ;
    cosmos_sdtm:sdtmigStartVersion "3-4" ;
    cosmos_sdtm:shortName "Allergen-induced IgE Antibody for European House Dust Mite Antigen" ;
    cosmos_sdtm:source "IS.ISTESTCD" ;
    cosmos_sdtm:variables <https://w3id.org/cdisc/cosmos/dss/IS/ARIGEABEHDMA/ISBDAGNT>,
        <https://w3id.org/cdisc/cosmos/dss/IS/ARIGEABEHDMA/ISCAT>,
        <https://w3id.org/cdisc/cosmos/dss/IS/ARIGEABEHDMA/ISDTC>,
        <https://w3id.org/cdisc/cosmos/dss/IS/ARIGEABEHDMA/ISMETHOD>,
        <https://w3id.org/cdisc/cosmos/dss/IS/ARIGEABEHDMA/ISORRES>,
        <https://w3id.org/cdisc/cosmos/dss/IS/ARIGEABEHDMA/ISORRESU>,
        <https://w3id.org/cdisc/cosmos/dss/IS/ARIGEABEHDMA/ISSCAT>,
        <https://w3id.org/cdisc/cosmos/dss/IS/ARIGEABEHDMA/ISSPEC>,
        <https://w3id.org/cdisc/cosmos/dss/IS/ARIGEABEHDMA/ISSTRESC>,
        <https://w3id.org/cdisc/cosmos/dss/IS/ARIGEABEHDMA/ISSTRESN>,
        <https://w3id.org/cdisc/cosmos/dss/IS/ARIGEABEHDMA/ISSTRESU>,
        <https://w3id.org/cdisc/cosmos/dss/IS/ARIGEABEHDMA/ISTEST>,
        <https://w3id.org/cdisc/cosmos/dss/IS/ARIGEABEHDMA/ISTESTCD> .

<https://w3id.org/cdisc/cosmos/dss/IS/ARIGEABEHDMARAST> a cosmos_sdtm:SDTMGroup ;
    dcterms:identifier "ARIGEABEHDMARAST" ;
    rdf:_1 <https://w3id.org/cdisc/cosmos/dss/IS/ARIGEABEHDMARAST/ISTESTCD> ;
    rdf:_10 <https://w3id.org/cdisc/cosmos/dss/IS/ARIGEABEHDMARAST/ISSPEC> ;
    rdf:_11 <https://w3id.org/cdisc/cosmos/dss/IS/ARIGEABEHDMARAST/ISMETHOD> ;
    rdf:_12 <https://w3id.org/cdisc/cosmos/dss/IS/ARIGEABEHDMARAST/ISDTC> ;
    rdf:_2 <https://w3id.org/cdisc/cosmos/dss/IS/ARIGEABEHDMARAST/ISTEST> ;
    rdf:_3 <https://w3id.org/cdisc/cosmos/dss/IS/ARIGEABEHDMARAST/ISBDAGNT> ;
    rdf:_4 <https://w3id.org/cdisc/cosmos/dss/IS/ARIGEABEHDMARAST/ISTSTDTL> ;
    rdf:_5 <https://w3id.org/cdisc/cosmos/dss/IS/ARIGEABEHDMARAST/ISCAT> ;
    rdf:_6 <https://w3id.org/cdisc/cosmos/dss/IS/ARIGEABEHDMARAST/ISSCAT> ;
    rdf:_7 <https://w3id.org/cdisc/cosmos/dss/IS/ARIGEABEHDMARAST/ISORRES> ;
    rdf:_8 <https://w3id.org/cdisc/cosmos/dss/IS/ARIGEABEHDMARAST/ISSTRESC> ;
    rdf:_9 <https://w3id.org/cdisc/cosmos/dss/IS/ARIGEABEHDMARAST/ISSTRESN> ;
    cosmos_sdtm:biomedicalConceptId NCIT:C181398 ;
    cosmos_sdtm:domain "IS" ;
    cosmos_sdtm:packageDate "2026-05-26"^^xsd:date ;
    cosmos_sdtm:packageType <https://www.cdisc.org/cosmos/sdtm_v1.0/PackageTypeEnum#sdtm> ;
    cosmos_sdtm:sdtmigStartVersion "3-4" ;
    cosmos_sdtm:shortName "Allergen-induced IgE Antibody for European House Dust Mite Antigen Rast Score" ;
    cosmos_sdtm:source "IS.ISTESTCD" ;
    cosmos_sdtm:variables <https://w3id.org/cdisc/cosmos/dss/IS/ARIGEABEHDMARAST/ISBDAGNT>,
        <https://w3id.org/cdisc/cosmos/dss/IS/ARIGEABEHDMARAST/ISCAT>,
        <https://w3id.org/cdisc/cosmos/dss/IS/ARIGEABEHDMARAST/ISDTC>,
        <https://w3id.org/cdisc/cosmos/dss/IS/ARIGEABEHDMARAST/ISMETHOD>,
        <https://w3id.org/cdisc/cosmos/dss/IS/ARIGEABEHDMARAST/ISORRES>,
        <https://w3id.org/cdisc/cosmos/dss/IS/ARIGEABEHDMARAST/ISSCAT>,
        <https://w3id.org/cdisc/cosmos/dss/IS/ARIGEABEHDMARAST/ISSPEC>,
        <https://w3id.org/cdisc/cosmos/dss/IS/ARIGEABEHDMARAST/ISSTRESC>,
        <https://w3id.org/cdisc/cosmos/dss/IS/ARIGEABEHDMARAST/ISSTRESN>,
        <https://w3id.org/cdisc/cosmos/dss/IS/ARIGEABEHDMARAST/ISTEST>,
        <https://w3id.org/cdisc/cosmos/dss/IS/ARIGEABEHDMARAST/ISTESTCD>,
        <https://w3id.org/cdisc/cosmos/dss/IS/ARIGEABEHDMARAST/ISTSTDTL> .

<https://w3id.org/cdisc/cosmos/dss/IS/ARIGEABEPP> a cosmos_sdtm:SDTMGroup ;
    dcterms:identifier "ARIGEABEPP" ;
    rdf:_1 <https://w3id.org/cdisc/cosmos/dss/IS/ARIGEABEPP/ISTESTCD> ;
    rdf:_10 <https://w3id.org/cdisc/cosmos/dss/IS/ARIGEABEPP/ISSTRESU> ;
    rdf:_11 <https://w3id.org/cdisc/cosmos/dss/IS/ARIGEABEPP/ISSPEC> ;
    rdf:_12 <https://w3id.org/cdisc/cosmos/dss/IS/ARIGEABEPP/ISMETHOD> ;
    rdf:_13 <https://w3id.org/cdisc/cosmos/dss/IS/ARIGEABEPP/ISDTC> ;
    rdf:_2 <https://w3id.org/cdisc/cosmos/dss/IS/ARIGEABEPP/ISTEST> ;
    rdf:_3 <https://w3id.org/cdisc/cosmos/dss/IS/ARIGEABEPP/ISBDAGNT> ;
    rdf:_4 <https://w3id.org/cdisc/cosmos/dss/IS/ARIGEABEPP/ISCAT> ;
    rdf:_5 <https://w3id.org/cdisc/cosmos/dss/IS/ARIGEABEPP/ISSCAT> ;
    rdf:_6 <https://w3id.org/cdisc/cosmos/dss/IS/ARIGEABEPP/ISORRES> ;
    rdf:_7 <https://w3id.org/cdisc/cosmos/dss/IS/ARIGEABEPP/ISORRESU> ;
    rdf:_8 <https://w3id.org/cdisc/cosmos/dss/IS/ARIGEABEPP/ISSTRESC> ;
    rdf:_9 <https://w3id.org/cdisc/cosmos/dss/IS/ARIGEABEPP/ISSTRESN> ;
    cosmos_sdtm:biomedicalConceptId NCIT:C181398 ;
    cosmos_sdtm:domain "IS" ;
    cosmos_sdtm:packageDate "2026-05-26"^^xsd:date ;
    cosmos_sdtm:packageType <https://www.cdisc.org/cosmos/sdtm_v1.0/PackageTypeEnum#sdtm> ;
    cosmos_sdtm:sdtmigStartVersion "3-4" ;
    cosmos_sdtm:shortName "Allergen-induced IgE Antibody for English Plantain Pollen" ;
    cosmos_sdtm:source "IS.ISTESTCD" ;
    cosmos_sdtm:variables <https://w3id.org/cdisc/cosmos/dss/IS/ARIGEABEPP/ISBDAGNT>,
        <https://w3id.org/cdisc/cosmos/dss/IS/ARIGEABEPP/ISCAT>,
        <https://w3id.org/cdisc/cosmos/dss/IS/ARIGEABEPP/ISDTC>,
        <https://w3id.org/cdisc/cosmos/dss/IS/ARIGEABEPP/ISMETHOD>,
        <https://w3id.org/cdisc/cosmos/dss/IS/ARIGEABEPP/ISORRES>,
        <https://w3id.org/cdisc/cosmos/dss/IS/ARIGEABEPP/ISORRESU>,
        <https://w3id.org/cdisc/cosmos/dss/IS/ARIGEABEPP/ISSCAT>,
        <https://w3id.org/cdisc/cosmos/dss/IS/ARIGEABEPP/ISSPEC>,
        <https://w3id.org/cdisc/cosmos/dss/IS/ARIGEABEPP/ISSTRESC>,
        <https://w3id.org/cdisc/cosmos/dss/IS/ARIGEABEPP/ISSTRESN>,
        <https://w3id.org/cdisc/cosmos/dss/IS/ARIGEABEPP/ISSTRESU>,
        <https://w3id.org/cdisc/cosmos/dss/IS/ARIGEABEPP/ISTEST>,
        <https://w3id.org/cdisc/cosmos/dss/IS/ARIGEABEPP/ISTESTCD> .

<https://w3id.org/cdisc/cosmos/dss/IS/ARIGEABEPPRAST> a cosmos_sdtm:SDTMGroup ;
    dcterms:identifier "ARIGEABEPPRAST" ;
    rdf:_1 <https://w3id.org/cdisc/cosmos/dss/IS/ARIGEABEPPRAST/ISTESTCD> ;
    rdf:_10 <https://w3id.org/cdisc/cosmos/dss/IS/ARIGEABEPPRAST/ISSPEC> ;
    rdf:_11 <https://w3id.org/cdisc/cosmos/dss/IS/ARIGEABEPPRAST/ISMETHOD> ;
    rdf:_12 <https://w3id.org/cdisc/cosmos/dss/IS/ARIGEABEPPRAST/ISDTC> ;
    rdf:_2 <https://w3id.org/cdisc/cosmos/dss/IS/ARIGEABEPPRAST/ISTEST> ;
    rdf:_3 <https://w3id.org/cdisc/cosmos/dss/IS/ARIGEABEPPRAST/ISBDAGNT> ;
    rdf:_4 <https://w3id.org/cdisc/cosmos/dss/IS/ARIGEABEPPRAST/ISTSTDTL> ;
    rdf:_5 <https://w3id.org/cdisc/cosmos/dss/IS/ARIGEABEPPRAST/ISCAT> ;
    rdf:_6 <https://w3id.org/cdisc/cosmos/dss/IS/ARIGEABEPPRAST/ISSCAT> ;
    rdf:_7 <https://w3id.org/cdisc/cosmos/dss/IS/ARIGEABEPPRAST/ISORRES> ;
    rdf:_8 <https://w3id.org/cdisc/cosmos/dss/IS/ARIGEABEPPRAST/ISSTRESC> ;
    rdf:_9 <https://w3id.org/cdisc/cosmos/dss/IS/ARIGEABEPPRAST/ISSTRESN> ;
    cosmos_sdtm:biomedicalConceptId NCIT:C181398 ;
    cosmos_sdtm:domain "IS" ;
    cosmos_sdtm:packageDate "2026-05-26"^^xsd:date ;
    cosmos_sdtm:packageType <https://www.cdisc.org/cosmos/sdtm_v1.0/PackageTypeEnum#sdtm> ;
    cosmos_sdtm:sdtmigStartVersion "3-4" ;
    cosmos_sdtm:shortName "Allergen-induced IgE Antibody for English Plantain Pollen Rast Score" ;
    cosmos_sdtm:source "IS.ISTESTCD" ;
    cosmos_sdtm:variables <https://w3id.org/cdisc/cosmos/dss/IS/ARIGEABEPPRAST/ISBDAGNT>,
        <https://w3id.org/cdisc/cosmos/dss/IS/ARIGEABEPPRAST/ISCAT>,
        <https://w3id.org/cdisc/cosmos/dss/IS/ARIGEABEPPRAST/ISDTC>,
        <https://w3id.org/cdisc/cosmos/dss/IS/ARIGEABEPPRAST/ISMETHOD>,
        <https://w3id.org/cdisc/cosmos/dss/IS/ARIGEABEPPRAST/ISORRES>,
        <https://w3id.org/cdisc/cosmos/dss/IS/ARIGEABEPPRAST/ISSCAT>,
        <https://w3id.org/cdisc/cosmos/dss/IS/ARIGEABEPPRAST/ISSPEC>,
        <https://w3id.org/cdisc/cosmos/dss/IS/ARIGEABEPPRAST/ISSTRESC>,
        <https://w3id.org/cdisc/cosmos/dss/IS/ARIGEABEPPRAST/ISSTRESN>,
        <https://w3id.org/cdisc/cosmos/dss/IS/ARIGEABEPPRAST/ISTEST>,
        <https://w3id.org/cdisc/cosmos/dss/IS/ARIGEABEPPRAST/ISTESTCD>,
        <https://w3id.org/cdisc/cosmos/dss/IS/ARIGEABEPPRAST/ISTSTDTL> .

<https://w3id.org/cdisc/cosmos/dss/IS/ARIGEABEWA> a cosmos_sdtm:SDTMGroup ;
    dcterms:identifier "ARIGEABEWA" ;
    rdf:_1 <https://w3id.org/cdisc/cosmos/dss/IS/ARIGEABEWA/ISTESTCD> ;
    rdf:_10 <https://w3id.org/cdisc/cosmos/dss/IS/ARIGEABEWA/ISSTRESU> ;
    rdf:_11 <https://w3id.org/cdisc/cosmos/dss/IS/ARIGEABEWA/ISSPEC> ;
    rdf:_12 <https://w3id.org/cdisc/cosmos/dss/IS/ARIGEABEWA/ISMETHOD> ;
    rdf:_13 <https://w3id.org/cdisc/cosmos/dss/IS/ARIGEABEWA/ISDTC> ;
    rdf:_2 <https://w3id.org/cdisc/cosmos/dss/IS/ARIGEABEWA/ISTEST> ;
    rdf:_3 <https://w3id.org/cdisc/cosmos/dss/IS/ARIGEABEWA/ISBDAGNT> ;
    rdf:_4 <https://w3id.org/cdisc/cosmos/dss/IS/ARIGEABEWA/ISCAT> ;
    rdf:_5 <https://w3id.org/cdisc/cosmos/dss/IS/ARIGEABEWA/ISSCAT> ;
    rdf:_6 <https://w3id.org/cdisc/cosmos/dss/IS/ARIGEABEWA/ISORRES> ;
    rdf:_7 <https://w3id.org/cdisc/cosmos/dss/IS/ARIGEABEWA/ISORRESU> ;
    rdf:_8 <https://w3id.org/cdisc/cosmos/dss/IS/ARIGEABEWA/ISSTRESC> ;
    rdf:_9 <https://w3id.org/cdisc/cosmos/dss/IS/ARIGEABEWA/ISSTRESN> ;
    cosmos_sdtm:biomedicalConceptId NCIT:C181398 ;
    cosmos_sdtm:domain "IS" ;
    cosmos_sdtm:packageDate "2026-05-26"^^xsd:date ;
    cosmos_sdtm:packageType <https://www.cdisc.org/cosmos/sdtm_v1.0/PackageTypeEnum#sdtm> ;
    cosmos_sdtm:sdtmigStartVersion "3-4" ;
    cosmos_sdtm:shortName "Allergen-induced IgE Antibody for Egg White Antigen" ;
    cosmos_sdtm:source "IS.ISTESTCD" ;
    cosmos_sdtm:variables <https://w3id.org/cdisc/cosmos/dss/IS/ARIGEABEWA/ISBDAGNT>,
        <https://w3id.org/cdisc/cosmos/dss/IS/ARIGEABEWA/ISCAT>,
        <https://w3id.org/cdisc/cosmos/dss/IS/ARIGEABEWA/ISDTC>,
        <https://w3id.org/cdisc/cosmos/dss/IS/ARIGEABEWA/ISMETHOD>,
        <https://w3id.org/cdisc/cosmos/dss/IS/ARIGEABEWA/ISORRES>,
        <https://w3id.org/cdisc/cosmos/dss/IS/ARIGEABEWA/ISORRESU>,
        <https://w3id.org/cdisc/cosmos/dss/IS/ARIGEABEWA/ISSCAT>,
        <https://w3id.org/cdisc/cosmos/dss/IS/ARIGEABEWA/ISSPEC>,
        <https://w3id.org/cdisc/cosmos/dss/IS/ARIGEABEWA/ISSTRESC>,
        <https://w3id.org/cdisc/cosmos/dss/IS/ARIGEABEWA/ISSTRESN>,
        <https://w3id.org/cdisc/cosmos/dss/IS/ARIGEABEWA/ISSTRESU>,
        <https://w3id.org/cdisc/cosmos/dss/IS/ARIGEABEWA/ISTEST>,
        <https://w3id.org/cdisc/cosmos/dss/IS/ARIGEABEWA/ISTESTCD> .

<https://w3id.org/cdisc/cosmos/dss/IS/ARIGEABEWARAST> a cosmos_sdtm:SDTMGroup ;
    dcterms:identifier "ARIGEABEWARAST" ;
    rdf:_1 <https://w3id.org/cdisc/cosmos/dss/IS/ARIGEABEWARAST/ISTESTCD> ;
    rdf:_10 <https://w3id.org/cdisc/cosmos/dss/IS/ARIGEABEWARAST/ISSPEC> ;
    rdf:_11 <https://w3id.org/cdisc/cosmos/dss/IS/ARIGEABEWARAST/ISMETHOD> ;
    rdf:_12 <https://w3id.org/cdisc/cosmos/dss/IS/ARIGEABEWARAST/ISDTC> ;
    rdf:_2 <https://w3id.org/cdisc/cosmos/dss/IS/ARIGEABEWARAST/ISTEST> ;
    rdf:_3 <https://w3id.org/cdisc/cosmos/dss/IS/ARIGEABEWARAST/ISBDAGNT> ;
    rdf:_4 <https://w3id.org/cdisc/cosmos/dss/IS/ARIGEABEWARAST/ISTSTDTL> ;
    rdf:_5 <https://w3id.org/cdisc/cosmos/dss/IS/ARIGEABEWARAST/ISCAT> ;
    rdf:_6 <https://w3id.org/cdisc/cosmos/dss/IS/ARIGEABEWARAST/ISSCAT> ;
    rdf:_7 <https://w3id.org/cdisc/cosmos/dss/IS/ARIGEABEWARAST/ISORRES> ;
    rdf:_8 <https://w3id.org/cdisc/cosmos/dss/IS/ARIGEABEWARAST/ISSTRESC> ;
    rdf:_9 <https://w3id.org/cdisc/cosmos/dss/IS/ARIGEABEWARAST/ISSTRESN> ;
    cosmos_sdtm:biomedicalConceptId NCIT:C181398 ;
    cosmos_sdtm:domain "IS" ;
    cosmos_sdtm:packageDate "2026-05-26"^^xsd:date ;
    cosmos_sdtm:packageType <https://www.cdisc.org/cosmos/sdtm_v1.0/PackageTypeEnum#sdtm> ;
    cosmos_sdtm:sdtmigStartVersion "3-4" ;
    cosmos_sdtm:shortName "Allergen-induced IgE Antibody for Egg White Antigen Rast Score" ;
    cosmos_sdtm:source "IS.ISTESTCD" ;
    cosmos_sdtm:variables <https://w3id.org/cdisc/cosmos/dss/IS/ARIGEABEWARAST/ISBDAGNT>,
        <https://w3id.org/cdisc/cosmos/dss/IS/ARIGEABEWARAST/ISCAT>,
        <https://w3id.org/cdisc/cosmos/dss/IS/ARIGEABEWARAST/ISDTC>,
        <https://w3id.org/cdisc/cosmos/dss/IS/ARIGEABEWARAST/ISMETHOD>,
        <https://w3id.org/cdisc/cosmos/dss/IS/ARIGEABEWARAST/ISORRES>,
        <https://w3id.org/cdisc/cosmos/dss/IS/ARIGEABEWARAST/ISSCAT>,
        <https://w3id.org/cdisc/cosmos/dss/IS/ARIGEABEWARAST/ISSPEC>,
        <https://w3id.org/cdisc/cosmos/dss/IS/ARIGEABEWARAST/ISSTRESC>,
        <https://w3id.org/cdisc/cosmos/dss/IS/ARIGEABEWARAST/ISSTRESN>,
        <https://w3id.org/cdisc/cosmos/dss/IS/ARIGEABEWARAST/ISTEST>,
        <https://w3id.org/cdisc/cosmos/dss/IS/ARIGEABEWARAST/ISTESTCD>,
        <https://w3id.org/cdisc/cosmos/dss/IS/ARIGEABEWARAST/ISTSTDTL> .

<https://w3id.org/cdisc/cosmos/dss/IS/ARIGEABEWMAST7> a cosmos_sdtm:SDTMGroup ;
    dcterms:identifier "ARIGEABEWMAST7" ;
    rdf:_1 <https://w3id.org/cdisc/cosmos/dss/IS/ARIGEABEWMAST7/ISTESTCD> ;
    rdf:_10 <https://w3id.org/cdisc/cosmos/dss/IS/ARIGEABEWMAST7/ISSPEC> ;
    rdf:_11 <https://w3id.org/cdisc/cosmos/dss/IS/ARIGEABEWMAST7/ISMETHOD> ;
    rdf:_12 <https://w3id.org/cdisc/cosmos/dss/IS/ARIGEABEWMAST7/ISDTC> ;
    rdf:_2 <https://w3id.org/cdisc/cosmos/dss/IS/ARIGEABEWMAST7/ISTEST> ;
    rdf:_3 <https://w3id.org/cdisc/cosmos/dss/IS/ARIGEABEWMAST7/ISBDAGNT> ;
    rdf:_4 <https://w3id.org/cdisc/cosmos/dss/IS/ARIGEABEWMAST7/ISTSTDTL> ;
    rdf:_5 <https://w3id.org/cdisc/cosmos/dss/IS/ARIGEABEWMAST7/ISCAT> ;
    rdf:_6 <https://w3id.org/cdisc/cosmos/dss/IS/ARIGEABEWMAST7/ISSCAT> ;
    rdf:_7 <https://w3id.org/cdisc/cosmos/dss/IS/ARIGEABEWMAST7/ISORRES> ;
    rdf:_8 <https://w3id.org/cdisc/cosmos/dss/IS/ARIGEABEWMAST7/ISSTRESC> ;
    rdf:_9 <https://w3id.org/cdisc/cosmos/dss/IS/ARIGEABEWMAST7/ISSTRESN> ;
    cosmos_sdtm:biomedicalConceptId NCIT:C181398 ;
    cosmos_sdtm:domain "IS" ;
    cosmos_sdtm:packageDate "2026-07-14"^^xsd:date ;
    cosmos_sdtm:packageType <https://www.cdisc.org/cosmos/sdtm_v1.0/PackageTypeEnum#sdtm> ;
    cosmos_sdtm:sdtmigStartVersion "3-4" ;
    cosmos_sdtm:shortName "Allergen-induced IgE Antibody for Egg White Antigen Mast 7-Class" ;
    cosmos_sdtm:source "IS.ISTESTCD" ;
    cosmos_sdtm:variables <https://w3id.org/cdisc/cosmos/dss/IS/ARIGEABEWMAST7/ISBDAGNT>,
        <https://w3id.org/cdisc/cosmos/dss/IS/ARIGEABEWMAST7/ISCAT>,
        <https://w3id.org/cdisc/cosmos/dss/IS/ARIGEABEWMAST7/ISDTC>,
        <https://w3id.org/cdisc/cosmos/dss/IS/ARIGEABEWMAST7/ISMETHOD>,
        <https://w3id.org/cdisc/cosmos/dss/IS/ARIGEABEWMAST7/ISORRES>,
        <https://w3id.org/cdisc/cosmos/dss/IS/ARIGEABEWMAST7/ISSCAT>,
        <https://w3id.org/cdisc/cosmos/dss/IS/ARIGEABEWMAST7/ISSPEC>,
        <https://w3id.org/cdisc/cosmos/dss/IS/ARIGEABEWMAST7/ISSTRESC>,
        <https://w3id.org/cdisc/cosmos/dss/IS/ARIGEABEWMAST7/ISSTRESN>,
        <https://w3id.org/cdisc/cosmos/dss/IS/ARIGEABEWMAST7/ISTEST>,
        <https://w3id.org/cdisc/cosmos/dss/IS/ARIGEABEWMAST7/ISTESTCD>,
        <https://w3id.org/cdisc/cosmos/dss/IS/ARIGEABEWMAST7/ISTSTDTL> .

<https://w3id.org/cdisc/cosmos/dss/IS/ARIGEABFP> a cosmos_sdtm:SDTMGroup ;
    dcterms:identifier "ARIGEABFP" ;
    rdf:_1 <https://w3id.org/cdisc/cosmos/dss/IS/ARIGEABFP/ISTEST> ;
    rdf:_10 <https://w3id.org/cdisc/cosmos/dss/IS/ARIGEABFP/ISSPEC> ;
    rdf:_11 <https://w3id.org/cdisc/cosmos/dss/IS/ARIGEABFP/ISMETHOD> ;
    rdf:_12 <https://w3id.org/cdisc/cosmos/dss/IS/ARIGEABFP/ISDTC> ;
    rdf:_13 <https://w3id.org/cdisc/cosmos/dss/IS/ARIGEABFP/ISTESTCD> ;
    rdf:_2 <https://w3id.org/cdisc/cosmos/dss/IS/ARIGEABFP/ISBDAGNT> ;
    rdf:_3 <https://w3id.org/cdisc/cosmos/dss/IS/ARIGEABFP/ISCAT> ;
    rdf:_4 <https://w3id.org/cdisc/cosmos/dss/IS/ARIGEABFP/ISSCAT> ;
    rdf:_5 <https://w3id.org/cdisc/cosmos/dss/IS/ARIGEABFP/ISORRES> ;
    rdf:_6 <https://w3id.org/cdisc/cosmos/dss/IS/ARIGEABFP/ISORRESU> ;
    rdf:_7 <https://w3id.org/cdisc/cosmos/dss/IS/ARIGEABFP/ISSTRESC> ;
    rdf:_8 <https://w3id.org/cdisc/cosmos/dss/IS/ARIGEABFP/ISSTRESN> ;
    rdf:_9 <https://w3id.org/cdisc/cosmos/dss/IS/ARIGEABFP/ISSTRESU> ;
    cosmos_sdtm:biomedicalConceptId NCIT:C181398 ;
    cosmos_sdtm:domain "IS" ;
    cosmos_sdtm:packageDate "2026-05-26"^^xsd:date ;
    cosmos_sdtm:packageType <https://www.cdisc.org/cosmos/sdtm_v1.0/PackageTypeEnum#sdtm> ;
    cosmos_sdtm:sdtmigStartVersion "3-4" ;
    cosmos_sdtm:shortName "Allergen-induced IgE Antibody for Fusarium Proliferatum" ;
    cosmos_sdtm:source "IS.ISTESTCD" ;
    cosmos_sdtm:variables <https://w3id.org/cdisc/cosmos/dss/IS/ARIGEABFP/ISBDAGNT>,
        <https://w3id.org/cdisc/cosmos/dss/IS/ARIGEABFP/ISCAT>,
        <https://w3id.org/cdisc/cosmos/dss/IS/ARIGEABFP/ISDTC>,
        <https://w3id.org/cdisc/cosmos/dss/IS/ARIGEABFP/ISMETHOD>,
        <https://w3id.org/cdisc/cosmos/dss/IS/ARIGEABFP/ISORRES>,
        <https://w3id.org/cdisc/cosmos/dss/IS/ARIGEABFP/ISORRESU>,
        <https://w3id.org/cdisc/cosmos/dss/IS/ARIGEABFP/ISSCAT>,
        <https://w3id.org/cdisc/cosmos/dss/IS/ARIGEABFP/ISSPEC>,
        <https://w3id.org/cdisc/cosmos/dss/IS/ARIGEABFP/ISSTRESC>,
        <https://w3id.org/cdisc/cosmos/dss/IS/ARIGEABFP/ISSTRESN>,
        <https://w3id.org/cdisc/cosmos/dss/IS/ARIGEABFP/ISSTRESU>,
        <https://w3id.org/cdisc/cosmos/dss/IS/ARIGEABFP/ISTEST>,
        <https://w3id.org/cdisc/cosmos/dss/IS/ARIGEABFP/ISTESTCD> .

<https://w3id.org/cdisc/cosmos/dss/IS/ARIGEABFPRAST> a cosmos_sdtm:SDTMGroup ;
    dcterms:identifier "ARIGEABFPRAST" ;
    rdf:_1 <https://w3id.org/cdisc/cosmos/dss/IS/ARIGEABFPRAST/ISTESTCD> ;
    rdf:_10 <https://w3id.org/cdisc/cosmos/dss/IS/ARIGEABFPRAST/ISSPEC> ;
    rdf:_11 <https://w3id.org/cdisc/cosmos/dss/IS/ARIGEABFPRAST/ISMETHOD> ;
    rdf:_12 <https://w3id.org/cdisc/cosmos/dss/IS/ARIGEABFPRAST/ISDTC> ;
    rdf:_2 <https://w3id.org/cdisc/cosmos/dss/IS/ARIGEABFPRAST/ISTEST> ;
    rdf:_3 <https://w3id.org/cdisc/cosmos/dss/IS/ARIGEABFPRAST/ISBDAGNT> ;
    rdf:_4 <https://w3id.org/cdisc/cosmos/dss/IS/ARIGEABFPRAST/ISTSTDTL> ;
    rdf:_5 <https://w3id.org/cdisc/cosmos/dss/IS/ARIGEABFPRAST/ISCAT> ;
    rdf:_6 <https://w3id.org/cdisc/cosmos/dss/IS/ARIGEABFPRAST/ISSCAT> ;
    rdf:_7 <https://w3id.org/cdisc/cosmos/dss/IS/ARIGEABFPRAST/ISORRES> ;
    rdf:_8 <https://w3id.org/cdisc/cosmos/dss/IS/ARIGEABFPRAST/ISSTRESC> ;
    rdf:_9 <https://w3id.org/cdisc/cosmos/dss/IS/ARIGEABFPRAST/ISSTRESN> ;
    cosmos_sdtm:biomedicalConceptId NCIT:C181398 ;
    cosmos_sdtm:domain "IS" ;
    cosmos_sdtm:packageDate "2026-05-26"^^xsd:date ;
    cosmos_sdtm:packageType <https://www.cdisc.org/cosmos/sdtm_v1.0/PackageTypeEnum#sdtm> ;
    cosmos_sdtm:sdtmigStartVersion "3-4" ;
    cosmos_sdtm:shortName "Allergen-induced IgE Antibody for Fusarium Proliferatum Rast Score" ;
    cosmos_sdtm:source "IS.ISTESTCD" ;
    cosmos_sdtm:variables <https://w3id.org/cdisc/cosmos/dss/IS/ARIGEABFPRAST/ISBDAGNT>,
        <https://w3id.org/cdisc/cosmos/dss/IS/ARIGEABFPRAST/ISCAT>,
        <https://w3id.org/cdisc/cosmos/dss/IS/ARIGEABFPRAST/ISDTC>,
        <https://w3id.org/cdisc/cosmos/dss/IS/ARIGEABFPRAST/ISMETHOD>,
        <https://w3id.org/cdisc/cosmos/dss/IS/ARIGEABFPRAST/ISORRES>,
        <https://w3id.org/cdisc/cosmos/dss/IS/ARIGEABFPRAST/ISSCAT>,
        <https://w3id.org/cdisc/cosmos/dss/IS/ARIGEABFPRAST/ISSPEC>,
        <https://w3id.org/cdisc/cosmos/dss/IS/ARIGEABFPRAST/ISSTRESC>,
        <https://w3id.org/cdisc/cosmos/dss/IS/ARIGEABFPRAST/ISSTRESN>,
        <https://w3id.org/cdisc/cosmos/dss/IS/ARIGEABFPRAST/ISTEST>,
        <https://w3id.org/cdisc/cosmos/dss/IS/ARIGEABFPRAST/ISTESTCD>,
        <https://w3id.org/cdisc/cosmos/dss/IS/ARIGEABFPRAST/ISTSTDTL> .

<https://w3id.org/cdisc/cosmos/dss/IS/ARIGEABGCA> a cosmos_sdtm:SDTMGroup ;
    dcterms:identifier "ARIGEABGCA" ;
    rdf:_1 <https://w3id.org/cdisc/cosmos/dss/IS/ARIGEABGCA/ISTESTCD> ;
    rdf:_10 <https://w3id.org/cdisc/cosmos/dss/IS/ARIGEABGCA/ISSTRESU> ;
    rdf:_11 <https://w3id.org/cdisc/cosmos/dss/IS/ARIGEABGCA/ISSPEC> ;
    rdf:_12 <https://w3id.org/cdisc/cosmos/dss/IS/ARIGEABGCA/ISMETHOD> ;
    rdf:_13 <https://w3id.org/cdisc/cosmos/dss/IS/ARIGEABGCA/ISDTC> ;
    rdf:_2 <https://w3id.org/cdisc/cosmos/dss/IS/ARIGEABGCA/ISTEST> ;
    rdf:_3 <https://w3id.org/cdisc/cosmos/dss/IS/ARIGEABGCA/ISBDAGNT> ;
    rdf:_4 <https://w3id.org/cdisc/cosmos/dss/IS/ARIGEABGCA/ISCAT> ;
    rdf:_5 <https://w3id.org/cdisc/cosmos/dss/IS/ARIGEABGCA/ISSCAT> ;
    rdf:_6 <https://w3id.org/cdisc/cosmos/dss/IS/ARIGEABGCA/ISORRES> ;
    rdf:_7 <https://w3id.org/cdisc/cosmos/dss/IS/ARIGEABGCA/ISORRESU> ;
    rdf:_8 <https://w3id.org/cdisc/cosmos/dss/IS/ARIGEABGCA/ISSTRESC> ;
    rdf:_9 <https://w3id.org/cdisc/cosmos/dss/IS/ARIGEABGCA/ISSTRESN> ;
    cosmos_sdtm:biomedicalConceptId NCIT:C181398 ;
    cosmos_sdtm:domain "IS" ;
    cosmos_sdtm:packageDate "2026-05-26"^^xsd:date ;
    cosmos_sdtm:packageType <https://www.cdisc.org/cosmos/sdtm_v1.0/PackageTypeEnum#sdtm> ;
    cosmos_sdtm:sdtmigStartVersion "3-4" ;
    cosmos_sdtm:shortName "Allergen-induced IgE Antibody for German Cockroach Antigen" ;
    cosmos_sdtm:source "IS.ISTESTCD" ;
    cosmos_sdtm:variables <https://w3id.org/cdisc/cosmos/dss/IS/ARIGEABGCA/ISBDAGNT>,
        <https://w3id.org/cdisc/cosmos/dss/IS/ARIGEABGCA/ISCAT>,
        <https://w3id.org/cdisc/cosmos/dss/IS/ARIGEABGCA/ISDTC>,
        <https://w3id.org/cdisc/cosmos/dss/IS/ARIGEABGCA/ISMETHOD>,
        <https://w3id.org/cdisc/cosmos/dss/IS/ARIGEABGCA/ISORRES>,
        <https://w3id.org/cdisc/cosmos/dss/IS/ARIGEABGCA/ISORRESU>,
        <https://w3id.org/cdisc/cosmos/dss/IS/ARIGEABGCA/ISSCAT>,
        <https://w3id.org/cdisc/cosmos/dss/IS/ARIGEABGCA/ISSPEC>,
        <https://w3id.org/cdisc/cosmos/dss/IS/ARIGEABGCA/ISSTRESC>,
        <https://w3id.org/cdisc/cosmos/dss/IS/ARIGEABGCA/ISSTRESN>,
        <https://w3id.org/cdisc/cosmos/dss/IS/ARIGEABGCA/ISSTRESU>,
        <https://w3id.org/cdisc/cosmos/dss/IS/ARIGEABGCA/ISTEST>,
        <https://w3id.org/cdisc/cosmos/dss/IS/ARIGEABGCA/ISTESTCD> .

<https://w3id.org/cdisc/cosmos/dss/IS/ARIGEABGCARAST> a cosmos_sdtm:SDTMGroup ;
    dcterms:identifier "ARIGEABGCARAST" ;
    rdf:_1 <https://w3id.org/cdisc/cosmos/dss/IS/ARIGEABGCARAST/ISTESTCD> ;
    rdf:_10 <https://w3id.org/cdisc/cosmos/dss/IS/ARIGEABGCARAST/ISSPEC> ;
    rdf:_11 <https://w3id.org/cdisc/cosmos/dss/IS/ARIGEABGCARAST/ISMETHOD> ;
    rdf:_12 <https://w3id.org/cdisc/cosmos/dss/IS/ARIGEABGCARAST/ISDTC> ;
    rdf:_2 <https://w3id.org/cdisc/cosmos/dss/IS/ARIGEABGCARAST/ISTEST> ;
    rdf:_3 <https://w3id.org/cdisc/cosmos/dss/IS/ARIGEABGCARAST/ISBDAGNT> ;
    rdf:_4 <https://w3id.org/cdisc/cosmos/dss/IS/ARIGEABGCARAST/ISTSTDTL> ;
    rdf:_5 <https://w3id.org/cdisc/cosmos/dss/IS/ARIGEABGCARAST/ISCAT> ;
    rdf:_6 <https://w3id.org/cdisc/cosmos/dss/IS/ARIGEABGCARAST/ISSCAT> ;
    rdf:_7 <https://w3id.org/cdisc/cosmos/dss/IS/ARIGEABGCARAST/ISORRES> ;
    rdf:_8 <https://w3id.org/cdisc/cosmos/dss/IS/ARIGEABGCARAST/ISSTRESC> ;
    rdf:_9 <https://w3id.org/cdisc/cosmos/dss/IS/ARIGEABGCARAST/ISSTRESN> ;
    cosmos_sdtm:biomedicalConceptId NCIT:C181398 ;
    cosmos_sdtm:domain "IS" ;
    cosmos_sdtm:packageDate "2026-05-26"^^xsd:date ;
    cosmos_sdtm:packageType <https://www.cdisc.org/cosmos/sdtm_v1.0/PackageTypeEnum#sdtm> ;
    cosmos_sdtm:sdtmigStartVersion "3-4" ;
    cosmos_sdtm:shortName "Allergen-induced IgE Antibody for German Cockroach Antigen Rast Score" ;
    cosmos_sdtm:source "IS.ISTESTCD" ;
    cosmos_sdtm:variables <https://w3id.org/cdisc/cosmos/dss/IS/ARIGEABGCARAST/ISBDAGNT>,
        <https://w3id.org/cdisc/cosmos/dss/IS/ARIGEABGCARAST/ISCAT>,
        <https://w3id.org/cdisc/cosmos/dss/IS/ARIGEABGCARAST/ISDTC>,
        <https://w3id.org/cdisc/cosmos/dss/IS/ARIGEABGCARAST/ISMETHOD>,
        <https://w3id.org/cdisc/cosmos/dss/IS/ARIGEABGCARAST/ISORRES>,
        <https://w3id.org/cdisc/cosmos/dss/IS/ARIGEABGCARAST/ISSCAT>,
        <https://w3id.org/cdisc/cosmos/dss/IS/ARIGEABGCARAST/ISSPEC>,
        <https://w3id.org/cdisc/cosmos/dss/IS/ARIGEABGCARAST/ISSTRESC>,
        <https://w3id.org/cdisc/cosmos/dss/IS/ARIGEABGCARAST/ISSTRESN>,
        <https://w3id.org/cdisc/cosmos/dss/IS/ARIGEABGCARAST/ISTEST>,
        <https://w3id.org/cdisc/cosmos/dss/IS/ARIGEABGCARAST/ISTESTCD>,
        <https://w3id.org/cdisc/cosmos/dss/IS/ARIGEABGCARAST/ISTSTDTL> .

<https://w3id.org/cdisc/cosmos/dss/IS/ARIGEABGKMAST7> a cosmos_sdtm:SDTMGroup ;
    dcterms:identifier "ARIGEABGKMAST7" ;
    rdf:_1 <https://w3id.org/cdisc/cosmos/dss/IS/ARIGEABGKMAST7/ISTESTCD> ;
    rdf:_10 <https://w3id.org/cdisc/cosmos/dss/IS/ARIGEABGKMAST7/ISSPEC> ;
    rdf:_11 <https://w3id.org/cdisc/cosmos/dss/IS/ARIGEABGKMAST7/ISMETHOD> ;
    rdf:_12 <https://w3id.org/cdisc/cosmos/dss/IS/ARIGEABGKMAST7/ISDTC> ;
    rdf:_2 <https://w3id.org/cdisc/cosmos/dss/IS/ARIGEABGKMAST7/ISTEST> ;
    rdf:_3 <https://w3id.org/cdisc/cosmos/dss/IS/ARIGEABGKMAST7/ISBDAGNT> ;
    rdf:_4 <https://w3id.org/cdisc/cosmos/dss/IS/ARIGEABGKMAST7/ISTSTDTL> ;
    rdf:_5 <https://w3id.org/cdisc/cosmos/dss/IS/ARIGEABGKMAST7/ISCAT> ;
    rdf:_6 <https://w3id.org/cdisc/cosmos/dss/IS/ARIGEABGKMAST7/ISSCAT> ;
    rdf:_7 <https://w3id.org/cdisc/cosmos/dss/IS/ARIGEABGKMAST7/ISORRES> ;
    rdf:_8 <https://w3id.org/cdisc/cosmos/dss/IS/ARIGEABGKMAST7/ISSTRESC> ;
    rdf:_9 <https://w3id.org/cdisc/cosmos/dss/IS/ARIGEABGKMAST7/ISSTRESN> ;
    cosmos_sdtm:biomedicalConceptId NCIT:C181398 ;
    cosmos_sdtm:domain "IS" ;
    cosmos_sdtm:packageDate "2026-07-14"^^xsd:date ;
    cosmos_sdtm:packageType <https://www.cdisc.org/cosmos/sdtm_v1.0/PackageTypeEnum#sdtm> ;
    cosmos_sdtm:sdtmigStartVersion "3-4" ;
    cosmos_sdtm:shortName "Allergen-induced IgE Antibody for Green Kiwifruit Antigen Mast 7-Class" ;
    cosmos_sdtm:source "IS.ISTESTCD" ;
    cosmos_sdtm:variables <https://w3id.org/cdisc/cosmos/dss/IS/ARIGEABGKMAST7/ISBDAGNT>,
        <https://w3id.org/cdisc/cosmos/dss/IS/ARIGEABGKMAST7/ISCAT>,
        <https://w3id.org/cdisc/cosmos/dss/IS/ARIGEABGKMAST7/ISDTC>,
        <https://w3id.org/cdisc/cosmos/dss/IS/ARIGEABGKMAST7/ISMETHOD>,
        <https://w3id.org/cdisc/cosmos/dss/IS/ARIGEABGKMAST7/ISORRES>,
        <https://w3id.org/cdisc/cosmos/dss/IS/ARIGEABGKMAST7/ISSCAT>,
        <https://w3id.org/cdisc/cosmos/dss/IS/ARIGEABGKMAST7/ISSPEC>,
        <https://w3id.org/cdisc/cosmos/dss/IS/ARIGEABGKMAST7/ISSTRESC>,
        <https://w3id.org/cdisc/cosmos/dss/IS/ARIGEABGKMAST7/ISSTRESN>,
        <https://w3id.org/cdisc/cosmos/dss/IS/ARIGEABGKMAST7/ISTEST>,
        <https://w3id.org/cdisc/cosmos/dss/IS/ARIGEABGKMAST7/ISTESTCD>,
        <https://w3id.org/cdisc/cosmos/dss/IS/ARIGEABGKMAST7/ISTSTDTL> .

<https://w3id.org/cdisc/cosmos/dss/IS/ARIGEABGMP> a cosmos_sdtm:SDTMGroup ;
    dcterms:identifier "ARIGEABGMP" ;
    rdf:_1 <https://w3id.org/cdisc/cosmos/dss/IS/ARIGEABGMP/ISTESTCD> ;
    rdf:_10 <https://w3id.org/cdisc/cosmos/dss/IS/ARIGEABGMP/ISSTRESU> ;
    rdf:_11 <https://w3id.org/cdisc/cosmos/dss/IS/ARIGEABGMP/ISSPEC> ;
    rdf:_12 <https://w3id.org/cdisc/cosmos/dss/IS/ARIGEABGMP/ISMETHOD> ;
    rdf:_13 <https://w3id.org/cdisc/cosmos/dss/IS/ARIGEABGMP/ISDTC> ;
    rdf:_2 <https://w3id.org/cdisc/cosmos/dss/IS/ARIGEABGMP/ISTEST> ;
    rdf:_3 <https://w3id.org/cdisc/cosmos/dss/IS/ARIGEABGMP/ISBDAGNT> ;
    rdf:_4 <https://w3id.org/cdisc/cosmos/dss/IS/ARIGEABGMP/ISCAT> ;
    rdf:_5 <https://w3id.org/cdisc/cosmos/dss/IS/ARIGEABGMP/ISSCAT> ;
    rdf:_6 <https://w3id.org/cdisc/cosmos/dss/IS/ARIGEABGMP/ISORRES> ;
    rdf:_7 <https://w3id.org/cdisc/cosmos/dss/IS/ARIGEABGMP/ISORRESU> ;
    rdf:_8 <https://w3id.org/cdisc/cosmos/dss/IS/ARIGEABGMP/ISSTRESC> ;
    rdf:_9 <https://w3id.org/cdisc/cosmos/dss/IS/ARIGEABGMP/ISSTRESN> ;
    cosmos_sdtm:biomedicalConceptId NCIT:C181398 ;
    cosmos_sdtm:domain "IS" ;
    cosmos_sdtm:packageDate "2026-05-26"^^xsd:date ;
    cosmos_sdtm:packageType <https://www.cdisc.org/cosmos/sdtm_v1.0/PackageTypeEnum#sdtm> ;
    cosmos_sdtm:sdtmigStartVersion "3-4" ;
    cosmos_sdtm:shortName "Allergen-induced IgE Antibody for Grass Mix Pollens" ;
    cosmos_sdtm:source "IS.ISTESTCD" ;
    cosmos_sdtm:variables <https://w3id.org/cdisc/cosmos/dss/IS/ARIGEABGMP/ISBDAGNT>,
        <https://w3id.org/cdisc/cosmos/dss/IS/ARIGEABGMP/ISCAT>,
        <https://w3id.org/cdisc/cosmos/dss/IS/ARIGEABGMP/ISDTC>,
        <https://w3id.org/cdisc/cosmos/dss/IS/ARIGEABGMP/ISMETHOD>,
        <https://w3id.org/cdisc/cosmos/dss/IS/ARIGEABGMP/ISORRES>,
        <https://w3id.org/cdisc/cosmos/dss/IS/ARIGEABGMP/ISORRESU>,
        <https://w3id.org/cdisc/cosmos/dss/IS/ARIGEABGMP/ISSCAT>,
        <https://w3id.org/cdisc/cosmos/dss/IS/ARIGEABGMP/ISSPEC>,
        <https://w3id.org/cdisc/cosmos/dss/IS/ARIGEABGMP/ISSTRESC>,
        <https://w3id.org/cdisc/cosmos/dss/IS/ARIGEABGMP/ISSTRESN>,
        <https://w3id.org/cdisc/cosmos/dss/IS/ARIGEABGMP/ISSTRESU>,
        <https://w3id.org/cdisc/cosmos/dss/IS/ARIGEABGMP/ISTEST>,
        <https://w3id.org/cdisc/cosmos/dss/IS/ARIGEABGMP/ISTESTCD> .

<https://w3id.org/cdisc/cosmos/dss/IS/ARIGEABGMPRAST> a cosmos_sdtm:SDTMGroup ;
    dcterms:identifier "ARIGEABGMPRAST" ;
    rdf:_1 <https://w3id.org/cdisc/cosmos/dss/IS/ARIGEABGMPRAST/ISTESTCD> ;
    rdf:_10 <https://w3id.org/cdisc/cosmos/dss/IS/ARIGEABGMPRAST/ISSPEC> ;
    rdf:_11 <https://w3id.org/cdisc/cosmos/dss/IS/ARIGEABGMPRAST/ISMETHOD> ;
    rdf:_12 <https://w3id.org/cdisc/cosmos/dss/IS/ARIGEABGMPRAST/ISDTC> ;
    rdf:_2 <https://w3id.org/cdisc/cosmos/dss/IS/ARIGEABGMPRAST/ISTEST> ;
    rdf:_3 <https://w3id.org/cdisc/cosmos/dss/IS/ARIGEABGMPRAST/ISBDAGNT> ;
    rdf:_4 <https://w3id.org/cdisc/cosmos/dss/IS/ARIGEABGMPRAST/ISTSTDTL> ;
    rdf:_5 <https://w3id.org/cdisc/cosmos/dss/IS/ARIGEABGMPRAST/ISCAT> ;
    rdf:_6 <https://w3id.org/cdisc/cosmos/dss/IS/ARIGEABGMPRAST/ISSCAT> ;
    rdf:_7 <https://w3id.org/cdisc/cosmos/dss/IS/ARIGEABGMPRAST/ISORRES> ;
    rdf:_8 <https://w3id.org/cdisc/cosmos/dss/IS/ARIGEABGMPRAST/ISSTRESC> ;
    rdf:_9 <https://w3id.org/cdisc/cosmos/dss/IS/ARIGEABGMPRAST/ISSTRESN> ;
    cosmos_sdtm:biomedicalConceptId NCIT:C181398 ;
    cosmos_sdtm:domain "IS" ;
    cosmos_sdtm:packageDate "2026-05-26"^^xsd:date ;
    cosmos_sdtm:packageType <https://www.cdisc.org/cosmos/sdtm_v1.0/PackageTypeEnum#sdtm> ;
    cosmos_sdtm:sdtmigStartVersion "3-4" ;
    cosmos_sdtm:shortName "Allergen-induced IgE Antibody for Grass Mix Pollens Rast Score" ;
    cosmos_sdtm:source "IS.ISTESTCD" ;
    cosmos_sdtm:variables <https://w3id.org/cdisc/cosmos/dss/IS/ARIGEABGMPRAST/ISBDAGNT>,
        <https://w3id.org/cdisc/cosmos/dss/IS/ARIGEABGMPRAST/ISCAT>,
        <https://w3id.org/cdisc/cosmos/dss/IS/ARIGEABGMPRAST/ISDTC>,
        <https://w3id.org/cdisc/cosmos/dss/IS/ARIGEABGMPRAST/ISMETHOD>,
        <https://w3id.org/cdisc/cosmos/dss/IS/ARIGEABGMPRAST/ISORRES>,
        <https://w3id.org/cdisc/cosmos/dss/IS/ARIGEABGMPRAST/ISSCAT>,
        <https://w3id.org/cdisc/cosmos/dss/IS/ARIGEABGMPRAST/ISSPEC>,
        <https://w3id.org/cdisc/cosmos/dss/IS/ARIGEABGMPRAST/ISSTRESC>,
        <https://w3id.org/cdisc/cosmos/dss/IS/ARIGEABGMPRAST/ISSTRESN>,
        <https://w3id.org/cdisc/cosmos/dss/IS/ARIGEABGMPRAST/ISTEST>,
        <https://w3id.org/cdisc/cosmos/dss/IS/ARIGEABGMPRAST/ISTESTCD>,
        <https://w3id.org/cdisc/cosmos/dss/IS/ARIGEABGMPRAST/ISTSTDTL> .

<https://w3id.org/cdisc/cosmos/dss/IS/ARIGEABHDMAST7> a cosmos_sdtm:SDTMGroup ;
    dcterms:identifier "ARIGEABHDMAST7" ;
    rdf:_1 <https://w3id.org/cdisc/cosmos/dss/IS/ARIGEABHDMAST7/ISTESTCD> ;
    rdf:_10 <https://w3id.org/cdisc/cosmos/dss/IS/ARIGEABHDMAST7/ISSPEC> ;
    rdf:_11 <https://w3id.org/cdisc/cosmos/dss/IS/ARIGEABHDMAST7/ISMETHOD> ;
    rdf:_12 <https://w3id.org/cdisc/cosmos/dss/IS/ARIGEABHDMAST7/ISDTC> ;
    rdf:_2 <https://w3id.org/cdisc/cosmos/dss/IS/ARIGEABHDMAST7/ISTEST> ;
    rdf:_3 <https://w3id.org/cdisc/cosmos/dss/IS/ARIGEABHDMAST7/ISBDAGNT> ;
    rdf:_4 <https://w3id.org/cdisc/cosmos/dss/IS/ARIGEABHDMAST7/ISTSTDTL> ;
    rdf:_5 <https://w3id.org/cdisc/cosmos/dss/IS/ARIGEABHDMAST7/ISCAT> ;
    rdf:_6 <https://w3id.org/cdisc/cosmos/dss/IS/ARIGEABHDMAST7/ISSCAT> ;
    rdf:_7 <https://w3id.org/cdisc/cosmos/dss/IS/ARIGEABHDMAST7/ISORRES> ;
    rdf:_8 <https://w3id.org/cdisc/cosmos/dss/IS/ARIGEABHDMAST7/ISSTRESC> ;
    rdf:_9 <https://w3id.org/cdisc/cosmos/dss/IS/ARIGEABHDMAST7/ISSTRESN> ;
    cosmos_sdtm:biomedicalConceptId NCIT:C181398 ;
    cosmos_sdtm:domain "IS" ;
    cosmos_sdtm:packageDate "2026-07-14"^^xsd:date ;
    cosmos_sdtm:packageType <https://www.cdisc.org/cosmos/sdtm_v1.0/PackageTypeEnum#sdtm> ;
    cosmos_sdtm:sdtmigStartVersion "3-4" ;
    cosmos_sdtm:shortName "Allergen-induced IgE Antibody for House Dust Antigen Mast 7-Class" ;
    cosmos_sdtm:source "IS.ISTESTCD" ;
    cosmos_sdtm:variables <https://w3id.org/cdisc/cosmos/dss/IS/ARIGEABHDMAST7/ISBDAGNT>,
        <https://w3id.org/cdisc/cosmos/dss/IS/ARIGEABHDMAST7/ISCAT>,
        <https://w3id.org/cdisc/cosmos/dss/IS/ARIGEABHDMAST7/ISDTC>,
        <https://w3id.org/cdisc/cosmos/dss/IS/ARIGEABHDMAST7/ISMETHOD>,
        <https://w3id.org/cdisc/cosmos/dss/IS/ARIGEABHDMAST7/ISORRES>,
        <https://w3id.org/cdisc/cosmos/dss/IS/ARIGEABHDMAST7/ISSCAT>,
        <https://w3id.org/cdisc/cosmos/dss/IS/ARIGEABHDMAST7/ISSPEC>,
        <https://w3id.org/cdisc/cosmos/dss/IS/ARIGEABHDMAST7/ISSTRESC>,
        <https://w3id.org/cdisc/cosmos/dss/IS/ARIGEABHDMAST7/ISSTRESN>,
        <https://w3id.org/cdisc/cosmos/dss/IS/ARIGEABHDMAST7/ISTEST>,
        <https://w3id.org/cdisc/cosmos/dss/IS/ARIGEABHDMAST7/ISTESTCD>,
        <https://w3id.org/cdisc/cosmos/dss/IS/ARIGEABHDMAST7/ISTSTDTL> .

<https://w3id.org/cdisc/cosmos/dss/IS/ARIGEABICMAST7> a cosmos_sdtm:SDTMGroup ;
    dcterms:identifier "ARIGEABICMAST7" ;
    rdf:_1 <https://w3id.org/cdisc/cosmos/dss/IS/ARIGEABICMAST7/ISTESTCD> ;
    rdf:_10 <https://w3id.org/cdisc/cosmos/dss/IS/ARIGEABICMAST7/ISSPEC> ;
    rdf:_11 <https://w3id.org/cdisc/cosmos/dss/IS/ARIGEABICMAST7/ISMETHOD> ;
    rdf:_12 <https://w3id.org/cdisc/cosmos/dss/IS/ARIGEABICMAST7/ISDTC> ;
    rdf:_2 <https://w3id.org/cdisc/cosmos/dss/IS/ARIGEABICMAST7/ISTEST> ;
    rdf:_3 <https://w3id.org/cdisc/cosmos/dss/IS/ARIGEABICMAST7/ISBDAGNT> ;
    rdf:_4 <https://w3id.org/cdisc/cosmos/dss/IS/ARIGEABICMAST7/ISTSTDTL> ;
    rdf:_5 <https://w3id.org/cdisc/cosmos/dss/IS/ARIGEABICMAST7/ISCAT> ;
    rdf:_6 <https://w3id.org/cdisc/cosmos/dss/IS/ARIGEABICMAST7/ISSCAT> ;
    rdf:_7 <https://w3id.org/cdisc/cosmos/dss/IS/ARIGEABICMAST7/ISORRES> ;
    rdf:_8 <https://w3id.org/cdisc/cosmos/dss/IS/ARIGEABICMAST7/ISSTRESC> ;
    rdf:_9 <https://w3id.org/cdisc/cosmos/dss/IS/ARIGEABICMAST7/ISSTRESN> ;
    cosmos_sdtm:biomedicalConceptId NCIT:C181398 ;
    cosmos_sdtm:domain "IS" ;
    cosmos_sdtm:packageDate "2026-07-14"^^xsd:date ;
    cosmos_sdtm:packageType <https://www.cdisc.org/cosmos/sdtm_v1.0/PackageTypeEnum#sdtm> ;
    cosmos_sdtm:sdtmigStartVersion "3-4" ;
    cosmos_sdtm:shortName "Allergen-induced IgE Antibody for Incense Cedar Pollen Mast 7-Class" ;
    cosmos_sdtm:source "IS.ISTESTCD" ;
    cosmos_sdtm:variables <https://w3id.org/cdisc/cosmos/dss/IS/ARIGEABICMAST7/ISBDAGNT>,
        <https://w3id.org/cdisc/cosmos/dss/IS/ARIGEABICMAST7/ISCAT>,
        <https://w3id.org/cdisc/cosmos/dss/IS/ARIGEABICMAST7/ISDTC>,
        <https://w3id.org/cdisc/cosmos/dss/IS/ARIGEABICMAST7/ISMETHOD>,
        <https://w3id.org/cdisc/cosmos/dss/IS/ARIGEABICMAST7/ISORRES>,
        <https://w3id.org/cdisc/cosmos/dss/IS/ARIGEABICMAST7/ISSCAT>,
        <https://w3id.org/cdisc/cosmos/dss/IS/ARIGEABICMAST7/ISSPEC>,
        <https://w3id.org/cdisc/cosmos/dss/IS/ARIGEABICMAST7/ISSTRESC>,
        <https://w3id.org/cdisc/cosmos/dss/IS/ARIGEABICMAST7/ISSTRESN>,
        <https://w3id.org/cdisc/cosmos/dss/IS/ARIGEABICMAST7/ISTEST>,
        <https://w3id.org/cdisc/cosmos/dss/IS/ARIGEABICMAST7/ISTESTCD>,
        <https://w3id.org/cdisc/cosmos/dss/IS/ARIGEABICMAST7/ISTSTDTL> .

<https://w3id.org/cdisc/cosmos/dss/IS/ARIGEABJAMAST7> a cosmos_sdtm:SDTMGroup ;
    dcterms:identifier "ARIGEABJAMAST7" ;
    rdf:_1 <https://w3id.org/cdisc/cosmos/dss/IS/ARIGEABJAMAST7/ISTESTCD> ;
    rdf:_10 <https://w3id.org/cdisc/cosmos/dss/IS/ARIGEABJAMAST7/ISSPEC> ;
    rdf:_11 <https://w3id.org/cdisc/cosmos/dss/IS/ARIGEABJAMAST7/ISMETHOD> ;
    rdf:_12 <https://w3id.org/cdisc/cosmos/dss/IS/ARIGEABJAMAST7/ISDTC> ;
    rdf:_2 <https://w3id.org/cdisc/cosmos/dss/IS/ARIGEABJAMAST7/ISTEST> ;
    rdf:_3 <https://w3id.org/cdisc/cosmos/dss/IS/ARIGEABJAMAST7/ISBDAGNT> ;
    rdf:_4 <https://w3id.org/cdisc/cosmos/dss/IS/ARIGEABJAMAST7/ISTSTDTL> ;
    rdf:_5 <https://w3id.org/cdisc/cosmos/dss/IS/ARIGEABJAMAST7/ISCAT> ;
    rdf:_6 <https://w3id.org/cdisc/cosmos/dss/IS/ARIGEABJAMAST7/ISSCAT> ;
    rdf:_7 <https://w3id.org/cdisc/cosmos/dss/IS/ARIGEABJAMAST7/ISORRES> ;
    rdf:_8 <https://w3id.org/cdisc/cosmos/dss/IS/ARIGEABJAMAST7/ISSTRESC> ;
    rdf:_9 <https://w3id.org/cdisc/cosmos/dss/IS/ARIGEABJAMAST7/ISSTRESN> ;
    cosmos_sdtm:biomedicalConceptId NCIT:C181398 ;
    cosmos_sdtm:domain "IS" ;
    cosmos_sdtm:packageDate "2026-07-14"^^xsd:date ;
    cosmos_sdtm:packageType <https://www.cdisc.org/cosmos/sdtm_v1.0/PackageTypeEnum#sdtm> ;
    cosmos_sdtm:sdtmigStartVersion "3-4" ;
    cosmos_sdtm:shortName "Allergen-induced IgE Antibody for Japanese Alder Pollen Mast 7-Class" ;
    cosmos_sdtm:source "IS.ISTESTCD" ;
    cosmos_sdtm:variables <https://w3id.org/cdisc/cosmos/dss/IS/ARIGEABJAMAST7/ISBDAGNT>,
        <https://w3id.org/cdisc/cosmos/dss/IS/ARIGEABJAMAST7/ISCAT>,
        <https://w3id.org/cdisc/cosmos/dss/IS/ARIGEABJAMAST7/ISDTC>,
        <https://w3id.org/cdisc/cosmos/dss/IS/ARIGEABJAMAST7/ISMETHOD>,
        <https://w3id.org/cdisc/cosmos/dss/IS/ARIGEABJAMAST7/ISORRES>,
        <https://w3id.org/cdisc/cosmos/dss/IS/ARIGEABJAMAST7/ISSCAT>,
        <https://w3id.org/cdisc/cosmos/dss/IS/ARIGEABJAMAST7/ISSPEC>,
        <https://w3id.org/cdisc/cosmos/dss/IS/ARIGEABJAMAST7/ISSTRESC>,
        <https://w3id.org/cdisc/cosmos/dss/IS/ARIGEABJAMAST7/ISSTRESN>,
        <https://w3id.org/cdisc/cosmos/dss/IS/ARIGEABJAMAST7/ISTEST>,
        <https://w3id.org/cdisc/cosmos/dss/IS/ARIGEABJAMAST7/ISTESTCD>,
        <https://w3id.org/cdisc/cosmos/dss/IS/ARIGEABJAMAST7/ISTSTDTL> .

<https://w3id.org/cdisc/cosmos/dss/IS/ARIGEABJCMAST7> a cosmos_sdtm:SDTMGroup ;
    dcterms:identifier "ARIGEABJCMAST7" ;
    rdf:_1 <https://w3id.org/cdisc/cosmos/dss/IS/ARIGEABJCMAST7/ISTESTCD> ;
    rdf:_10 <https://w3id.org/cdisc/cosmos/dss/IS/ARIGEABJCMAST7/ISSPEC> ;
    rdf:_11 <https://w3id.org/cdisc/cosmos/dss/IS/ARIGEABJCMAST7/ISMETHOD> ;
    rdf:_12 <https://w3id.org/cdisc/cosmos/dss/IS/ARIGEABJCMAST7/ISDTC> ;
    rdf:_2 <https://w3id.org/cdisc/cosmos/dss/IS/ARIGEABJCMAST7/ISTEST> ;
    rdf:_3 <https://w3id.org/cdisc/cosmos/dss/IS/ARIGEABJCMAST7/ISBDAGNT> ;
    rdf:_4 <https://w3id.org/cdisc/cosmos/dss/IS/ARIGEABJCMAST7/ISTSTDTL> ;
    rdf:_5 <https://w3id.org/cdisc/cosmos/dss/IS/ARIGEABJCMAST7/ISCAT> ;
    rdf:_6 <https://w3id.org/cdisc/cosmos/dss/IS/ARIGEABJCMAST7/ISSCAT> ;
    rdf:_7 <https://w3id.org/cdisc/cosmos/dss/IS/ARIGEABJCMAST7/ISORRES> ;
    rdf:_8 <https://w3id.org/cdisc/cosmos/dss/IS/ARIGEABJCMAST7/ISSTRESC> ;
    rdf:_9 <https://w3id.org/cdisc/cosmos/dss/IS/ARIGEABJCMAST7/ISSTRESN> ;
    cosmos_sdtm:biomedicalConceptId NCIT:C181398 ;
    cosmos_sdtm:domain "IS" ;
    cosmos_sdtm:packageDate "2026-07-14"^^xsd:date ;
    cosmos_sdtm:packageType <https://www.cdisc.org/cosmos/sdtm_v1.0/PackageTypeEnum#sdtm> ;
    cosmos_sdtm:sdtmigStartVersion "3-4" ;
    cosmos_sdtm:shortName "Allergen-induced IgE Antibody for Japanese Cypress Pollen Mast 7-Class" ;
    cosmos_sdtm:source "IS.ISTESTCD" ;
    cosmos_sdtm:variables <https://w3id.org/cdisc/cosmos/dss/IS/ARIGEABJCMAST7/ISBDAGNT>,
        <https://w3id.org/cdisc/cosmos/dss/IS/ARIGEABJCMAST7/ISCAT>,
        <https://w3id.org/cdisc/cosmos/dss/IS/ARIGEABJCMAST7/ISDTC>,
        <https://w3id.org/cdisc/cosmos/dss/IS/ARIGEABJCMAST7/ISMETHOD>,
        <https://w3id.org/cdisc/cosmos/dss/IS/ARIGEABJCMAST7/ISORRES>,
        <https://w3id.org/cdisc/cosmos/dss/IS/ARIGEABJCMAST7/ISSCAT>,
        <https://w3id.org/cdisc/cosmos/dss/IS/ARIGEABJCMAST7/ISSPEC>,
        <https://w3id.org/cdisc/cosmos/dss/IS/ARIGEABJCMAST7/ISSTRESC>,
        <https://w3id.org/cdisc/cosmos/dss/IS/ARIGEABJCMAST7/ISSTRESN>,
        <https://w3id.org/cdisc/cosmos/dss/IS/ARIGEABJCMAST7/ISTEST>,
        <https://w3id.org/cdisc/cosmos/dss/IS/ARIGEABJCMAST7/ISTESTCD>,
        <https://w3id.org/cdisc/cosmos/dss/IS/ARIGEABJCMAST7/ISTSTDTL> .

<https://w3id.org/cdisc/cosmos/dss/IS/ARIGEABM> a cosmos_sdtm:SDTMGroup ;
    dcterms:identifier "ARIGEABM" ;
    rdf:_1 <https://w3id.org/cdisc/cosmos/dss/IS/ARIGEABM/ISTEST> ;
    rdf:_10 <https://w3id.org/cdisc/cosmos/dss/IS/ARIGEABM/ISSPEC> ;
    rdf:_11 <https://w3id.org/cdisc/cosmos/dss/IS/ARIGEABM/ISMETHOD> ;
    rdf:_12 <https://w3id.org/cdisc/cosmos/dss/IS/ARIGEABM/ISDTC> ;
    rdf:_13 <https://w3id.org/cdisc/cosmos/dss/IS/ARIGEABM/ISTESTCD> ;
    rdf:_2 <https://w3id.org/cdisc/cosmos/dss/IS/ARIGEABM/ISBDAGNT> ;
    rdf:_3 <https://w3id.org/cdisc/cosmos/dss/IS/ARIGEABM/ISCAT> ;
    rdf:_4 <https://w3id.org/cdisc/cosmos/dss/IS/ARIGEABM/ISSCAT> ;
    rdf:_5 <https://w3id.org/cdisc/cosmos/dss/IS/ARIGEABM/ISORRES> ;
    rdf:_6 <https://w3id.org/cdisc/cosmos/dss/IS/ARIGEABM/ISORRESU> ;
    rdf:_7 <https://w3id.org/cdisc/cosmos/dss/IS/ARIGEABM/ISSTRESC> ;
    rdf:_8 <https://w3id.org/cdisc/cosmos/dss/IS/ARIGEABM/ISSTRESN> ;
    rdf:_9 <https://w3id.org/cdisc/cosmos/dss/IS/ARIGEABM/ISSTRESU> ;
    cosmos_sdtm:biomedicalConceptId NCIT:C181398 ;
    cosmos_sdtm:domain "IS" ;
    cosmos_sdtm:packageDate "2026-05-26"^^xsd:date ;
    cosmos_sdtm:packageType <https://www.cdisc.org/cosmos/sdtm_v1.0/PackageTypeEnum#sdtm> ;
    cosmos_sdtm:sdtmigStartVersion "3-4" ;
    cosmos_sdtm:shortName "Allergen-induced IgE Antibody for Malassezia" ;
    cosmos_sdtm:source "IS.ISTESTCD" ;
    cosmos_sdtm:variables <https://w3id.org/cdisc/cosmos/dss/IS/ARIGEABM/ISBDAGNT>,
        <https://w3id.org/cdisc/cosmos/dss/IS/ARIGEABM/ISCAT>,
        <https://w3id.org/cdisc/cosmos/dss/IS/ARIGEABM/ISDTC>,
        <https://w3id.org/cdisc/cosmos/dss/IS/ARIGEABM/ISMETHOD>,
        <https://w3id.org/cdisc/cosmos/dss/IS/ARIGEABM/ISORRES>,
        <https://w3id.org/cdisc/cosmos/dss/IS/ARIGEABM/ISORRESU>,
        <https://w3id.org/cdisc/cosmos/dss/IS/ARIGEABM/ISSCAT>,
        <https://w3id.org/cdisc/cosmos/dss/IS/ARIGEABM/ISSPEC>,
        <https://w3id.org/cdisc/cosmos/dss/IS/ARIGEABM/ISSTRESC>,
        <https://w3id.org/cdisc/cosmos/dss/IS/ARIGEABM/ISSTRESN>,
        <https://w3id.org/cdisc/cosmos/dss/IS/ARIGEABM/ISSTRESU>,
        <https://w3id.org/cdisc/cosmos/dss/IS/ARIGEABM/ISTEST>,
        <https://w3id.org/cdisc/cosmos/dss/IS/ARIGEABM/ISTESTCD> .

<https://w3id.org/cdisc/cosmos/dss/IS/ARIGEABMA> a cosmos_sdtm:SDTMGroup ;
    dcterms:identifier "ARIGEABMA" ;
    rdf:_1 <https://w3id.org/cdisc/cosmos/dss/IS/ARIGEABMA/ISTESTCD> ;
    rdf:_10 <https://w3id.org/cdisc/cosmos/dss/IS/ARIGEABMA/ISSTRESU> ;
    rdf:_11 <https://w3id.org/cdisc/cosmos/dss/IS/ARIGEABMA/ISSPEC> ;
    rdf:_12 <https://w3id.org/cdisc/cosmos/dss/IS/ARIGEABMA/ISMETHOD> ;
    rdf:_13 <https://w3id.org/cdisc/cosmos/dss/IS/ARIGEABMA/ISDTC> ;
    rdf:_2 <https://w3id.org/cdisc/cosmos/dss/IS/ARIGEABMA/ISTEST> ;
    rdf:_3 <https://w3id.org/cdisc/cosmos/dss/IS/ARIGEABMA/ISBDAGNT> ;
    rdf:_4 <https://w3id.org/cdisc/cosmos/dss/IS/ARIGEABMA/ISCAT> ;
    rdf:_5 <https://w3id.org/cdisc/cosmos/dss/IS/ARIGEABMA/ISSCAT> ;
    rdf:_6 <https://w3id.org/cdisc/cosmos/dss/IS/ARIGEABMA/ISORRES> ;
    rdf:_7 <https://w3id.org/cdisc/cosmos/dss/IS/ARIGEABMA/ISORRESU> ;
    rdf:_8 <https://w3id.org/cdisc/cosmos/dss/IS/ARIGEABMA/ISSTRESC> ;
    rdf:_9 <https://w3id.org/cdisc/cosmos/dss/IS/ARIGEABMA/ISSTRESN> ;
    cosmos_sdtm:biomedicalConceptId NCIT:C181398 ;
    cosmos_sdtm:domain "IS" ;
    cosmos_sdtm:packageDate "2026-05-26"^^xsd:date ;
    cosmos_sdtm:packageType <https://www.cdisc.org/cosmos/sdtm_v1.0/PackageTypeEnum#sdtm> ;
    cosmos_sdtm:sdtmigStartVersion "3-4" ;
    cosmos_sdtm:shortName "Allergen-induced IgE Antibody for Mixed Antigens" ;
    cosmos_sdtm:source "IS.ISTESTCD" ;
    cosmos_sdtm:variables <https://w3id.org/cdisc/cosmos/dss/IS/ARIGEABMA/ISBDAGNT>,
        <https://w3id.org/cdisc/cosmos/dss/IS/ARIGEABMA/ISCAT>,
        <https://w3id.org/cdisc/cosmos/dss/IS/ARIGEABMA/ISDTC>,
        <https://w3id.org/cdisc/cosmos/dss/IS/ARIGEABMA/ISMETHOD>,
        <https://w3id.org/cdisc/cosmos/dss/IS/ARIGEABMA/ISORRES>,
        <https://w3id.org/cdisc/cosmos/dss/IS/ARIGEABMA/ISORRESU>,
        <https://w3id.org/cdisc/cosmos/dss/IS/ARIGEABMA/ISSCAT>,
        <https://w3id.org/cdisc/cosmos/dss/IS/ARIGEABMA/ISSPEC>,
        <https://w3id.org/cdisc/cosmos/dss/IS/ARIGEABMA/ISSTRESC>,
        <https://w3id.org/cdisc/cosmos/dss/IS/ARIGEABMA/ISSTRESN>,
        <https://w3id.org/cdisc/cosmos/dss/IS/ARIGEABMA/ISSTRESU>,
        <https://w3id.org/cdisc/cosmos/dss/IS/ARIGEABMA/ISTEST>,
        <https://w3id.org/cdisc/cosmos/dss/IS/ARIGEABMA/ISTESTCD> .

<https://w3id.org/cdisc/cosmos/dss/IS/ARIGEABMARAST> a cosmos_sdtm:SDTMGroup ;
    dcterms:identifier "ARIGEABMARAST" ;
    rdf:_1 <https://w3id.org/cdisc/cosmos/dss/IS/ARIGEABMARAST/ISTESTCD> ;
    rdf:_10 <https://w3id.org/cdisc/cosmos/dss/IS/ARIGEABMARAST/ISSPEC> ;
    rdf:_11 <https://w3id.org/cdisc/cosmos/dss/IS/ARIGEABMARAST/ISMETHOD> ;
    rdf:_12 <https://w3id.org/cdisc/cosmos/dss/IS/ARIGEABMARAST/ISDTC> ;
    rdf:_2 <https://w3id.org/cdisc/cosmos/dss/IS/ARIGEABMARAST/ISTEST> ;
    rdf:_3 <https://w3id.org/cdisc/cosmos/dss/IS/ARIGEABMARAST/ISBDAGNT> ;
    rdf:_4 <https://w3id.org/cdisc/cosmos/dss/IS/ARIGEABMARAST/ISTSTDTL> ;
    rdf:_5 <https://w3id.org/cdisc/cosmos/dss/IS/ARIGEABMARAST/ISCAT> ;
    rdf:_6 <https://w3id.org/cdisc/cosmos/dss/IS/ARIGEABMARAST/ISSCAT> ;
    rdf:_7 <https://w3id.org/cdisc/cosmos/dss/IS/ARIGEABMARAST/ISORRES> ;
    rdf:_8 <https://w3id.org/cdisc/cosmos/dss/IS/ARIGEABMARAST/ISSTRESC> ;
    rdf:_9 <https://w3id.org/cdisc/cosmos/dss/IS/ARIGEABMARAST/ISSTRESN> ;
    cosmos_sdtm:biomedicalConceptId NCIT:C181398 ;
    cosmos_sdtm:domain "IS" ;
    cosmos_sdtm:packageDate "2026-05-26"^^xsd:date ;
    cosmos_sdtm:packageType <https://www.cdisc.org/cosmos/sdtm_v1.0/PackageTypeEnum#sdtm> ;
    cosmos_sdtm:sdtmigStartVersion "3-4" ;
    cosmos_sdtm:shortName "Allergen-induced IgE Antibody for Mixed Antigens Rast Score" ;
    cosmos_sdtm:source "IS.ISTESTCD" ;
    cosmos_sdtm:variables <https://w3id.org/cdisc/cosmos/dss/IS/ARIGEABMARAST/ISBDAGNT>,
        <https://w3id.org/cdisc/cosmos/dss/IS/ARIGEABMARAST/ISCAT>,
        <https://w3id.org/cdisc/cosmos/dss/IS/ARIGEABMARAST/ISDTC>,
        <https://w3id.org/cdisc/cosmos/dss/IS/ARIGEABMARAST/ISMETHOD>,
        <https://w3id.org/cdisc/cosmos/dss/IS/ARIGEABMARAST/ISORRES>,
        <https://w3id.org/cdisc/cosmos/dss/IS/ARIGEABMARAST/ISSCAT>,
        <https://w3id.org/cdisc/cosmos/dss/IS/ARIGEABMARAST/ISSPEC>,
        <https://w3id.org/cdisc/cosmos/dss/IS/ARIGEABMARAST/ISSTRESC>,
        <https://w3id.org/cdisc/cosmos/dss/IS/ARIGEABMARAST/ISSTRESN>,
        <https://w3id.org/cdisc/cosmos/dss/IS/ARIGEABMARAST/ISTEST>,
        <https://w3id.org/cdisc/cosmos/dss/IS/ARIGEABMARAST/ISTESTCD>,
        <https://w3id.org/cdisc/cosmos/dss/IS/ARIGEABMARAST/ISTSTDTL> .

<https://w3id.org/cdisc/cosmos/dss/IS/ARIGEABMMA> a cosmos_sdtm:SDTMGroup ;
    dcterms:identifier "ARIGEABMMA" ;
    rdf:_1 <https://w3id.org/cdisc/cosmos/dss/IS/ARIGEABMMA/ISTESTCD> ;
    rdf:_10 <https://w3id.org/cdisc/cosmos/dss/IS/ARIGEABMMA/ISSTRESU> ;
    rdf:_11 <https://w3id.org/cdisc/cosmos/dss/IS/ARIGEABMMA/ISSPEC> ;
    rdf:_12 <https://w3id.org/cdisc/cosmos/dss/IS/ARIGEABMMA/ISMETHOD> ;
    rdf:_13 <https://w3id.org/cdisc/cosmos/dss/IS/ARIGEABMMA/ISDTC> ;
    rdf:_2 <https://w3id.org/cdisc/cosmos/dss/IS/ARIGEABMMA/ISTEST> ;
    rdf:_3 <https://w3id.org/cdisc/cosmos/dss/IS/ARIGEABMMA/ISBDAGNT> ;
    rdf:_4 <https://w3id.org/cdisc/cosmos/dss/IS/ARIGEABMMA/ISCAT> ;
    rdf:_5 <https://w3id.org/cdisc/cosmos/dss/IS/ARIGEABMMA/ISSCAT> ;
    rdf:_6 <https://w3id.org/cdisc/cosmos/dss/IS/ARIGEABMMA/ISORRES> ;
    rdf:_7 <https://w3id.org/cdisc/cosmos/dss/IS/ARIGEABMMA/ISORRESU> ;
    rdf:_8 <https://w3id.org/cdisc/cosmos/dss/IS/ARIGEABMMA/ISSTRESC> ;
    rdf:_9 <https://w3id.org/cdisc/cosmos/dss/IS/ARIGEABMMA/ISSTRESN> ;
    cosmos_sdtm:biomedicalConceptId NCIT:C181398 ;
    cosmos_sdtm:domain "IS" ;
    cosmos_sdtm:packageDate "2026-05-26"^^xsd:date ;
    cosmos_sdtm:packageType <https://www.cdisc.org/cosmos/sdtm_v1.0/PackageTypeEnum#sdtm> ;
    cosmos_sdtm:sdtmigStartVersion "3-4" ;
    cosmos_sdtm:shortName "Allergen-induced IgE Antibody for Mold Mix Antigens" ;
    cosmos_sdtm:source "IS.ISTESTCD" ;
    cosmos_sdtm:variables <https://w3id.org/cdisc/cosmos/dss/IS/ARIGEABMMA/ISBDAGNT>,
        <https://w3id.org/cdisc/cosmos/dss/IS/ARIGEABMMA/ISCAT>,
        <https://w3id.org/cdisc/cosmos/dss/IS/ARIGEABMMA/ISDTC>,
        <https://w3id.org/cdisc/cosmos/dss/IS/ARIGEABMMA/ISMETHOD>,
        <https://w3id.org/cdisc/cosmos/dss/IS/ARIGEABMMA/ISORRES>,
        <https://w3id.org/cdisc/cosmos/dss/IS/ARIGEABMMA/ISORRESU>,
        <https://w3id.org/cdisc/cosmos/dss/IS/ARIGEABMMA/ISSCAT>,
        <https://w3id.org/cdisc/cosmos/dss/IS/ARIGEABMMA/ISSPEC>,
        <https://w3id.org/cdisc/cosmos/dss/IS/ARIGEABMMA/ISSTRESC>,
        <https://w3id.org/cdisc/cosmos/dss/IS/ARIGEABMMA/ISSTRESN>,
        <https://w3id.org/cdisc/cosmos/dss/IS/ARIGEABMMA/ISSTRESU>,
        <https://w3id.org/cdisc/cosmos/dss/IS/ARIGEABMMA/ISTEST>,
        <https://w3id.org/cdisc/cosmos/dss/IS/ARIGEABMMA/ISTESTCD> .

<https://w3id.org/cdisc/cosmos/dss/IS/ARIGEABMMARAST> a cosmos_sdtm:SDTMGroup ;
    dcterms:identifier "ARIGEABMMARAST" ;
    rdf:_1 <https://w3id.org/cdisc/cosmos/dss/IS/ARIGEABMMARAST/ISTESTCD> ;
    rdf:_10 <https://w3id.org/cdisc/cosmos/dss/IS/ARIGEABMMARAST/ISSPEC> ;
    rdf:_11 <https://w3id.org/cdisc/cosmos/dss/IS/ARIGEABMMARAST/ISMETHOD> ;
    rdf:_12 <https://w3id.org/cdisc/cosmos/dss/IS/ARIGEABMMARAST/ISDTC> ;
    rdf:_2 <https://w3id.org/cdisc/cosmos/dss/IS/ARIGEABMMARAST/ISTEST> ;
    rdf:_3 <https://w3id.org/cdisc/cosmos/dss/IS/ARIGEABMMARAST/ISBDAGNT> ;
    rdf:_4 <https://w3id.org/cdisc/cosmos/dss/IS/ARIGEABMMARAST/ISTSTDTL> ;
    rdf:_5 <https://w3id.org/cdisc/cosmos/dss/IS/ARIGEABMMARAST/ISCAT> ;
    rdf:_6 <https://w3id.org/cdisc/cosmos/dss/IS/ARIGEABMMARAST/ISSCAT> ;
    rdf:_7 <https://w3id.org/cdisc/cosmos/dss/IS/ARIGEABMMARAST/ISORRES> ;
    rdf:_8 <https://w3id.org/cdisc/cosmos/dss/IS/ARIGEABMMARAST/ISSTRESC> ;
    rdf:_9 <https://w3id.org/cdisc/cosmos/dss/IS/ARIGEABMMARAST/ISSTRESN> ;
    cosmos_sdtm:biomedicalConceptId NCIT:C181398 ;
    cosmos_sdtm:domain "IS" ;
    cosmos_sdtm:packageDate "2026-05-26"^^xsd:date ;
    cosmos_sdtm:packageType <https://www.cdisc.org/cosmos/sdtm_v1.0/PackageTypeEnum#sdtm> ;
    cosmos_sdtm:sdtmigStartVersion "3-4" ;
    cosmos_sdtm:shortName "Allergen-induced IgE Antibody for Mold Mix Antigens Rast Score" ;
    cosmos_sdtm:source "IS.ISTESTCD" ;
    cosmos_sdtm:variables <https://w3id.org/cdisc/cosmos/dss/IS/ARIGEABMMARAST/ISBDAGNT>,
        <https://w3id.org/cdisc/cosmos/dss/IS/ARIGEABMMARAST/ISCAT>,
        <https://w3id.org/cdisc/cosmos/dss/IS/ARIGEABMMARAST/ISDTC>,
        <https://w3id.org/cdisc/cosmos/dss/IS/ARIGEABMMARAST/ISMETHOD>,
        <https://w3id.org/cdisc/cosmos/dss/IS/ARIGEABMMARAST/ISORRES>,
        <https://w3id.org/cdisc/cosmos/dss/IS/ARIGEABMMARAST/ISSCAT>,
        <https://w3id.org/cdisc/cosmos/dss/IS/ARIGEABMMARAST/ISSPEC>,
        <https://w3id.org/cdisc/cosmos/dss/IS/ARIGEABMMARAST/ISSTRESC>,
        <https://w3id.org/cdisc/cosmos/dss/IS/ARIGEABMMARAST/ISSTRESN>,
        <https://w3id.org/cdisc/cosmos/dss/IS/ARIGEABMMARAST/ISTEST>,
        <https://w3id.org/cdisc/cosmos/dss/IS/ARIGEABMMARAST/ISTESTCD>,
        <https://w3id.org/cdisc/cosmos/dss/IS/ARIGEABMMARAST/ISTSTDTL> .

<https://w3id.org/cdisc/cosmos/dss/IS/ARIGEABMMAST7> a cosmos_sdtm:SDTMGroup ;
    dcterms:identifier "ARIGEABMMAST7" ;
    rdf:_1 <https://w3id.org/cdisc/cosmos/dss/IS/ARIGEABMMAST7/ISTESTCD> ;
    rdf:_10 <https://w3id.org/cdisc/cosmos/dss/IS/ARIGEABMMAST7/ISSPEC> ;
    rdf:_11 <https://w3id.org/cdisc/cosmos/dss/IS/ARIGEABMMAST7/ISMETHOD> ;
    rdf:_12 <https://w3id.org/cdisc/cosmos/dss/IS/ARIGEABMMAST7/ISDTC> ;
    rdf:_2 <https://w3id.org/cdisc/cosmos/dss/IS/ARIGEABMMAST7/ISTEST> ;
    rdf:_3 <https://w3id.org/cdisc/cosmos/dss/IS/ARIGEABMMAST7/ISBDAGNT> ;
    rdf:_4 <https://w3id.org/cdisc/cosmos/dss/IS/ARIGEABMMAST7/ISTSTDTL> ;
    rdf:_5 <https://w3id.org/cdisc/cosmos/dss/IS/ARIGEABMMAST7/ISCAT> ;
    rdf:_6 <https://w3id.org/cdisc/cosmos/dss/IS/ARIGEABMMAST7/ISSCAT> ;
    rdf:_7 <https://w3id.org/cdisc/cosmos/dss/IS/ARIGEABMMAST7/ISORRES> ;
    rdf:_8 <https://w3id.org/cdisc/cosmos/dss/IS/ARIGEABMMAST7/ISSTRESC> ;
    rdf:_9 <https://w3id.org/cdisc/cosmos/dss/IS/ARIGEABMMAST7/ISSTRESN> ;
    cosmos_sdtm:biomedicalConceptId NCIT:C181398 ;
    cosmos_sdtm:domain "IS" ;
    cosmos_sdtm:packageDate "2026-07-14"^^xsd:date ;
    cosmos_sdtm:packageType <https://www.cdisc.org/cosmos/sdtm_v1.0/PackageTypeEnum#sdtm> ;
    cosmos_sdtm:sdtmigStartVersion "3-4" ;
    cosmos_sdtm:shortName "Allergen-induced IgE Antibody for Mugwort Pollen Mast 7-Class" ;
    cosmos_sdtm:source "IS.ISTESTCD" ;
