@prefix NCIT: <http://purl.obolibrary.org/obo/NCIT_> .
@prefix cosmos_sdtm: <https://www.cdisc.org/cosmos/sdtm_v1.0/> .
@prefix dcterms: <http://purl.org/dc/terms/> .
@prefix owl: <http://www.w3.org/2002/07/owl#> .
@prefix rdf: <http://www.w3.org/1999/02/22-rdf-syntax-ns#> .
@prefix rdfs: <http://www.w3.org/2000/01/rdf-schema#> .
@prefix skos: <http://www.w3.org/2004/02/skos/core#> .
@prefix xsd: <http://www.w3.org/2001/XMLSchema#> .

<https://w3id.org/cdisc/cosmos/dss/LB> a owl:Ontology ;
    rdfs:label "CDISC COSMoS Dataset Specializations, LB (instances)" ;
    dcterms:identifier "2026-07-14" ;
    dcterms:source <https://raw.githubusercontent.com/cdisc-org/COSMoS/031429b1d14823721991cd23ee88a11616686ce3/export/cdisc_sdtm_dataset_specializations_latest.csv> ;
    rdfs:comment "Dataset Specialization instances for domain LB, rendered from the pinned COSMoS export. Variable order is the export's row order, carried as rdf:_n membership beside the variables edges. length and significantDigits are cast from the export's decimal form to integer; packageType is not in the export and is set to the enum's single value. A biomedicalConceptId or dataElementConceptId that resolves to no node is carried as the published string. The concept nodes those edges reach are declared in the Biomedical Concept instance graph, which is not imported. Draft - not a normative CDISC artifact." ;
    owl:imports <https://w3id.org/cdisc/cosmos/sdtm/> ;
    owl:versionIRI <https://w3id.org/cdisc/cosmos/dss/LB/0.4.0> ;
    owl:versionInfo "v0.4.0" .

<https://w3id.org/cdisc/cosmos/dss/LB/ALBCREATURIN> a cosmos_sdtm:SDTMGroup ;
    dcterms:identifier "ALBCREATURIN" ;
    rdf:_1 <https://w3id.org/cdisc/cosmos/dss/LB/ALBCREATURIN/LBTESTCD> ;
    rdf:_10 <https://w3id.org/cdisc/cosmos/dss/LB/ALBCREATURIN/LBSPEC> ;
    rdf:_11 <https://w3id.org/cdisc/cosmos/dss/LB/ALBCREATURIN/LBFAST> ;
    rdf:_12 <https://w3id.org/cdisc/cosmos/dss/LB/ALBCREATURIN/LBDTC> ;
    rdf:_2 <https://w3id.org/cdisc/cosmos/dss/LB/ALBCREATURIN/LBTEST> ;
    rdf:_3 <https://w3id.org/cdisc/cosmos/dss/LB/ALBCREATURIN/LBCAT> ;
    rdf:_4 <https://w3id.org/cdisc/cosmos/dss/LB/ALBCREATURIN/LBORRES> ;
    rdf:_5 <https://w3id.org/cdisc/cosmos/dss/LB/ALBCREATURIN/LBORRESU> ;
    rdf:_6 <https://w3id.org/cdisc/cosmos/dss/LB/ALBCREATURIN/LBSTRESC> ;
    rdf:_7 <https://w3id.org/cdisc/cosmos/dss/LB/ALBCREATURIN/LBSTRESN> ;
    rdf:_8 <https://w3id.org/cdisc/cosmos/dss/LB/ALBCREATURIN/LBSTRESU> ;
    rdf:_9 <https://w3id.org/cdisc/cosmos/dss/LB/ALBCREATURIN/LBLOINC> ;
    cosmos_sdtm:biomedicalConceptId NCIT:C74761 ;
    cosmos_sdtm:domain "LB" ;
    cosmos_sdtm:packageDate "2026-05-26"^^xsd:date ;
    cosmos_sdtm:packageType <https://www.cdisc.org/cosmos/sdtm_v1.0/PackageTypeEnum#sdtm> ;
    cosmos_sdtm:sdtmigStartVersion "3-2" ;
    cosmos_sdtm:shortName "Albumin/Creatinine in Urine" ;
    cosmos_sdtm:source "LB.LBTESTCD" ;
    cosmos_sdtm:variables <https://w3id.org/cdisc/cosmos/dss/LB/ALBCREATURIN/LBCAT>,
        <https://w3id.org/cdisc/cosmos/dss/LB/ALBCREATURIN/LBDTC>,
        <https://w3id.org/cdisc/cosmos/dss/LB/ALBCREATURIN/LBFAST>,
        <https://w3id.org/cdisc/cosmos/dss/LB/ALBCREATURIN/LBLOINC>,
        <https://w3id.org/cdisc/cosmos/dss/LB/ALBCREATURIN/LBORRES>,
        <https://w3id.org/cdisc/cosmos/dss/LB/ALBCREATURIN/LBORRESU>,
        <https://w3id.org/cdisc/cosmos/dss/LB/ALBCREATURIN/LBSPEC>,
        <https://w3id.org/cdisc/cosmos/dss/LB/ALBCREATURIN/LBSTRESC>,
        <https://w3id.org/cdisc/cosmos/dss/LB/ALBCREATURIN/LBSTRESN>,
        <https://w3id.org/cdisc/cosmos/dss/LB/ALBCREATURIN/LBSTRESU>,
        <https://w3id.org/cdisc/cosmos/dss/LB/ALBCREATURIN/LBTEST>,
        <https://w3id.org/cdisc/cosmos/dss/LB/ALBCREATURIN/LBTESTCD> .

<https://w3id.org/cdisc/cosmos/dss/LB/ALBPROTURIN> a cosmos_sdtm:SDTMGroup ;
    dcterms:identifier "ALBPROTURIN" ;
    rdf:_1 <https://w3id.org/cdisc/cosmos/dss/LB/ALBPROTURIN/LBTESTCD> ;
    rdf:_10 <https://w3id.org/cdisc/cosmos/dss/LB/ALBPROTURIN/LBSPEC> ;
    rdf:_11 <https://w3id.org/cdisc/cosmos/dss/LB/ALBPROTURIN/LBFAST> ;
    rdf:_12 <https://w3id.org/cdisc/cosmos/dss/LB/ALBPROTURIN/LBDTC> ;
    rdf:_2 <https://w3id.org/cdisc/cosmos/dss/LB/ALBPROTURIN/LBTEST> ;
    rdf:_3 <https://w3id.org/cdisc/cosmos/dss/LB/ALBPROTURIN/LBCAT> ;
    rdf:_4 <https://w3id.org/cdisc/cosmos/dss/LB/ALBPROTURIN/LBORRES> ;
    rdf:_5 <https://w3id.org/cdisc/cosmos/dss/LB/ALBPROTURIN/LBORRESU> ;
    rdf:_6 <https://w3id.org/cdisc/cosmos/dss/LB/ALBPROTURIN/LBSTRESC> ;
    rdf:_7 <https://w3id.org/cdisc/cosmos/dss/LB/ALBPROTURIN/LBSTRESN> ;
    rdf:_8 <https://w3id.org/cdisc/cosmos/dss/LB/ALBPROTURIN/LBSTRESU> ;
    rdf:_9 <https://w3id.org/cdisc/cosmos/dss/LB/ALBPROTURIN/LBLOINC> ;
    cosmos_sdtm:biomedicalConceptId NCIT:C103453 ;
    cosmos_sdtm:domain "LB" ;
    cosmos_sdtm:packageDate "2026-05-26"^^xsd:date ;
    cosmos_sdtm:packageType <https://www.cdisc.org/cosmos/sdtm_v1.0/PackageTypeEnum#sdtm> ;
    cosmos_sdtm:sdtmigStartVersion "3-2" ;
    cosmos_sdtm:shortName "Albumin/Total Protein in Urine" ;
    cosmos_sdtm:source "LB.LBTESTCD" ;
    cosmos_sdtm:variables <https://w3id.org/cdisc/cosmos/dss/LB/ALBPROTURIN/LBCAT>,
        <https://w3id.org/cdisc/cosmos/dss/LB/ALBPROTURIN/LBDTC>,
        <https://w3id.org/cdisc/cosmos/dss/LB/ALBPROTURIN/LBFAST>,
        <https://w3id.org/cdisc/cosmos/dss/LB/ALBPROTURIN/LBLOINC>,
        <https://w3id.org/cdisc/cosmos/dss/LB/ALBPROTURIN/LBORRES>,
        <https://w3id.org/cdisc/cosmos/dss/LB/ALBPROTURIN/LBORRESU>,
        <https://w3id.org/cdisc/cosmos/dss/LB/ALBPROTURIN/LBSPEC>,
        <https://w3id.org/cdisc/cosmos/dss/LB/ALBPROTURIN/LBSTRESC>,
        <https://w3id.org/cdisc/cosmos/dss/LB/ALBPROTURIN/LBSTRESN>,
        <https://w3id.org/cdisc/cosmos/dss/LB/ALBPROTURIN/LBSTRESU>,
        <https://w3id.org/cdisc/cosmos/dss/LB/ALBPROTURIN/LBTEST>,
        <https://w3id.org/cdisc/cosmos/dss/LB/ALBPROTURIN/LBTESTCD> .

<https://w3id.org/cdisc/cosmos/dss/LB/ALBSERPL> a cosmos_sdtm:SDTMGroup ;
    dcterms:identifier "ALBSERPL" ;
    rdf:_1 <https://w3id.org/cdisc/cosmos/dss/LB/ALBSERPL/LBTESTCD> ;
    rdf:_10 <https://w3id.org/cdisc/cosmos/dss/LB/ALBSERPL/LBSPEC> ;
    rdf:_11 <https://w3id.org/cdisc/cosmos/dss/LB/ALBSERPL/LBFAST> ;
    rdf:_12 <https://w3id.org/cdisc/cosmos/dss/LB/ALBSERPL/LBDTC> ;
    rdf:_2 <https://w3id.org/cdisc/cosmos/dss/LB/ALBSERPL/LBTEST> ;
    rdf:_3 <https://w3id.org/cdisc/cosmos/dss/LB/ALBSERPL/LBCAT> ;
    rdf:_4 <https://w3id.org/cdisc/cosmos/dss/LB/ALBSERPL/LBORRES> ;
    rdf:_5 <https://w3id.org/cdisc/cosmos/dss/LB/ALBSERPL/LBORRESU> ;
    rdf:_6 <https://w3id.org/cdisc/cosmos/dss/LB/ALBSERPL/LBSTRESC> ;
    rdf:_7 <https://w3id.org/cdisc/cosmos/dss/LB/ALBSERPL/LBSTRESN> ;
    rdf:_8 <https://w3id.org/cdisc/cosmos/dss/LB/ALBSERPL/LBSTRESU> ;
    rdf:_9 <https://w3id.org/cdisc/cosmos/dss/LB/ALBSERPL/LBLOINC> ;
    cosmos_sdtm:biomedicalConceptId NCIT:C64431 ;
    cosmos_sdtm:domain "LB" ;
    cosmos_sdtm:packageDate "2026-05-26"^^xsd:date ;
    cosmos_sdtm:packageType <https://www.cdisc.org/cosmos/sdtm_v1.0/PackageTypeEnum#sdtm> ;
    cosmos_sdtm:sdtmigStartVersion "3-2" ;
    cosmos_sdtm:shortName "Albumin Concentration in Serum or Plasma" ;
    cosmos_sdtm:source "LB.LBTESTCD" ;
    cosmos_sdtm:variables <https://w3id.org/cdisc/cosmos/dss/LB/ALBSERPL/LBCAT>,
        <https://w3id.org/cdisc/cosmos/dss/LB/ALBSERPL/LBDTC>,
        <https://w3id.org/cdisc/cosmos/dss/LB/ALBSERPL/LBFAST>,
        <https://w3id.org/cdisc/cosmos/dss/LB/ALBSERPL/LBLOINC>,
        <https://w3id.org/cdisc/cosmos/dss/LB/ALBSERPL/LBORRES>,
        <https://w3id.org/cdisc/cosmos/dss/LB/ALBSERPL/LBORRESU>,
        <https://w3id.org/cdisc/cosmos/dss/LB/ALBSERPL/LBSPEC>,
        <https://w3id.org/cdisc/cosmos/dss/LB/ALBSERPL/LBSTRESC>,
        <https://w3id.org/cdisc/cosmos/dss/LB/ALBSERPL/LBSTRESN>,
        <https://w3id.org/cdisc/cosmos/dss/LB/ALBSERPL/LBSTRESU>,
        <https://w3id.org/cdisc/cosmos/dss/LB/ALBSERPL/LBTEST>,
        <https://w3id.org/cdisc/cosmos/dss/LB/ALBSERPL/LBTESTCD> .

<https://w3id.org/cdisc/cosmos/dss/LB/ALBURIN> a cosmos_sdtm:SDTMGroup ;
    dcterms:identifier "ALBURIN" ;
    rdf:_1 <https://w3id.org/cdisc/cosmos/dss/LB/ALBURIN/LBTESTCD> ;
    rdf:_10 <https://w3id.org/cdisc/cosmos/dss/LB/ALBURIN/LBSPEC> ;
    rdf:_11 <https://w3id.org/cdisc/cosmos/dss/LB/ALBURIN/LBFAST> ;
    rdf:_12 <https://w3id.org/cdisc/cosmos/dss/LB/ALBURIN/LBDTC> ;
    rdf:_2 <https://w3id.org/cdisc/cosmos/dss/LB/ALBURIN/LBTEST> ;
    rdf:_3 <https://w3id.org/cdisc/cosmos/dss/LB/ALBURIN/LBCAT> ;
    rdf:_4 <https://w3id.org/cdisc/cosmos/dss/LB/ALBURIN/LBORRES> ;
    rdf:_5 <https://w3id.org/cdisc/cosmos/dss/LB/ALBURIN/LBORRESU> ;
    rdf:_6 <https://w3id.org/cdisc/cosmos/dss/LB/ALBURIN/LBSTRESC> ;
    rdf:_7 <https://w3id.org/cdisc/cosmos/dss/LB/ALBURIN/LBSTRESN> ;
    rdf:_8 <https://w3id.org/cdisc/cosmos/dss/LB/ALBURIN/LBSTRESU> ;
    rdf:_9 <https://w3id.org/cdisc/cosmos/dss/LB/ALBURIN/LBLOINC> ;
    cosmos_sdtm:biomedicalConceptId NCIT:C64431 ;
    cosmos_sdtm:domain "LB" ;
    cosmos_sdtm:packageDate "2026-05-26"^^xsd:date ;
    cosmos_sdtm:packageType <https://www.cdisc.org/cosmos/sdtm_v1.0/PackageTypeEnum#sdtm> ;
    cosmos_sdtm:sdtmigStartVersion "3-2" ;
    cosmos_sdtm:shortName "Albumin Concentration in Urine" ;
    cosmos_sdtm:source "LB.LBTESTCD" ;
    cosmos_sdtm:variables <https://w3id.org/cdisc/cosmos/dss/LB/ALBURIN/LBCAT>,
        <https://w3id.org/cdisc/cosmos/dss/LB/ALBURIN/LBDTC>,
        <https://w3id.org/cdisc/cosmos/dss/LB/ALBURIN/LBFAST>,
        <https://w3id.org/cdisc/cosmos/dss/LB/ALBURIN/LBLOINC>,
        <https://w3id.org/cdisc/cosmos/dss/LB/ALBURIN/LBORRES>,
        <https://w3id.org/cdisc/cosmos/dss/LB/ALBURIN/LBORRESU>,
        <https://w3id.org/cdisc/cosmos/dss/LB/ALBURIN/LBSPEC>,
        <https://w3id.org/cdisc/cosmos/dss/LB/ALBURIN/LBSTRESC>,
        <https://w3id.org/cdisc/cosmos/dss/LB/ALBURIN/LBSTRESN>,
        <https://w3id.org/cdisc/cosmos/dss/LB/ALBURIN/LBSTRESU>,
        <https://w3id.org/cdisc/cosmos/dss/LB/ALBURIN/LBTEST>,
        <https://w3id.org/cdisc/cosmos/dss/LB/ALBURIN/LBTESTCD> .

<https://w3id.org/cdisc/cosmos/dss/LB/ALBURINPRES> a cosmos_sdtm:SDTMGroup ;
    dcterms:identifier "ALBURINPRES" ;
    rdf:_1 <https://w3id.org/cdisc/cosmos/dss/LB/ALBURINPRES/LBTESTCD> ;
    rdf:_2 <https://w3id.org/cdisc/cosmos/dss/LB/ALBURINPRES/LBTEST> ;
    rdf:_3 <https://w3id.org/cdisc/cosmos/dss/LB/ALBURINPRES/LBCAT> ;
    rdf:_4 <https://w3id.org/cdisc/cosmos/dss/LB/ALBURINPRES/LBORRES> ;
    rdf:_5 <https://w3id.org/cdisc/cosmos/dss/LB/ALBURINPRES/LBSTRESC> ;
    rdf:_6 <https://w3id.org/cdisc/cosmos/dss/LB/ALBURINPRES/LBLOINC> ;
    rdf:_7 <https://w3id.org/cdisc/cosmos/dss/LB/ALBURINPRES/LBSPEC> ;
    rdf:_8 <https://w3id.org/cdisc/cosmos/dss/LB/ALBURINPRES/LBFAST> ;
    rdf:_9 <https://w3id.org/cdisc/cosmos/dss/LB/ALBURINPRES/LBDTC> ;
    cosmos_sdtm:biomedicalConceptId NCIT:C64431 ;
    cosmos_sdtm:domain "LB" ;
    cosmos_sdtm:packageDate "2026-05-26"^^xsd:date ;
    cosmos_sdtm:packageType <https://www.cdisc.org/cosmos/sdtm_v1.0/PackageTypeEnum#sdtm> ;
    cosmos_sdtm:sdtmigStartVersion "3-2" ;
    cosmos_sdtm:shortName "Albumin Presence in Urine" ;
    cosmos_sdtm:source "LB.LBTESTCD" ;
    cosmos_sdtm:variables <https://w3id.org/cdisc/cosmos/dss/LB/ALBURINPRES/LBCAT>,
        <https://w3id.org/cdisc/cosmos/dss/LB/ALBURINPRES/LBDTC>,
        <https://w3id.org/cdisc/cosmos/dss/LB/ALBURINPRES/LBFAST>,
        <https://w3id.org/cdisc/cosmos/dss/LB/ALBURINPRES/LBLOINC>,
        <https://w3id.org/cdisc/cosmos/dss/LB/ALBURINPRES/LBORRES>,
        <https://w3id.org/cdisc/cosmos/dss/LB/ALBURINPRES/LBSPEC>,
        <https://w3id.org/cdisc/cosmos/dss/LB/ALBURINPRES/LBSTRESC>,
        <https://w3id.org/cdisc/cosmos/dss/LB/ALBURINPRES/LBTEST>,
        <https://w3id.org/cdisc/cosmos/dss/LB/ALBURINPRES/LBTESTCD> .

<https://w3id.org/cdisc/cosmos/dss/LB/ALPSERPL> a cosmos_sdtm:SDTMGroup ;
    dcterms:identifier "ALPSERPL" ;
    rdf:_1 <https://w3id.org/cdisc/cosmos/dss/LB/ALPSERPL/LBTESTCD> ;
    rdf:_10 <https://w3id.org/cdisc/cosmos/dss/LB/ALPSERPL/LBSPEC> ;
    rdf:_11 <https://w3id.org/cdisc/cosmos/dss/LB/ALPSERPL/LBFAST> ;
    rdf:_12 <https://w3id.org/cdisc/cosmos/dss/LB/ALPSERPL/LBDTC> ;
    rdf:_2 <https://w3id.org/cdisc/cosmos/dss/LB/ALPSERPL/LBTEST> ;
    rdf:_3 <https://w3id.org/cdisc/cosmos/dss/LB/ALPSERPL/LBCAT> ;
    rdf:_4 <https://w3id.org/cdisc/cosmos/dss/LB/ALPSERPL/LBORRES> ;
    rdf:_5 <https://w3id.org/cdisc/cosmos/dss/LB/ALPSERPL/LBORRESU> ;
    rdf:_6 <https://w3id.org/cdisc/cosmos/dss/LB/ALPSERPL/LBSTRESC> ;
    rdf:_7 <https://w3id.org/cdisc/cosmos/dss/LB/ALPSERPL/LBSTRESN> ;
    rdf:_8 <https://w3id.org/cdisc/cosmos/dss/LB/ALPSERPL/LBSTRESU> ;
    rdf:_9 <https://w3id.org/cdisc/cosmos/dss/LB/ALPSERPL/LBLOINC> ;
    cosmos_sdtm:biomedicalConceptId NCIT:C64432 ;
    cosmos_sdtm:domain "LB" ;
    cosmos_sdtm:packageDate "2026-05-26"^^xsd:date ;
    cosmos_sdtm:packageType <https://www.cdisc.org/cosmos/sdtm_v1.0/PackageTypeEnum#sdtm> ;
    cosmos_sdtm:sdtmigStartVersion "3-2" ;
    cosmos_sdtm:shortName "Alkaline Phosphatase Concentration in Serum or Plasma" ;
    cosmos_sdtm:source "LB.LBTESTCD" ;
    cosmos_sdtm:variables <https://w3id.org/cdisc/cosmos/dss/LB/ALPSERPL/LBCAT>,
        <https://w3id.org/cdisc/cosmos/dss/LB/ALPSERPL/LBDTC>,
        <https://w3id.org/cdisc/cosmos/dss/LB/ALPSERPL/LBFAST>,
        <https://w3id.org/cdisc/cosmos/dss/LB/ALPSERPL/LBLOINC>,
        <https://w3id.org/cdisc/cosmos/dss/LB/ALPSERPL/LBORRES>,
        <https://w3id.org/cdisc/cosmos/dss/LB/ALPSERPL/LBORRESU>,
        <https://w3id.org/cdisc/cosmos/dss/LB/ALPSERPL/LBSPEC>,
        <https://w3id.org/cdisc/cosmos/dss/LB/ALPSERPL/LBSTRESC>,
        <https://w3id.org/cdisc/cosmos/dss/LB/ALPSERPL/LBSTRESN>,
        <https://w3id.org/cdisc/cosmos/dss/LB/ALPSERPL/LBSTRESU>,
        <https://w3id.org/cdisc/cosmos/dss/LB/ALPSERPL/LBTEST>,
        <https://w3id.org/cdisc/cosmos/dss/LB/ALPSERPL/LBTESTCD> .

<https://w3id.org/cdisc/cosmos/dss/LB/ALTSERPL> a cosmos_sdtm:SDTMGroup ;
    dcterms:identifier "ALTSERPL" ;
    rdf:_1 <https://w3id.org/cdisc/cosmos/dss/LB/ALTSERPL/LBTESTCD> ;
    rdf:_10 <https://w3id.org/cdisc/cosmos/dss/LB/ALTSERPL/LBSPEC> ;
    rdf:_11 <https://w3id.org/cdisc/cosmos/dss/LB/ALTSERPL/LBFAST> ;
    rdf:_12 <https://w3id.org/cdisc/cosmos/dss/LB/ALTSERPL/LBDTC> ;
    rdf:_2 <https://w3id.org/cdisc/cosmos/dss/LB/ALTSERPL/LBTEST> ;
    rdf:_3 <https://w3id.org/cdisc/cosmos/dss/LB/ALTSERPL/LBCAT> ;
    rdf:_4 <https://w3id.org/cdisc/cosmos/dss/LB/ALTSERPL/LBORRES> ;
    rdf:_5 <https://w3id.org/cdisc/cosmos/dss/LB/ALTSERPL/LBORRESU> ;
    rdf:_6 <https://w3id.org/cdisc/cosmos/dss/LB/ALTSERPL/LBSTRESC> ;
    rdf:_7 <https://w3id.org/cdisc/cosmos/dss/LB/ALTSERPL/LBSTRESN> ;
    rdf:_8 <https://w3id.org/cdisc/cosmos/dss/LB/ALTSERPL/LBSTRESU> ;
    rdf:_9 <https://w3id.org/cdisc/cosmos/dss/LB/ALTSERPL/LBLOINC> ;
    cosmos_sdtm:biomedicalConceptId NCIT:C64433 ;
    cosmos_sdtm:domain "LB" ;
    cosmos_sdtm:packageDate "2026-05-26"^^xsd:date ;
    cosmos_sdtm:packageType <https://www.cdisc.org/cosmos/sdtm_v1.0/PackageTypeEnum#sdtm> ;
    cosmos_sdtm:sdtmigStartVersion "3-2" ;
    cosmos_sdtm:shortName "Alanine Aminotransferase Concentration in Serum or Plasma" ;
    cosmos_sdtm:source "LB.LBTESTCD" ;
    cosmos_sdtm:variables <https://w3id.org/cdisc/cosmos/dss/LB/ALTSERPL/LBCAT>,
        <https://w3id.org/cdisc/cosmos/dss/LB/ALTSERPL/LBDTC>,
        <https://w3id.org/cdisc/cosmos/dss/LB/ALTSERPL/LBFAST>,
        <https://w3id.org/cdisc/cosmos/dss/LB/ALTSERPL/LBLOINC>,
        <https://w3id.org/cdisc/cosmos/dss/LB/ALTSERPL/LBORRES>,
        <https://w3id.org/cdisc/cosmos/dss/LB/ALTSERPL/LBORRESU>,
        <https://w3id.org/cdisc/cosmos/dss/LB/ALTSERPL/LBSPEC>,
        <https://w3id.org/cdisc/cosmos/dss/LB/ALTSERPL/LBSTRESC>,
        <https://w3id.org/cdisc/cosmos/dss/LB/ALTSERPL/LBSTRESN>,
        <https://w3id.org/cdisc/cosmos/dss/LB/ALTSERPL/LBSTRESU>,
        <https://w3id.org/cdisc/cosmos/dss/LB/ALTSERPL/LBTEST>,
        <https://w3id.org/cdisc/cosmos/dss/LB/ALTSERPL/LBTESTCD> .

<https://w3id.org/cdisc/cosmos/dss/LB/ANGLBINDSERPLPRES> a cosmos_sdtm:SDTMGroup ;
    dcterms:identifier "ANGLBINDSERPLPRES" ;
    rdf:_1 <https://w3id.org/cdisc/cosmos/dss/LB/ANGLBINDSERPLPRES/LBTESTCD> ;
    rdf:_2 <https://w3id.org/cdisc/cosmos/dss/LB/ANGLBINDSERPLPRES/LBTEST> ;
    rdf:_3 <https://w3id.org/cdisc/cosmos/dss/LB/ANGLBINDSERPLPRES/LBCAT> ;
    rdf:_4 <https://w3id.org/cdisc/cosmos/dss/LB/ANGLBINDSERPLPRES/LBORRES> ;
    rdf:_5 <https://w3id.org/cdisc/cosmos/dss/LB/ANGLBINDSERPLPRES/LBSTRESC> ;
    rdf:_6 <https://w3id.org/cdisc/cosmos/dss/LB/ANGLBINDSERPLPRES/LBLOINC> ;
    rdf:_7 <https://w3id.org/cdisc/cosmos/dss/LB/ANGLBINDSERPLPRES/LBSPEC> ;
    rdf:_8 <https://w3id.org/cdisc/cosmos/dss/LB/ANGLBINDSERPLPRES/LBFAST> ;
    rdf:_9 <https://w3id.org/cdisc/cosmos/dss/LB/ANGLBINDSERPLPRES/LBDTC> ;
    cosmos_sdtm:biomedicalConceptId NCIT:C91372 ;
    cosmos_sdtm:domain "LB" ;
    cosmos_sdtm:packageDate "2026-05-26"^^xsd:date ;
    cosmos_sdtm:packageType <https://www.cdisc.org/cosmos/sdtm_v1.0/PackageTypeEnum#sdtm> ;
    cosmos_sdtm:sdtmigStartVersion "3-2" ;
    cosmos_sdtm:shortName "Indirect Antiglobulin Presence in Serum or Plasma" ;
    cosmos_sdtm:source "LB.LBTESTCD" ;
    cosmos_sdtm:variables <https://w3id.org/cdisc/cosmos/dss/LB/ANGLBINDSERPLPRES/LBCAT>,
        <https://w3id.org/cdisc/cosmos/dss/LB/ANGLBINDSERPLPRES/LBDTC>,
        <https://w3id.org/cdisc/cosmos/dss/LB/ANGLBINDSERPLPRES/LBFAST>,
        <https://w3id.org/cdisc/cosmos/dss/LB/ANGLBINDSERPLPRES/LBLOINC>,
        <https://w3id.org/cdisc/cosmos/dss/LB/ANGLBINDSERPLPRES/LBORRES>,
        <https://w3id.org/cdisc/cosmos/dss/LB/ANGLBINDSERPLPRES/LBSPEC>,
        <https://w3id.org/cdisc/cosmos/dss/LB/ANGLBINDSERPLPRES/LBSTRESC>,
        <https://w3id.org/cdisc/cosmos/dss/LB/ANGLBINDSERPLPRES/LBTEST>,
        <https://w3id.org/cdisc/cosmos/dss/LB/ANGLBINDSERPLPRES/LBTESTCD> .

<https://w3id.org/cdisc/cosmos/dss/LB/ANGLOBDRRBCPRES> a cosmos_sdtm:SDTMGroup ;
    dcterms:identifier "ANGLOBDRRBCPRES" ;
    rdf:_1 <https://w3id.org/cdisc/cosmos/dss/LB/ANGLOBDRRBCPRES/LBTESTCD> ;
    rdf:_2 <https://w3id.org/cdisc/cosmos/dss/LB/ANGLOBDRRBCPRES/LBTEST> ;
    rdf:_3 <https://w3id.org/cdisc/cosmos/dss/LB/ANGLOBDRRBCPRES/LBCAT> ;
    rdf:_4 <https://w3id.org/cdisc/cosmos/dss/LB/ANGLOBDRRBCPRES/LBORRES> ;
    rdf:_5 <https://w3id.org/cdisc/cosmos/dss/LB/ANGLOBDRRBCPRES/LBSTRESC> ;
    rdf:_6 <https://w3id.org/cdisc/cosmos/dss/LB/ANGLOBDRRBCPRES/LBLOINC> ;
    rdf:_7 <https://w3id.org/cdisc/cosmos/dss/LB/ANGLOBDRRBCPRES/LBSPEC> ;
    rdf:_8 <https://w3id.org/cdisc/cosmos/dss/LB/ANGLOBDRRBCPRES/LBFAST> ;
    rdf:_9 <https://w3id.org/cdisc/cosmos/dss/LB/ANGLOBDRRBCPRES/LBDTC> ;
    cosmos_sdtm:biomedicalConceptId NCIT:C81974 ;
    cosmos_sdtm:domain "LB" ;
    cosmos_sdtm:packageDate "2026-05-26"^^xsd:date ;
    cosmos_sdtm:packageType <https://www.cdisc.org/cosmos/sdtm_v1.0/PackageTypeEnum#sdtm> ;
    cosmos_sdtm:sdtmigStartVersion "3-2" ;
    cosmos_sdtm:shortName "Direct Angioglobulin Presence in Red Blood Cells" ;
    cosmos_sdtm:source "LB.LBTESTCD" ;
    cosmos_sdtm:variables <https://w3id.org/cdisc/cosmos/dss/LB/ANGLOBDRRBCPRES/LBCAT>,
        <https://w3id.org/cdisc/cosmos/dss/LB/ANGLOBDRRBCPRES/LBDTC>,
        <https://w3id.org/cdisc/cosmos/dss/LB/ANGLOBDRRBCPRES/LBFAST>,
        <https://w3id.org/cdisc/cosmos/dss/LB/ANGLOBDRRBCPRES/LBLOINC>,
        <https://w3id.org/cdisc/cosmos/dss/LB/ANGLOBDRRBCPRES/LBORRES>,
        <https://w3id.org/cdisc/cosmos/dss/LB/ANGLOBDRRBCPRES/LBSPEC>,
        <https://w3id.org/cdisc/cosmos/dss/LB/ANGLOBDRRBCPRES/LBSTRESC>,
        <https://w3id.org/cdisc/cosmos/dss/LB/ANGLOBDRRBCPRES/LBTEST>,
        <https://w3id.org/cdisc/cosmos/dss/LB/ANGLOBDRRBCPRES/LBTESTCD> .

<https://w3id.org/cdisc/cosmos/dss/LB/ANISOBLD> a cosmos_sdtm:SDTMGroup ;
    dcterms:identifier "ANISOBLD" ;
    rdf:_1 <https://w3id.org/cdisc/cosmos/dss/LB/ANISOBLD/LBTESTCD> ;
    rdf:_2 <https://w3id.org/cdisc/cosmos/dss/LB/ANISOBLD/LBTEST> ;
    rdf:_3 <https://w3id.org/cdisc/cosmos/dss/LB/ANISOBLD/LBCAT> ;
    rdf:_4 <https://w3id.org/cdisc/cosmos/dss/LB/ANISOBLD/LBORRES> ;
    rdf:_5 <https://w3id.org/cdisc/cosmos/dss/LB/ANISOBLD/LBSTRESC> ;
    rdf:_6 <https://w3id.org/cdisc/cosmos/dss/LB/ANISOBLD/LBLOINC> ;
    rdf:_7 <https://w3id.org/cdisc/cosmos/dss/LB/ANISOBLD/LBSPEC> ;
    rdf:_8 <https://w3id.org/cdisc/cosmos/dss/LB/ANISOBLD/LBFAST> ;
    rdf:_9 <https://w3id.org/cdisc/cosmos/dss/LB/ANISOBLD/LBDTC> ;
    cosmos_sdtm:biomedicalConceptId NCIT:C74797 ;
    cosmos_sdtm:domain "LB" ;
    cosmos_sdtm:packageDate "2026-05-26"^^xsd:date ;
    cosmos_sdtm:packageType <https://www.cdisc.org/cosmos/sdtm_v1.0/PackageTypeEnum#sdtm> ;
    cosmos_sdtm:sdtmigStartVersion "3-2" ;
    cosmos_sdtm:shortName "Anisocytes in Blood" ;
    cosmos_sdtm:source "LB.LBTESTCD" ;
    cosmos_sdtm:variables <https://w3id.org/cdisc/cosmos/dss/LB/ANISOBLD/LBCAT>,
        <https://w3id.org/cdisc/cosmos/dss/LB/ANISOBLD/LBDTC>,
        <https://w3id.org/cdisc/cosmos/dss/LB/ANISOBLD/LBFAST>,
        <https://w3id.org/cdisc/cosmos/dss/LB/ANISOBLD/LBLOINC>,
        <https://w3id.org/cdisc/cosmos/dss/LB/ANISOBLD/LBORRES>,
        <https://w3id.org/cdisc/cosmos/dss/LB/ANISOBLD/LBSPEC>,
        <https://w3id.org/cdisc/cosmos/dss/LB/ANISOBLD/LBSTRESC>,
        <https://w3id.org/cdisc/cosmos/dss/LB/ANISOBLD/LBTEST>,
        <https://w3id.org/cdisc/cosmos/dss/LB/ANISOBLD/LBTESTCD> .

<https://w3id.org/cdisc/cosmos/dss/LB/APTTBLD> a cosmos_sdtm:SDTMGroup ;
    dcterms:identifier "APTTBLD" ;
    rdf:_1 <https://w3id.org/cdisc/cosmos/dss/LB/APTTBLD/LBTESTCD> ;
    rdf:_10 <https://w3id.org/cdisc/cosmos/dss/LB/APTTBLD/LBSPEC> ;
    rdf:_11 <https://w3id.org/cdisc/cosmos/dss/LB/APTTBLD/LBDTC> ;
    rdf:_2 <https://w3id.org/cdisc/cosmos/dss/LB/APTTBLD/LBTEST> ;
    rdf:_3 <https://w3id.org/cdisc/cosmos/dss/LB/APTTBLD/LBCAT> ;
    rdf:_4 <https://w3id.org/cdisc/cosmos/dss/LB/APTTBLD/LBORRES> ;
    rdf:_5 <https://w3id.org/cdisc/cosmos/dss/LB/APTTBLD/LBORRESU> ;
    rdf:_6 <https://w3id.org/cdisc/cosmos/dss/LB/APTTBLD/LBSTRESC> ;
    rdf:_7 <https://w3id.org/cdisc/cosmos/dss/LB/APTTBLD/LBSTRESN> ;
    rdf:_8 <https://w3id.org/cdisc/cosmos/dss/LB/APTTBLD/LBSTRESU> ;
    rdf:_9 <https://w3id.org/cdisc/cosmos/dss/LB/APTTBLD/LBLOINC> ;
    cosmos_sdtm:biomedicalConceptId NCIT:C38462 ;
    cosmos_sdtm:domain "LB" ;
    cosmos_sdtm:packageDate "2026-05-26"^^xsd:date ;
    cosmos_sdtm:packageType <https://www.cdisc.org/cosmos/sdtm_v1.0/PackageTypeEnum#sdtm> ;
    cosmos_sdtm:sdtmigStartVersion "3-2" ;
    cosmos_sdtm:shortName "Activated Partial Thromboplastin Time in Blood" ;
    cosmos_sdtm:source "LB.LBTESTCD" ;
    cosmos_sdtm:variables <https://w3id.org/cdisc/cosmos/dss/LB/APTTBLD/LBCAT>,
        <https://w3id.org/cdisc/cosmos/dss/LB/APTTBLD/LBDTC>,
        <https://w3id.org/cdisc/cosmos/dss/LB/APTTBLD/LBLOINC>,
        <https://w3id.org/cdisc/cosmos/dss/LB/APTTBLD/LBORRES>,
        <https://w3id.org/cdisc/cosmos/dss/LB/APTTBLD/LBORRESU>,
        <https://w3id.org/cdisc/cosmos/dss/LB/APTTBLD/LBSPEC>,
        <https://w3id.org/cdisc/cosmos/dss/LB/APTTBLD/LBSTRESC>,
        <https://w3id.org/cdisc/cosmos/dss/LB/APTTBLD/LBSTRESN>,
        <https://w3id.org/cdisc/cosmos/dss/LB/APTTBLD/LBSTRESU>,
        <https://w3id.org/cdisc/cosmos/dss/LB/APTTBLD/LBTEST>,
        <https://w3id.org/cdisc/cosmos/dss/LB/APTTBLD/LBTESTCD> .

<https://w3id.org/cdisc/cosmos/dss/LB/APTTPPP> a cosmos_sdtm:SDTMGroup ;
    dcterms:identifier "APTTPPP" ;
    rdf:_1 <https://w3id.org/cdisc/cosmos/dss/LB/APTTPPP/LBTESTCD> ;
    rdf:_10 <https://w3id.org/cdisc/cosmos/dss/LB/APTTPPP/LBSPEC> ;
    rdf:_11 <https://w3id.org/cdisc/cosmos/dss/LB/APTTPPP/LBDTC> ;
    rdf:_2 <https://w3id.org/cdisc/cosmos/dss/LB/APTTPPP/LBTEST> ;
    rdf:_3 <https://w3id.org/cdisc/cosmos/dss/LB/APTTPPP/LBCAT> ;
    rdf:_4 <https://w3id.org/cdisc/cosmos/dss/LB/APTTPPP/LBORRES> ;
    rdf:_5 <https://w3id.org/cdisc/cosmos/dss/LB/APTTPPP/LBORRESU> ;
    rdf:_6 <https://w3id.org/cdisc/cosmos/dss/LB/APTTPPP/LBSTRESC> ;
    rdf:_7 <https://w3id.org/cdisc/cosmos/dss/LB/APTTPPP/LBSTRESN> ;
    rdf:_8 <https://w3id.org/cdisc/cosmos/dss/LB/APTTPPP/LBSTRESU> ;
    rdf:_9 <https://w3id.org/cdisc/cosmos/dss/LB/APTTPPP/LBLOINC> ;
    cosmos_sdtm:biomedicalConceptId NCIT:C38462 ;
    cosmos_sdtm:domain "LB" ;
    cosmos_sdtm:packageDate "2026-05-26"^^xsd:date ;
    cosmos_sdtm:packageType <https://www.cdisc.org/cosmos/sdtm_v1.0/PackageTypeEnum#sdtm> ;
    cosmos_sdtm:sdtmigStartVersion "3-2" ;
    cosmos_sdtm:shortName "Activated Partial Thromboplastin Time in Platelet Poor Plasma" ;
    cosmos_sdtm:source "LB.LBTESTCD" ;
    cosmos_sdtm:variables <https://w3id.org/cdisc/cosmos/dss/LB/APTTPPP/LBCAT>,
        <https://w3id.org/cdisc/cosmos/dss/LB/APTTPPP/LBDTC>,
        <https://w3id.org/cdisc/cosmos/dss/LB/APTTPPP/LBLOINC>,
        <https://w3id.org/cdisc/cosmos/dss/LB/APTTPPP/LBORRES>,
        <https://w3id.org/cdisc/cosmos/dss/LB/APTTPPP/LBORRESU>,
        <https://w3id.org/cdisc/cosmos/dss/LB/APTTPPP/LBSPEC>,
        <https://w3id.org/cdisc/cosmos/dss/LB/APTTPPP/LBSTRESC>,
        <https://w3id.org/cdisc/cosmos/dss/LB/APTTPPP/LBSTRESN>,
        <https://w3id.org/cdisc/cosmos/dss/LB/APTTPPP/LBSTRESU>,
        <https://w3id.org/cdisc/cosmos/dss/LB/APTTPPP/LBTEST>,
        <https://w3id.org/cdisc/cosmos/dss/LB/APTTPPP/LBTESTCD> .

<https://w3id.org/cdisc/cosmos/dss/LB/ASTSERPL> a cosmos_sdtm:SDTMGroup ;
    dcterms:identifier "ASTSERPL" ;
    rdf:_1 <https://w3id.org/cdisc/cosmos/dss/LB/ASTSERPL/LBTESTCD> ;
    rdf:_10 <https://w3id.org/cdisc/cosmos/dss/LB/ASTSERPL/LBSPEC> ;
    rdf:_11 <https://w3id.org/cdisc/cosmos/dss/LB/ASTSERPL/LBFAST> ;
    rdf:_12 <https://w3id.org/cdisc/cosmos/dss/LB/ASTSERPL/LBDTC> ;
    rdf:_2 <https://w3id.org/cdisc/cosmos/dss/LB/ASTSERPL/LBTEST> ;
    rdf:_3 <https://w3id.org/cdisc/cosmos/dss/LB/ASTSERPL/LBCAT> ;
    rdf:_4 <https://w3id.org/cdisc/cosmos/dss/LB/ASTSERPL/LBORRES> ;
    rdf:_5 <https://w3id.org/cdisc/cosmos/dss/LB/ASTSERPL/LBORRESU> ;
    rdf:_6 <https://w3id.org/cdisc/cosmos/dss/LB/ASTSERPL/LBSTRESC> ;
    rdf:_7 <https://w3id.org/cdisc/cosmos/dss/LB/ASTSERPL/LBSTRESN> ;
    rdf:_8 <https://w3id.org/cdisc/cosmos/dss/LB/ASTSERPL/LBSTRESU> ;
    rdf:_9 <https://w3id.org/cdisc/cosmos/dss/LB/ASTSERPL/LBLOINC> ;
    cosmos_sdtm:biomedicalConceptId NCIT:C64467 ;
    cosmos_sdtm:domain "LB" ;
    cosmos_sdtm:packageDate "2026-05-26"^^xsd:date ;
    cosmos_sdtm:packageType <https://www.cdisc.org/cosmos/sdtm_v1.0/PackageTypeEnum#sdtm> ;
    cosmos_sdtm:sdtmigStartVersion "3-2" ;
    cosmos_sdtm:shortName "Aspartate Aminotransferase in Serum or Plasma" ;
    cosmos_sdtm:source "LB.LBTESTCD" ;
    cosmos_sdtm:variables <https://w3id.org/cdisc/cosmos/dss/LB/ASTSERPL/LBCAT>,
        <https://w3id.org/cdisc/cosmos/dss/LB/ASTSERPL/LBDTC>,
        <https://w3id.org/cdisc/cosmos/dss/LB/ASTSERPL/LBFAST>,
        <https://w3id.org/cdisc/cosmos/dss/LB/ASTSERPL/LBLOINC>,
        <https://w3id.org/cdisc/cosmos/dss/LB/ASTSERPL/LBORRES>,
        <https://w3id.org/cdisc/cosmos/dss/LB/ASTSERPL/LBORRESU>,
        <https://w3id.org/cdisc/cosmos/dss/LB/ASTSERPL/LBSPEC>,
        <https://w3id.org/cdisc/cosmos/dss/LB/ASTSERPL/LBSTRESC>,
        <https://w3id.org/cdisc/cosmos/dss/LB/ASTSERPL/LBSTRESN>,
        <https://w3id.org/cdisc/cosmos/dss/LB/ASTSERPL/LBSTRESU>,
        <https://w3id.org/cdisc/cosmos/dss/LB/ASTSERPL/LBTEST>,
        <https://w3id.org/cdisc/cosmos/dss/LB/ASTSERPL/LBTESTCD> .

<https://w3id.org/cdisc/cosmos/dss/LB/BASOBLD> a cosmos_sdtm:SDTMGroup ;
    dcterms:identifier "BASOBLD" ;
    rdf:_1 <https://w3id.org/cdisc/cosmos/dss/LB/BASOBLD/LBTESTCD> ;
    rdf:_10 <https://w3id.org/cdisc/cosmos/dss/LB/BASOBLD/LBSPEC> ;
    rdf:_11 <https://w3id.org/cdisc/cosmos/dss/LB/BASOBLD/LBFAST> ;
    rdf:_12 <https://w3id.org/cdisc/cosmos/dss/LB/BASOBLD/LBDTC> ;
    rdf:_2 <https://w3id.org/cdisc/cosmos/dss/LB/BASOBLD/LBTEST> ;
    rdf:_3 <https://w3id.org/cdisc/cosmos/dss/LB/BASOBLD/LBCAT> ;
    rdf:_4 <https://w3id.org/cdisc/cosmos/dss/LB/BASOBLD/LBORRES> ;
    rdf:_5 <https://w3id.org/cdisc/cosmos/dss/LB/BASOBLD/LBORRESU> ;
    rdf:_6 <https://w3id.org/cdisc/cosmos/dss/LB/BASOBLD/LBSTRESC> ;
    rdf:_7 <https://w3id.org/cdisc/cosmos/dss/LB/BASOBLD/LBSTRESN> ;
    rdf:_8 <https://w3id.org/cdisc/cosmos/dss/LB/BASOBLD/LBSTRESU> ;
    rdf:_9 <https://w3id.org/cdisc/cosmos/dss/LB/BASOBLD/LBLOINC> ;
    cosmos_sdtm:biomedicalConceptId NCIT:C64470 ;
    cosmos_sdtm:domain "LB" ;
    cosmos_sdtm:packageDate "2026-05-26"^^xsd:date ;
    cosmos_sdtm:packageType <https://www.cdisc.org/cosmos/sdtm_v1.0/PackageTypeEnum#sdtm> ;
    cosmos_sdtm:sdtmigStartVersion "3-2" ;
    cosmos_sdtm:shortName "Basophil Count in Blood" ;
    cosmos_sdtm:source "LB.LBTESTCD" ;
    cosmos_sdtm:variables <https://w3id.org/cdisc/cosmos/dss/LB/BASOBLD/LBCAT>,
        <https://w3id.org/cdisc/cosmos/dss/LB/BASOBLD/LBDTC>,
        <https://w3id.org/cdisc/cosmos/dss/LB/BASOBLD/LBFAST>,
        <https://w3id.org/cdisc/cosmos/dss/LB/BASOBLD/LBLOINC>,
        <https://w3id.org/cdisc/cosmos/dss/LB/BASOBLD/LBORRES>,
        <https://w3id.org/cdisc/cosmos/dss/LB/BASOBLD/LBORRESU>,
        <https://w3id.org/cdisc/cosmos/dss/LB/BASOBLD/LBSPEC>,
        <https://w3id.org/cdisc/cosmos/dss/LB/BASOBLD/LBSTRESC>,
        <https://w3id.org/cdisc/cosmos/dss/LB/BASOBLD/LBSTRESN>,
        <https://w3id.org/cdisc/cosmos/dss/LB/BASOBLD/LBSTRESU>,
        <https://w3id.org/cdisc/cosmos/dss/LB/BASOBLD/LBTEST>,
        <https://w3id.org/cdisc/cosmos/dss/LB/BASOBLD/LBTESTCD> .

<https://w3id.org/cdisc/cosmos/dss/LB/BICARBBLD> a cosmos_sdtm:SDTMGroup ;
    dcterms:identifier "BICARBBLD" ;
    rdf:_1 <https://w3id.org/cdisc/cosmos/dss/LB/BICARBBLD/LBTESTCD> ;
    rdf:_10 <https://w3id.org/cdisc/cosmos/dss/LB/BICARBBLD/LBSPEC> ;
    rdf:_11 <https://w3id.org/cdisc/cosmos/dss/LB/BICARBBLD/LBFAST> ;
    rdf:_12 <https://w3id.org/cdisc/cosmos/dss/LB/BICARBBLD/LBDTC> ;
    rdf:_2 <https://w3id.org/cdisc/cosmos/dss/LB/BICARBBLD/LBTEST> ;
    rdf:_3 <https://w3id.org/cdisc/cosmos/dss/LB/BICARBBLD/LBCAT> ;
    rdf:_4 <https://w3id.org/cdisc/cosmos/dss/LB/BICARBBLD/LBORRES> ;
    rdf:_5 <https://w3id.org/cdisc/cosmos/dss/LB/BICARBBLD/LBORRESU> ;
    rdf:_6 <https://w3id.org/cdisc/cosmos/dss/LB/BICARBBLD/LBSTRESC> ;
    rdf:_7 <https://w3id.org/cdisc/cosmos/dss/LB/BICARBBLD/LBSTRESN> ;
    rdf:_8 <https://w3id.org/cdisc/cosmos/dss/LB/BICARBBLD/LBSTRESU> ;
    rdf:_9 <https://w3id.org/cdisc/cosmos/dss/LB/BICARBBLD/LBLOINC> ;
    cosmos_sdtm:biomedicalConceptId NCIT:C74667 ;
    cosmos_sdtm:domain "LB" ;
    cosmos_sdtm:packageDate "2026-05-26"^^xsd:date ;
    cosmos_sdtm:packageType <https://www.cdisc.org/cosmos/sdtm_v1.0/PackageTypeEnum#sdtm> ;
    cosmos_sdtm:sdtmigStartVersion "3-2" ;
    cosmos_sdtm:shortName "Bicarbonate Concentration in Blood" ;
    cosmos_sdtm:source "LB.LBTESTCD" ;
    cosmos_sdtm:variables <https://w3id.org/cdisc/cosmos/dss/LB/BICARBBLD/LBCAT>,
        <https://w3id.org/cdisc/cosmos/dss/LB/BICARBBLD/LBDTC>,
        <https://w3id.org/cdisc/cosmos/dss/LB/BICARBBLD/LBFAST>,
        <https://w3id.org/cdisc/cosmos/dss/LB/BICARBBLD/LBLOINC>,
        <https://w3id.org/cdisc/cosmos/dss/LB/BICARBBLD/LBORRES>,
        <https://w3id.org/cdisc/cosmos/dss/LB/BICARBBLD/LBORRESU>,
        <https://w3id.org/cdisc/cosmos/dss/LB/BICARBBLD/LBSPEC>,
        <https://w3id.org/cdisc/cosmos/dss/LB/BICARBBLD/LBSTRESC>,
        <https://w3id.org/cdisc/cosmos/dss/LB/BICARBBLD/LBSTRESN>,
        <https://w3id.org/cdisc/cosmos/dss/LB/BICARBBLD/LBSTRESU>,
        <https://w3id.org/cdisc/cosmos/dss/LB/BICARBBLD/LBTEST>,
        <https://w3id.org/cdisc/cosmos/dss/LB/BICARBBLD/LBTESTCD> .

<https://w3id.org/cdisc/cosmos/dss/LB/BILDIRSERPL> a cosmos_sdtm:SDTMGroup ;
    dcterms:identifier "BILDIRSERPL" ;
    rdf:_1 <https://w3id.org/cdisc/cosmos/dss/LB/BILDIRSERPL/LBTESTCD> ;
    rdf:_10 <https://w3id.org/cdisc/cosmos/dss/LB/BILDIRSERPL/LBSPEC> ;
    rdf:_11 <https://w3id.org/cdisc/cosmos/dss/LB/BILDIRSERPL/LBFAST> ;
    rdf:_12 <https://w3id.org/cdisc/cosmos/dss/LB/BILDIRSERPL/LBDTC> ;
    rdf:_2 <https://w3id.org/cdisc/cosmos/dss/LB/BILDIRSERPL/LBTEST> ;
    rdf:_3 <https://w3id.org/cdisc/cosmos/dss/LB/BILDIRSERPL/LBCAT> ;
    rdf:_4 <https://w3id.org/cdisc/cosmos/dss/LB/BILDIRSERPL/LBORRES> ;
    rdf:_5 <https://w3id.org/cdisc/cosmos/dss/LB/BILDIRSERPL/LBORRESU> ;
    rdf:_6 <https://w3id.org/cdisc/cosmos/dss/LB/BILDIRSERPL/LBSTRESC> ;
    rdf:_7 <https://w3id.org/cdisc/cosmos/dss/LB/BILDIRSERPL/LBSTRESN> ;
    rdf:_8 <https://w3id.org/cdisc/cosmos/dss/LB/BILDIRSERPL/LBSTRESU> ;
    rdf:_9 <https://w3id.org/cdisc/cosmos/dss/LB/BILDIRSERPL/LBLOINC> ;
    cosmos_sdtm:biomedicalConceptId NCIT:C64481 ;
    cosmos_sdtm:domain "LB" ;
    cosmos_sdtm:packageDate "2026-05-26"^^xsd:date ;
    cosmos_sdtm:packageType <https://www.cdisc.org/cosmos/sdtm_v1.0/PackageTypeEnum#sdtm> ;
    cosmos_sdtm:sdtmigStartVersion "3-2" ;
    cosmos_sdtm:shortName "Direct Bilirubin Concentration in Serum or Plasma" ;
    cosmos_sdtm:source "LB.LBTESTCD" ;
    cosmos_sdtm:variables <https://w3id.org/cdisc/cosmos/dss/LB/BILDIRSERPL/LBCAT>,
        <https://w3id.org/cdisc/cosmos/dss/LB/BILDIRSERPL/LBDTC>,
        <https://w3id.org/cdisc/cosmos/dss/LB/BILDIRSERPL/LBFAST>,
        <https://w3id.org/cdisc/cosmos/dss/LB/BILDIRSERPL/LBLOINC>,
        <https://w3id.org/cdisc/cosmos/dss/LB/BILDIRSERPL/LBORRES>,
        <https://w3id.org/cdisc/cosmos/dss/LB/BILDIRSERPL/LBORRESU>,
        <https://w3id.org/cdisc/cosmos/dss/LB/BILDIRSERPL/LBSPEC>,
        <https://w3id.org/cdisc/cosmos/dss/LB/BILDIRSERPL/LBSTRESC>,
        <https://w3id.org/cdisc/cosmos/dss/LB/BILDIRSERPL/LBSTRESN>,
        <https://w3id.org/cdisc/cosmos/dss/LB/BILDIRSERPL/LBSTRESU>,
        <https://w3id.org/cdisc/cosmos/dss/LB/BILDIRSERPL/LBTEST>,
        <https://w3id.org/cdisc/cosmos/dss/LB/BILDIRSERPL/LBTESTCD> .

<https://w3id.org/cdisc/cosmos/dss/LB/BILISERPL> a cosmos_sdtm:SDTMGroup ;
    dcterms:identifier "BILISERPL" ;
    rdf:_1 <https://w3id.org/cdisc/cosmos/dss/LB/BILISERPL/LBTESTCD> ;
    rdf:_10 <https://w3id.org/cdisc/cosmos/dss/LB/BILISERPL/LBSPEC> ;
    rdf:_11 <https://w3id.org/cdisc/cosmos/dss/LB/BILISERPL/LBFAST> ;
    rdf:_12 <https://w3id.org/cdisc/cosmos/dss/LB/BILISERPL/LBDTC> ;
    rdf:_2 <https://w3id.org/cdisc/cosmos/dss/LB/BILISERPL/LBTEST> ;
    rdf:_3 <https://w3id.org/cdisc/cosmos/dss/LB/BILISERPL/LBCAT> ;
    rdf:_4 <https://w3id.org/cdisc/cosmos/dss/LB/BILISERPL/LBORRES> ;
    rdf:_5 <https://w3id.org/cdisc/cosmos/dss/LB/BILISERPL/LBORRESU> ;
    rdf:_6 <https://w3id.org/cdisc/cosmos/dss/LB/BILISERPL/LBSTRESC> ;
    rdf:_7 <https://w3id.org/cdisc/cosmos/dss/LB/BILISERPL/LBSTRESN> ;
    rdf:_8 <https://w3id.org/cdisc/cosmos/dss/LB/BILISERPL/LBSTRESU> ;
    rdf:_9 <https://w3id.org/cdisc/cosmos/dss/LB/BILISERPL/LBLOINC> ;
    cosmos_sdtm:biomedicalConceptId NCIT:C38037 ;
    cosmos_sdtm:domain "LB" ;
    cosmos_sdtm:packageDate "2026-05-26"^^xsd:date ;
    cosmos_sdtm:packageType <https://www.cdisc.org/cosmos/sdtm_v1.0/PackageTypeEnum#sdtm> ;
    cosmos_sdtm:sdtmigStartVersion "3-2" ;
    cosmos_sdtm:shortName "Bilirubin Concentration in Serum or Plasma" ;
    cosmos_sdtm:source "LB.LBTESTCD" ;
    cosmos_sdtm:variables <https://w3id.org/cdisc/cosmos/dss/LB/BILISERPL/LBCAT>,
        <https://w3id.org/cdisc/cosmos/dss/LB/BILISERPL/LBDTC>,
        <https://w3id.org/cdisc/cosmos/dss/LB/BILISERPL/LBFAST>,
        <https://w3id.org/cdisc/cosmos/dss/LB/BILISERPL/LBLOINC>,
        <https://w3id.org/cdisc/cosmos/dss/LB/BILISERPL/LBORRES>,
        <https://w3id.org/cdisc/cosmos/dss/LB/BILISERPL/LBORRESU>,
        <https://w3id.org/cdisc/cosmos/dss/LB/BILISERPL/LBSPEC>,
        <https://w3id.org/cdisc/cosmos/dss/LB/BILISERPL/LBSTRESC>,
        <https://w3id.org/cdisc/cosmos/dss/LB/BILISERPL/LBSTRESN>,
        <https://w3id.org/cdisc/cosmos/dss/LB/BILISERPL/LBSTRESU>,
        <https://w3id.org/cdisc/cosmos/dss/LB/BILISERPL/LBTEST>,
        <https://w3id.org/cdisc/cosmos/dss/LB/BILISERPL/LBTESTCD> .

<https://w3id.org/cdisc/cosmos/dss/LB/BILIURIN> a cosmos_sdtm:SDTMGroup ;
    dcterms:identifier "BILIURIN" ;
    rdf:_1 <https://w3id.org/cdisc/cosmos/dss/LB/BILIURIN/LBTESTCD> ;
    rdf:_10 <https://w3id.org/cdisc/cosmos/dss/LB/BILIURIN/LBSPEC> ;
    rdf:_11 <https://w3id.org/cdisc/cosmos/dss/LB/BILIURIN/LBFAST> ;
    rdf:_12 <https://w3id.org/cdisc/cosmos/dss/LB/BILIURIN/LBDTC> ;
    rdf:_2 <https://w3id.org/cdisc/cosmos/dss/LB/BILIURIN/LBTEST> ;
    rdf:_3 <https://w3id.org/cdisc/cosmos/dss/LB/BILIURIN/LBCAT> ;
    rdf:_4 <https://w3id.org/cdisc/cosmos/dss/LB/BILIURIN/LBORRES> ;
    rdf:_5 <https://w3id.org/cdisc/cosmos/dss/LB/BILIURIN/LBORRESU> ;
    rdf:_6 <https://w3id.org/cdisc/cosmos/dss/LB/BILIURIN/LBSTRESC> ;
    rdf:_7 <https://w3id.org/cdisc/cosmos/dss/LB/BILIURIN/LBSTRESN> ;
    rdf:_8 <https://w3id.org/cdisc/cosmos/dss/LB/BILIURIN/LBSTRESU> ;
    rdf:_9 <https://w3id.org/cdisc/cosmos/dss/LB/BILIURIN/LBLOINC> ;
    cosmos_sdtm:biomedicalConceptId NCIT:C38037 ;
    cosmos_sdtm:domain "LB" ;
    cosmos_sdtm:packageDate "2026-05-26"^^xsd:date ;
    cosmos_sdtm:packageType <https://www.cdisc.org/cosmos/sdtm_v1.0/PackageTypeEnum#sdtm> ;
    cosmos_sdtm:sdtmigStartVersion "3-2" ;
    cosmos_sdtm:shortName "Bilirubin Concentration in Urine" ;
    cosmos_sdtm:source "LB.LBTESTCD" ;
    cosmos_sdtm:variables <https://w3id.org/cdisc/cosmos/dss/LB/BILIURIN/LBCAT>,
        <https://w3id.org/cdisc/cosmos/dss/LB/BILIURIN/LBDTC>,
        <https://w3id.org/cdisc/cosmos/dss/LB/BILIURIN/LBFAST>,
        <https://w3id.org/cdisc/cosmos/dss/LB/BILIURIN/LBLOINC>,
        <https://w3id.org/cdisc/cosmos/dss/LB/BILIURIN/LBORRES>,
        <https://w3id.org/cdisc/cosmos/dss/LB/BILIURIN/LBORRESU>,
        <https://w3id.org/cdisc/cosmos/dss/LB/BILIURIN/LBSPEC>,
        <https://w3id.org/cdisc/cosmos/dss/LB/BILIURIN/LBSTRESC>,
        <https://w3id.org/cdisc/cosmos/dss/LB/BILIURIN/LBSTRESN>,
        <https://w3id.org/cdisc/cosmos/dss/LB/BILIURIN/LBSTRESU>,
        <https://w3id.org/cdisc/cosmos/dss/LB/BILIURIN/LBTEST>,
        <https://w3id.org/cdisc/cosmos/dss/LB/BILIURIN/LBTESTCD> .

<https://w3id.org/cdisc/cosmos/dss/LB/BILIURINPRES> a cosmos_sdtm:SDTMGroup ;
    dcterms:identifier "BILIURINPRES" ;
    rdf:_1 <https://w3id.org/cdisc/cosmos/dss/LB/BILIURINPRES/LBTESTCD> ;
    rdf:_2 <https://w3id.org/cdisc/cosmos/dss/LB/BILIURINPRES/LBTEST> ;
    rdf:_3 <https://w3id.org/cdisc/cosmos/dss/LB/BILIURINPRES/LBCAT> ;
    rdf:_4 <https://w3id.org/cdisc/cosmos/dss/LB/BILIURINPRES/LBORRES> ;
    rdf:_5 <https://w3id.org/cdisc/cosmos/dss/LB/BILIURINPRES/LBSTRESC> ;
    rdf:_6 <https://w3id.org/cdisc/cosmos/dss/LB/BILIURINPRES/LBLOINC> ;
    rdf:_7 <https://w3id.org/cdisc/cosmos/dss/LB/BILIURINPRES/LBSPEC> ;
    rdf:_8 <https://w3id.org/cdisc/cosmos/dss/LB/BILIURINPRES/LBFAST> ;
    rdf:_9 <https://w3id.org/cdisc/cosmos/dss/LB/BILIURINPRES/LBDTC> ;
    cosmos_sdtm:biomedicalConceptId NCIT:C38037 ;
    cosmos_sdtm:domain "LB" ;
    cosmos_sdtm:packageDate "2026-05-26"^^xsd:date ;
    cosmos_sdtm:packageType <https://www.cdisc.org/cosmos/sdtm_v1.0/PackageTypeEnum#sdtm> ;
    cosmos_sdtm:sdtmigStartVersion "3-2" ;
    cosmos_sdtm:shortName "Bilirubin Presence in Urine" ;
    cosmos_sdtm:source "LB.LBTESTCD" ;
    cosmos_sdtm:variables <https://w3id.org/cdisc/cosmos/dss/LB/BILIURINPRES/LBCAT>,
        <https://w3id.org/cdisc/cosmos/dss/LB/BILIURINPRES/LBDTC>,
        <https://w3id.org/cdisc/cosmos/dss/LB/BILIURINPRES/LBFAST>,
        <https://w3id.org/cdisc/cosmos/dss/LB/BILIURINPRES/LBLOINC>,
        <https://w3id.org/cdisc/cosmos/dss/LB/BILIURINPRES/LBORRES>,
        <https://w3id.org/cdisc/cosmos/dss/LB/BILIURINPRES/LBSPEC>,
        <https://w3id.org/cdisc/cosmos/dss/LB/BILIURINPRES/LBSTRESC>,
        <https://w3id.org/cdisc/cosmos/dss/LB/BILIURINPRES/LBTEST>,
        <https://w3id.org/cdisc/cosmos/dss/LB/BILIURINPRES/LBTESTCD> .

<https://w3id.org/cdisc/cosmos/dss/LB/BLYCEBLD> a cosmos_sdtm:SDTMGroup ;
    dcterms:identifier "BLYCEBLD" ;
    rdf:_1 <https://w3id.org/cdisc/cosmos/dss/LB/BLYCEBLD/LBTESTCD> ;
    rdf:_10 <https://w3id.org/cdisc/cosmos/dss/LB/BLYCEBLD/LBSPEC> ;
    rdf:_11 <https://w3id.org/cdisc/cosmos/dss/LB/BLYCEBLD/LBFAST> ;
    rdf:_12 <https://w3id.org/cdisc/cosmos/dss/LB/BLYCEBLD/LBDTC> ;
    rdf:_2 <https://w3id.org/cdisc/cosmos/dss/LB/BLYCEBLD/LBTEST> ;
    rdf:_3 <https://w3id.org/cdisc/cosmos/dss/LB/BLYCEBLD/LBCAT> ;
    rdf:_4 <https://w3id.org/cdisc/cosmos/dss/LB/BLYCEBLD/LBORRES> ;
    rdf:_5 <https://w3id.org/cdisc/cosmos/dss/LB/BLYCEBLD/LBORRESU> ;
    rdf:_6 <https://w3id.org/cdisc/cosmos/dss/LB/BLYCEBLD/LBSTRESC> ;
    rdf:_7 <https://w3id.org/cdisc/cosmos/dss/LB/BLYCEBLD/LBSTRESN> ;
    rdf:_8 <https://w3id.org/cdisc/cosmos/dss/LB/BLYCEBLD/LBSTRESU> ;
    rdf:_9 <https://w3id.org/cdisc/cosmos/dss/LB/BLYCEBLD/LBLOINC> ;
    cosmos_sdtm:biomedicalConceptId NCIT:C174314 ;
    cosmos_sdtm:domain "LB" ;
    cosmos_sdtm:packageDate "2026-05-26"^^xsd:date ;
    cosmos_sdtm:packageType <https://www.cdisc.org/cosmos/sdtm_v1.0/PackageTypeEnum#sdtm> ;
    cosmos_sdtm:sdtmigStartVersion "3-2" ;
    cosmos_sdtm:shortName "B-Lymphocytes in Blood" ;
    cosmos_sdtm:source "LB.LBTESTCD" ;
    cosmos_sdtm:variables <https://w3id.org/cdisc/cosmos/dss/LB/BLYCEBLD/LBCAT>,
        <https://w3id.org/cdisc/cosmos/dss/LB/BLYCEBLD/LBDTC>,
        <https://w3id.org/cdisc/cosmos/dss/LB/BLYCEBLD/LBFAST>,
        <https://w3id.org/cdisc/cosmos/dss/LB/BLYCEBLD/LBLOINC>,
        <https://w3id.org/cdisc/cosmos/dss/LB/BLYCEBLD/LBORRES>,
        <https://w3id.org/cdisc/cosmos/dss/LB/BLYCEBLD/LBORRESU>,
        <https://w3id.org/cdisc/cosmos/dss/LB/BLYCEBLD/LBSPEC>,
        <https://w3id.org/cdisc/cosmos/dss/LB/BLYCEBLD/LBSTRESC>,
        <https://w3id.org/cdisc/cosmos/dss/LB/BLYCEBLD/LBSTRESN>,
        <https://w3id.org/cdisc/cosmos/dss/LB/BLYCEBLD/LBSTRESU>,
        <https://w3id.org/cdisc/cosmos/dss/LB/BLYCEBLD/LBTEST>,
        <https://w3id.org/cdisc/cosmos/dss/LB/BLYCEBLD/LBTESTCD> .

<https://w3id.org/cdisc/cosmos/dss/LB/CABLD> a cosmos_sdtm:SDTMGroup ;
    dcterms:identifier "CABLD" ;
    rdf:_1 <https://w3id.org/cdisc/cosmos/dss/LB/CABLD/LBTESTCD> ;
    rdf:_10 <https://w3id.org/cdisc/cosmos/dss/LB/CABLD/LBSPEC> ;
    rdf:_11 <https://w3id.org/cdisc/cosmos/dss/LB/CABLD/LBFAST> ;
    rdf:_12 <https://w3id.org/cdisc/cosmos/dss/LB/CABLD/LBDTC> ;
    rdf:_2 <https://w3id.org/cdisc/cosmos/dss/LB/CABLD/LBTEST> ;
    rdf:_3 <https://w3id.org/cdisc/cosmos/dss/LB/CABLD/LBCAT> ;
    rdf:_4 <https://w3id.org/cdisc/cosmos/dss/LB/CABLD/LBORRES> ;
    rdf:_5 <https://w3id.org/cdisc/cosmos/dss/LB/CABLD/LBORRESU> ;
    rdf:_6 <https://w3id.org/cdisc/cosmos/dss/LB/CABLD/LBSTRESC> ;
    rdf:_7 <https://w3id.org/cdisc/cosmos/dss/LB/CABLD/LBSTRESN> ;
    rdf:_8 <https://w3id.org/cdisc/cosmos/dss/LB/CABLD/LBSTRESU> ;
    rdf:_9 <https://w3id.org/cdisc/cosmos/dss/LB/CABLD/LBLOINC> ;
    cosmos_sdtm:biomedicalConceptId NCIT:C64488 ;
    cosmos_sdtm:domain "LB" ;
    cosmos_sdtm:packageDate "2026-05-26"^^xsd:date ;
    cosmos_sdtm:packageType <https://www.cdisc.org/cosmos/sdtm_v1.0/PackageTypeEnum#sdtm> ;
    cosmos_sdtm:sdtmigStartVersion "3-2" ;
    cosmos_sdtm:shortName "Calcium Concentration in Blood" ;
    cosmos_sdtm:source "LB.LBTESTCD" ;
    cosmos_sdtm:variables <https://w3id.org/cdisc/cosmos/dss/LB/CABLD/LBCAT>,
        <https://w3id.org/cdisc/cosmos/dss/LB/CABLD/LBDTC>,
        <https://w3id.org/cdisc/cosmos/dss/LB/CABLD/LBFAST>,
        <https://w3id.org/cdisc/cosmos/dss/LB/CABLD/LBLOINC>,
        <https://w3id.org/cdisc/cosmos/dss/LB/CABLD/LBORRES>,
        <https://w3id.org/cdisc/cosmos/dss/LB/CABLD/LBORRESU>,
        <https://w3id.org/cdisc/cosmos/dss/LB/CABLD/LBSPEC>,
        <https://w3id.org/cdisc/cosmos/dss/LB/CABLD/LBSTRESC>,
        <https://w3id.org/cdisc/cosmos/dss/LB/CABLD/LBSTRESN>,
        <https://w3id.org/cdisc/cosmos/dss/LB/CABLD/LBSTRESU>,
        <https://w3id.org/cdisc/cosmos/dss/LB/CABLD/LBTEST>,
        <https://w3id.org/cdisc/cosmos/dss/LB/CABLD/LBTESTCD> .

<https://w3id.org/cdisc/cosmos/dss/LB/CARBXHGB> a cosmos_sdtm:SDTMGroup ;
    dcterms:identifier "CARBXHGB" ;
    rdf:_1 <https://w3id.org/cdisc/cosmos/dss/LB/CARBXHGB/LBTESTCD> ;
    rdf:_10 <https://w3id.org/cdisc/cosmos/dss/LB/CARBXHGB/LBSPEC> ;
    rdf:_11 <https://w3id.org/cdisc/cosmos/dss/LB/CARBXHGB/LBDTC> ;
    rdf:_2 <https://w3id.org/cdisc/cosmos/dss/LB/CARBXHGB/LBTEST> ;
    rdf:_3 <https://w3id.org/cdisc/cosmos/dss/LB/CARBXHGB/LBCAT> ;
    rdf:_4 <https://w3id.org/cdisc/cosmos/dss/LB/CARBXHGB/LBORRES> ;
    rdf:_5 <https://w3id.org/cdisc/cosmos/dss/LB/CARBXHGB/LBORRESU> ;
    rdf:_6 <https://w3id.org/cdisc/cosmos/dss/LB/CARBXHGB/LBSTRESC> ;
    rdf:_7 <https://w3id.org/cdisc/cosmos/dss/LB/CARBXHGB/LBSTRESN> ;
    rdf:_8 <https://w3id.org/cdisc/cosmos/dss/LB/CARBXHGB/LBSTRESU> ;
    rdf:_9 <https://w3id.org/cdisc/cosmos/dss/LB/CARBXHGB/LBLOINC> ;
    cosmos_sdtm:biomedicalConceptId NCIT:C96591 ;
    cosmos_sdtm:domain "LB" ;
    cosmos_sdtm:packageDate "2026-05-26"^^xsd:date ;
    cosmos_sdtm:packageType <https://www.cdisc.org/cosmos/sdtm_v1.0/PackageTypeEnum#sdtm> ;
    cosmos_sdtm:sdtmigStartVersion "3-2" ;
    cosmos_sdtm:shortName "Carboxyhemoglobin Concentration in Blood" ;
    cosmos_sdtm:source "LB.LBTESTCD" ;
    cosmos_sdtm:variables <https://w3id.org/cdisc/cosmos/dss/LB/CARBXHGB/LBCAT>,
        <https://w3id.org/cdisc/cosmos/dss/LB/CARBXHGB/LBDTC>,
        <https://w3id.org/cdisc/cosmos/dss/LB/CARBXHGB/LBLOINC>,
        <https://w3id.org/cdisc/cosmos/dss/LB/CARBXHGB/LBORRES>,
        <https://w3id.org/cdisc/cosmos/dss/LB/CARBXHGB/LBORRESU>,
        <https://w3id.org/cdisc/cosmos/dss/LB/CARBXHGB/LBSPEC>,
        <https://w3id.org/cdisc/cosmos/dss/LB/CARBXHGB/LBSTRESC>,
        <https://w3id.org/cdisc/cosmos/dss/LB/CARBXHGB/LBSTRESN>,
        <https://w3id.org/cdisc/cosmos/dss/LB/CARBXHGB/LBSTRESU>,
        <https://w3id.org/cdisc/cosmos/dss/LB/CARBXHGB/LBTEST>,
        <https://w3id.org/cdisc/cosmos/dss/LB/CARBXHGB/LBTESTCD> .

<https://w3id.org/cdisc/cosmos/dss/LB/CASERPL> a cosmos_sdtm:SDTMGroup ;
    dcterms:identifier "CASERPL" ;
    rdf:_1 <https://w3id.org/cdisc/cosmos/dss/LB/CASERPL/LBTESTCD> ;
    rdf:_10 <https://w3id.org/cdisc/cosmos/dss/LB/CASERPL/LBSPEC> ;
    rdf:_11 <https://w3id.org/cdisc/cosmos/dss/LB/CASERPL/LBFAST> ;
    rdf:_12 <https://w3id.org/cdisc/cosmos/dss/LB/CASERPL/LBDTC> ;
    rdf:_2 <https://w3id.org/cdisc/cosmos/dss/LB/CASERPL/LBTEST> ;
    rdf:_3 <https://w3id.org/cdisc/cosmos/dss/LB/CASERPL/LBCAT> ;
    rdf:_4 <https://w3id.org/cdisc/cosmos/dss/LB/CASERPL/LBORRES> ;
    rdf:_5 <https://w3id.org/cdisc/cosmos/dss/LB/CASERPL/LBORRESU> ;
    rdf:_6 <https://w3id.org/cdisc/cosmos/dss/LB/CASERPL/LBSTRESC> ;
    rdf:_7 <https://w3id.org/cdisc/cosmos/dss/LB/CASERPL/LBSTRESN> ;
    rdf:_8 <https://w3id.org/cdisc/cosmos/dss/LB/CASERPL/LBSTRESU> ;
    rdf:_9 <https://w3id.org/cdisc/cosmos/dss/LB/CASERPL/LBLOINC> ;
    cosmos_sdtm:biomedicalConceptId NCIT:C64488 ;
    cosmos_sdtm:domain "LB" ;
    cosmos_sdtm:packageDate "2026-05-26"^^xsd:date ;
    cosmos_sdtm:packageType <https://www.cdisc.org/cosmos/sdtm_v1.0/PackageTypeEnum#sdtm> ;
    cosmos_sdtm:sdtmigStartVersion "3-2" ;
    cosmos_sdtm:shortName "Calcium Concentration in Serum or Plasma" ;
    cosmos_sdtm:source "LB.LBTESTCD" ;
    cosmos_sdtm:variables <https://w3id.org/cdisc/cosmos/dss/LB/CASERPL/LBCAT>,
        <https://w3id.org/cdisc/cosmos/dss/LB/CASERPL/LBDTC>,
        <https://w3id.org/cdisc/cosmos/dss/LB/CASERPL/LBFAST>,
        <https://w3id.org/cdisc/cosmos/dss/LB/CASERPL/LBLOINC>,
        <https://w3id.org/cdisc/cosmos/dss/LB/CASERPL/LBORRES>,
        <https://w3id.org/cdisc/cosmos/dss/LB/CASERPL/LBORRESU>,
        <https://w3id.org/cdisc/cosmos/dss/LB/CASERPL/LBSPEC>,
        <https://w3id.org/cdisc/cosmos/dss/LB/CASERPL/LBSTRESC>,
        <https://w3id.org/cdisc/cosmos/dss/LB/CASERPL/LBSTRESN>,
        <https://w3id.org/cdisc/cosmos/dss/LB/CASERPL/LBSTRESU>,
        <https://w3id.org/cdisc/cosmos/dss/LB/CASERPL/LBTEST>,
        <https://w3id.org/cdisc/cosmos/dss/LB/CASERPL/LBTESTCD> .

<https://w3id.org/cdisc/cosmos/dss/LB/CHOLSERPL> a cosmos_sdtm:SDTMGroup ;
    dcterms:identifier "CHOLSERPL" ;
    rdf:_1 <https://w3id.org/cdisc/cosmos/dss/LB/CHOLSERPL/LBTESTCD> ;
    rdf:_10 <https://w3id.org/cdisc/cosmos/dss/LB/CHOLSERPL/LBSPEC> ;
    rdf:_11 <https://w3id.org/cdisc/cosmos/dss/LB/CHOLSERPL/LBFAST> ;
    rdf:_12 <https://w3id.org/cdisc/cosmos/dss/LB/CHOLSERPL/LBDTC> ;
    rdf:_2 <https://w3id.org/cdisc/cosmos/dss/LB/CHOLSERPL/LBTEST> ;
    rdf:_3 <https://w3id.org/cdisc/cosmos/dss/LB/CHOLSERPL/LBCAT> ;
    rdf:_4 <https://w3id.org/cdisc/cosmos/dss/LB/CHOLSERPL/LBORRES> ;
    rdf:_5 <https://w3id.org/cdisc/cosmos/dss/LB/CHOLSERPL/LBORRESU> ;
    rdf:_6 <https://w3id.org/cdisc/cosmos/dss/LB/CHOLSERPL/LBSTRESC> ;
    rdf:_7 <https://w3id.org/cdisc/cosmos/dss/LB/CHOLSERPL/LBSTRESN> ;
    rdf:_8 <https://w3id.org/cdisc/cosmos/dss/LB/CHOLSERPL/LBSTRESU> ;
    rdf:_9 <https://w3id.org/cdisc/cosmos/dss/LB/CHOLSERPL/LBLOINC> ;
    cosmos_sdtm:biomedicalConceptId NCIT:C105586 ;
    cosmos_sdtm:domain "LB" ;
    cosmos_sdtm:packageDate "2026-05-26"^^xsd:date ;
    cosmos_sdtm:packageType <https://www.cdisc.org/cosmos/sdtm_v1.0/PackageTypeEnum#sdtm> ;
    cosmos_sdtm:sdtmigStartVersion "3-2" ;
    cosmos_sdtm:shortName "Cholesterol in Serum or Plasma" ;
    cosmos_sdtm:source "LB.LBTESTCD" ;
    cosmos_sdtm:variables <https://w3id.org/cdisc/cosmos/dss/LB/CHOLSERPL/LBCAT>,
        <https://w3id.org/cdisc/cosmos/dss/LB/CHOLSERPL/LBDTC>,
        <https://w3id.org/cdisc/cosmos/dss/LB/CHOLSERPL/LBFAST>,
        <https://w3id.org/cdisc/cosmos/dss/LB/CHOLSERPL/LBLOINC>,
        <https://w3id.org/cdisc/cosmos/dss/LB/CHOLSERPL/LBORRES>,
        <https://w3id.org/cdisc/cosmos/dss/LB/CHOLSERPL/LBORRESU>,
        <https://w3id.org/cdisc/cosmos/dss/LB/CHOLSERPL/LBSPEC>,
        <https://w3id.org/cdisc/cosmos/dss/LB/CHOLSERPL/LBSTRESC>,
        <https://w3id.org/cdisc/cosmos/dss/LB/CHOLSERPL/LBSTRESN>,
        <https://w3id.org/cdisc/cosmos/dss/LB/CHOLSERPL/LBSTRESU>,
        <https://w3id.org/cdisc/cosmos/dss/LB/CHOLSERPL/LBTEST>,
        <https://w3id.org/cdisc/cosmos/dss/LB/CHOLSERPL/LBTESTCD> .

<https://w3id.org/cdisc/cosmos/dss/LB/CKBLD> a cosmos_sdtm:SDTMGroup ;
    dcterms:identifier "CKBLD" ;
    rdf:_1 <https://w3id.org/cdisc/cosmos/dss/LB/CKBLD/LBTESTCD> ;
    rdf:_10 <https://w3id.org/cdisc/cosmos/dss/LB/CKBLD/LBSPEC> ;
    rdf:_11 <https://w3id.org/cdisc/cosmos/dss/LB/CKBLD/LBFAST> ;
    rdf:_12 <https://w3id.org/cdisc/cosmos/dss/LB/CKBLD/LBDTC> ;
    rdf:_2 <https://w3id.org/cdisc/cosmos/dss/LB/CKBLD/LBTEST> ;
    rdf:_3 <https://w3id.org/cdisc/cosmos/dss/LB/CKBLD/LBCAT> ;
    rdf:_4 <https://w3id.org/cdisc/cosmos/dss/LB/CKBLD/LBORRES> ;
    rdf:_5 <https://w3id.org/cdisc/cosmos/dss/LB/CKBLD/LBORRESU> ;
    rdf:_6 <https://w3id.org/cdisc/cosmos/dss/LB/CKBLD/LBSTRESC> ;
    rdf:_7 <https://w3id.org/cdisc/cosmos/dss/LB/CKBLD/LBSTRESN> ;
    rdf:_8 <https://w3id.org/cdisc/cosmos/dss/LB/CKBLD/LBSTRESU> ;
    rdf:_9 <https://w3id.org/cdisc/cosmos/dss/LB/CKBLD/LBLOINC> ;
    cosmos_sdtm:biomedicalConceptId NCIT:C64489 ;
    cosmos_sdtm:domain "LB" ;
    cosmos_sdtm:packageDate "2026-05-26"^^xsd:date ;
    cosmos_sdtm:packageType <https://www.cdisc.org/cosmos/sdtm_v1.0/PackageTypeEnum#sdtm> ;
    cosmos_sdtm:sdtmigStartVersion "3-2" ;
    cosmos_sdtm:shortName "Creatine Kinase Concentration in Blood" ;
    cosmos_sdtm:source "LB.LBTESTCD" ;
    cosmos_sdtm:variables <https://w3id.org/cdisc/cosmos/dss/LB/CKBLD/LBCAT>,
        <https://w3id.org/cdisc/cosmos/dss/LB/CKBLD/LBDTC>,
        <https://w3id.org/cdisc/cosmos/dss/LB/CKBLD/LBFAST>,
        <https://w3id.org/cdisc/cosmos/dss/LB/CKBLD/LBLOINC>,
        <https://w3id.org/cdisc/cosmos/dss/LB/CKBLD/LBORRES>,
        <https://w3id.org/cdisc/cosmos/dss/LB/CKBLD/LBORRESU>,
        <https://w3id.org/cdisc/cosmos/dss/LB/CKBLD/LBSPEC>,
        <https://w3id.org/cdisc/cosmos/dss/LB/CKBLD/LBSTRESC>,
        <https://w3id.org/cdisc/cosmos/dss/LB/CKBLD/LBSTRESN>,
        <https://w3id.org/cdisc/cosmos/dss/LB/CKBLD/LBSTRESU>,
        <https://w3id.org/cdisc/cosmos/dss/LB/CKBLD/LBTEST>,
        <https://w3id.org/cdisc/cosmos/dss/LB/CKBLD/LBTESTCD> .

<https://w3id.org/cdisc/cosmos/dss/LB/CKSERPL> a cosmos_sdtm:SDTMGroup ;
    dcterms:identifier "CKSERPL" ;
    rdf:_1 <https://w3id.org/cdisc/cosmos/dss/LB/CKSERPL/LBTESTCD> ;
    rdf:_10 <https://w3id.org/cdisc/cosmos/dss/LB/CKSERPL/LBSPEC> ;
    rdf:_11 <https://w3id.org/cdisc/cosmos/dss/LB/CKSERPL/LBFAST> ;
    rdf:_12 <https://w3id.org/cdisc/cosmos/dss/LB/CKSERPL/LBDTC> ;
    rdf:_2 <https://w3id.org/cdisc/cosmos/dss/LB/CKSERPL/LBTEST> ;
    rdf:_3 <https://w3id.org/cdisc/cosmos/dss/LB/CKSERPL/LBCAT> ;
    rdf:_4 <https://w3id.org/cdisc/cosmos/dss/LB/CKSERPL/LBORRES> ;
    rdf:_5 <https://w3id.org/cdisc/cosmos/dss/LB/CKSERPL/LBORRESU> ;
    rdf:_6 <https://w3id.org/cdisc/cosmos/dss/LB/CKSERPL/LBSTRESC> ;
    rdf:_7 <https://w3id.org/cdisc/cosmos/dss/LB/CKSERPL/LBSTRESN> ;
    rdf:_8 <https://w3id.org/cdisc/cosmos/dss/LB/CKSERPL/LBSTRESU> ;
    rdf:_9 <https://w3id.org/cdisc/cosmos/dss/LB/CKSERPL/LBLOINC> ;
    cosmos_sdtm:biomedicalConceptId NCIT:C64489 ;
    cosmos_sdtm:domain "LB" ;
    cosmos_sdtm:packageDate "2026-05-26"^^xsd:date ;
    cosmos_sdtm:packageType <https://www.cdisc.org/cosmos/sdtm_v1.0/PackageTypeEnum#sdtm> ;
    cosmos_sdtm:sdtmigStartVersion "3-2" ;
    cosmos_sdtm:shortName "Creatine Kinase Concentration in Serum or Plasma" ;
    cosmos_sdtm:source "LB.LBTESTCD" ;
    cosmos_sdtm:variables <https://w3id.org/cdisc/cosmos/dss/LB/CKSERPL/LBCAT>,
        <https://w3id.org/cdisc/cosmos/dss/LB/CKSERPL/LBDTC>,
        <https://w3id.org/cdisc/cosmos/dss/LB/CKSERPL/LBFAST>,
        <https://w3id.org/cdisc/cosmos/dss/LB/CKSERPL/LBLOINC>,
        <https://w3id.org/cdisc/cosmos/dss/LB/CKSERPL/LBORRES>,
        <https://w3id.org/cdisc/cosmos/dss/LB/CKSERPL/LBORRESU>,
        <https://w3id.org/cdisc/cosmos/dss/LB/CKSERPL/LBSPEC>,
        <https://w3id.org/cdisc/cosmos/dss/LB/CKSERPL/LBSTRESC>,
        <https://w3id.org/cdisc/cosmos/dss/LB/CKSERPL/LBSTRESN>,
        <https://w3id.org/cdisc/cosmos/dss/LB/CKSERPL/LBSTRESU>,
        <https://w3id.org/cdisc/cosmos/dss/LB/CKSERPL/LBTEST>,
        <https://w3id.org/cdisc/cosmos/dss/LB/CKSERPL/LBTESTCD> .

<https://w3id.org/cdisc/cosmos/dss/LB/CLBLD> a cosmos_sdtm:SDTMGroup ;
    dcterms:identifier "CLBLD" ;
    rdf:_1 <https://w3id.org/cdisc/cosmos/dss/LB/CLBLD/LBTESTCD> ;
    rdf:_10 <https://w3id.org/cdisc/cosmos/dss/LB/CLBLD/LBSPEC> ;
    rdf:_11 <https://w3id.org/cdisc/cosmos/dss/LB/CLBLD/LBFAST> ;
    rdf:_12 <https://w3id.org/cdisc/cosmos/dss/LB/CLBLD/LBDTC> ;
    rdf:_2 <https://w3id.org/cdisc/cosmos/dss/LB/CLBLD/LBTEST> ;
    rdf:_3 <https://w3id.org/cdisc/cosmos/dss/LB/CLBLD/LBCAT> ;
    rdf:_4 <https://w3id.org/cdisc/cosmos/dss/LB/CLBLD/LBORRES> ;
    rdf:_5 <https://w3id.org/cdisc/cosmos/dss/LB/CLBLD/LBORRESU> ;
    rdf:_6 <https://w3id.org/cdisc/cosmos/dss/LB/CLBLD/LBSTRESC> ;
    rdf:_7 <https://w3id.org/cdisc/cosmos/dss/LB/CLBLD/LBSTRESN> ;
    rdf:_8 <https://w3id.org/cdisc/cosmos/dss/LB/CLBLD/LBSTRESU> ;
    rdf:_9 <https://w3id.org/cdisc/cosmos/dss/LB/CLBLD/LBLOINC> ;
    cosmos_sdtm:biomedicalConceptId NCIT:C64495 ;
    cosmos_sdtm:domain "LB" ;
    cosmos_sdtm:packageDate "2026-05-26"^^xsd:date ;
    cosmos_sdtm:packageType <https://www.cdisc.org/cosmos/sdtm_v1.0/PackageTypeEnum#sdtm> ;
    cosmos_sdtm:sdtmigStartVersion "3-2" ;
    cosmos_sdtm:shortName "Chloride Concentration in Blood" ;
    cosmos_sdtm:source "LB.LBTESTCD" ;
    cosmos_sdtm:variables <https://w3id.org/cdisc/cosmos/dss/LB/CLBLD/LBCAT>,
        <https://w3id.org/cdisc/cosmos/dss/LB/CLBLD/LBDTC>,
        <https://w3id.org/cdisc/cosmos/dss/LB/CLBLD/LBFAST>,
        <https://w3id.org/cdisc/cosmos/dss/LB/CLBLD/LBLOINC>,
        <https://w3id.org/cdisc/cosmos/dss/LB/CLBLD/LBORRES>,
        <https://w3id.org/cdisc/cosmos/dss/LB/CLBLD/LBORRESU>,
        <https://w3id.org/cdisc/cosmos/dss/LB/CLBLD/LBSPEC>,
        <https://w3id.org/cdisc/cosmos/dss/LB/CLBLD/LBSTRESC>,
        <https://w3id.org/cdisc/cosmos/dss/LB/CLBLD/LBSTRESN>,
        <https://w3id.org/cdisc/cosmos/dss/LB/CLBLD/LBSTRESU>,
        <https://w3id.org/cdisc/cosmos/dss/LB/CLBLD/LBTEST>,
        <https://w3id.org/cdisc/cosmos/dss/LB/CLBLD/LBTESTCD> .

<https://w3id.org/cdisc/cosmos/dss/LB/CLSERPL> a cosmos_sdtm:SDTMGroup ;
    dcterms:identifier "CLSERPL" ;
    rdf:_1 <https://w3id.org/cdisc/cosmos/dss/LB/CLSERPL/LBTESTCD> ;
    rdf:_10 <https://w3id.org/cdisc/cosmos/dss/LB/CLSERPL/LBSPEC> ;
    rdf:_11 <https://w3id.org/cdisc/cosmos/dss/LB/CLSERPL/LBFAST> ;
    rdf:_12 <https://w3id.org/cdisc/cosmos/dss/LB/CLSERPL/LBDTC> ;
    rdf:_2 <https://w3id.org/cdisc/cosmos/dss/LB/CLSERPL/LBTEST> ;
    rdf:_3 <https://w3id.org/cdisc/cosmos/dss/LB/CLSERPL/LBCAT> ;
    rdf:_4 <https://w3id.org/cdisc/cosmos/dss/LB/CLSERPL/LBORRES> ;
    rdf:_5 <https://w3id.org/cdisc/cosmos/dss/LB/CLSERPL/LBORRESU> ;
    rdf:_6 <https://w3id.org/cdisc/cosmos/dss/LB/CLSERPL/LBSTRESC> ;
    rdf:_7 <https://w3id.org/cdisc/cosmos/dss/LB/CLSERPL/LBSTRESN> ;
    rdf:_8 <https://w3id.org/cdisc/cosmos/dss/LB/CLSERPL/LBSTRESU> ;
    rdf:_9 <https://w3id.org/cdisc/cosmos/dss/LB/CLSERPL/LBLOINC> ;
    cosmos_sdtm:biomedicalConceptId NCIT:C64495 ;
    cosmos_sdtm:domain "LB" ;
    cosmos_sdtm:packageDate "2026-05-26"^^xsd:date ;
    cosmos_sdtm:packageType <https://www.cdisc.org/cosmos/sdtm_v1.0/PackageTypeEnum#sdtm> ;
    cosmos_sdtm:sdtmigStartVersion "3-2" ;
    cosmos_sdtm:shortName "Chloride Concentration in Serum or Plasma" ;
    cosmos_sdtm:source "LB.LBTESTCD" ;
    cosmos_sdtm:variables <https://w3id.org/cdisc/cosmos/dss/LB/CLSERPL/LBCAT>,
        <https://w3id.org/cdisc/cosmos/dss/LB/CLSERPL/LBDTC>,
        <https://w3id.org/cdisc/cosmos/dss/LB/CLSERPL/LBFAST>,
        <https://w3id.org/cdisc/cosmos/dss/LB/CLSERPL/LBLOINC>,
        <https://w3id.org/cdisc/cosmos/dss/LB/CLSERPL/LBORRES>,
        <https://w3id.org/cdisc/cosmos/dss/LB/CLSERPL/LBORRESU>,
        <https://w3id.org/cdisc/cosmos/dss/LB/CLSERPL/LBSPEC>,
        <https://w3id.org/cdisc/cosmos/dss/LB/CLSERPL/LBSTRESC>,
        <https://w3id.org/cdisc/cosmos/dss/LB/CLSERPL/LBSTRESN>,
        <https://w3id.org/cdisc/cosmos/dss/LB/CLSERPL/LBSTRESU>,
        <https://w3id.org/cdisc/cosmos/dss/LB/CLSERPL/LBTEST>,
        <https://w3id.org/cdisc/cosmos/dss/LB/CLSERPL/LBTESTCD> .

<https://w3id.org/cdisc/cosmos/dss/LB/CMONOXBLD> a cosmos_sdtm:SDTMGroup ;
    dcterms:identifier "CMONOXBLD" ;
    rdf:_1 <https://w3id.org/cdisc/cosmos/dss/LB/CMONOXBLD/LBTESTCD> ;
    rdf:_10 <https://w3id.org/cdisc/cosmos/dss/LB/CMONOXBLD/LBSPEC> ;
    rdf:_11 <https://w3id.org/cdisc/cosmos/dss/LB/CMONOXBLD/LBDTC> ;
    rdf:_2 <https://w3id.org/cdisc/cosmos/dss/LB/CMONOXBLD/LBTEST> ;
    rdf:_3 <https://w3id.org/cdisc/cosmos/dss/LB/CMONOXBLD/LBCAT> ;
    rdf:_4 <https://w3id.org/cdisc/cosmos/dss/LB/CMONOXBLD/LBORRES> ;
    rdf:_5 <https://w3id.org/cdisc/cosmos/dss/LB/CMONOXBLD/LBORRESU> ;
    rdf:_6 <https://w3id.org/cdisc/cosmos/dss/LB/CMONOXBLD/LBSTRESC> ;
    rdf:_7 <https://w3id.org/cdisc/cosmos/dss/LB/CMONOXBLD/LBSTRESN> ;
    rdf:_8 <https://w3id.org/cdisc/cosmos/dss/LB/CMONOXBLD/LBSTRESU> ;
    rdf:_9 <https://w3id.org/cdisc/cosmos/dss/LB/CMONOXBLD/LBLOINC> ;
    cosmos_sdtm:biomedicalConceptId NCIT:C139084 ;
    cosmos_sdtm:domain "LB" ;
    cosmos_sdtm:packageDate "2026-05-26"^^xsd:date ;
    cosmos_sdtm:packageType <https://www.cdisc.org/cosmos/sdtm_v1.0/PackageTypeEnum#sdtm> ;
    cosmos_sdtm:sdtmigStartVersion "3-2" ;
    cosmos_sdtm:shortName "Carbon Monoxide Concentration in Blood" ;
    cosmos_sdtm:source "LB.LBTESTCD" ;
    cosmos_sdtm:variables <https://w3id.org/cdisc/cosmos/dss/LB/CMONOXBLD/LBCAT>,
        <https://w3id.org/cdisc/cosmos/dss/LB/CMONOXBLD/LBDTC>,
        <https://w3id.org/cdisc/cosmos/dss/LB/CMONOXBLD/LBLOINC>,
        <https://w3id.org/cdisc/cosmos/dss/LB/CMONOXBLD/LBORRES>,
        <https://w3id.org/cdisc/cosmos/dss/LB/CMONOXBLD/LBORRESU>,
        <https://w3id.org/cdisc/cosmos/dss/LB/CMONOXBLD/LBSPEC>,
        <https://w3id.org/cdisc/cosmos/dss/LB/CMONOXBLD/LBSTRESC>,
        <https://w3id.org/cdisc/cosmos/dss/LB/CMONOXBLD/LBSTRESN>,
        <https://w3id.org/cdisc/cosmos/dss/LB/CMONOXBLD/LBSTRESU>,
        <https://w3id.org/cdisc/cosmos/dss/LB/CMONOXBLD/LBTEST>,
        <https://w3id.org/cdisc/cosmos/dss/LB/CMONOXBLD/LBTESTCD> .

<https://w3id.org/cdisc/cosmos/dss/LB/CMONOXEXPAIR> a cosmos_sdtm:SDTMGroup ;
    dcterms:identifier "CMONOXEXPAIR" ;
    rdf:_1 <https://w3id.org/cdisc/cosmos/dss/LB/CMONOXEXPAIR/LBTESTCD> ;
    rdf:_10 <https://w3id.org/cdisc/cosmos/dss/LB/CMONOXEXPAIR/LBSPEC> ;
    rdf:_11 <https://w3id.org/cdisc/cosmos/dss/LB/CMONOXEXPAIR/LBDTC> ;
    rdf:_2 <https://w3id.org/cdisc/cosmos/dss/LB/CMONOXEXPAIR/LBTEST> ;
    rdf:_3 <https://w3id.org/cdisc/cosmos/dss/LB/CMONOXEXPAIR/LBCAT> ;
    rdf:_4 <https://w3id.org/cdisc/cosmos/dss/LB/CMONOXEXPAIR/LBORRES> ;
    rdf:_5 <https://w3id.org/cdisc/cosmos/dss/LB/CMONOXEXPAIR/LBORRESU> ;
    rdf:_6 <https://w3id.org/cdisc/cosmos/dss/LB/CMONOXEXPAIR/LBSTRESC> ;
    rdf:_7 <https://w3id.org/cdisc/cosmos/dss/LB/CMONOXEXPAIR/LBSTRESN> ;
    rdf:_8 <https://w3id.org/cdisc/cosmos/dss/LB/CMONOXEXPAIR/LBSTRESU> ;
    rdf:_9 <https://w3id.org/cdisc/cosmos/dss/LB/CMONOXEXPAIR/LBLOINC> ;
    cosmos_sdtm:biomedicalConceptId NCIT:C139084 ;
    cosmos_sdtm:domain "LB" ;
    cosmos_sdtm:packageDate "2026-05-26"^^xsd:date ;
    cosmos_sdtm:packageType <https://www.cdisc.org/cosmos/sdtm_v1.0/PackageTypeEnum#sdtm> ;
    cosmos_sdtm:sdtmigStartVersion "3-2" ;
    cosmos_sdtm:shortName "Carbon Monoxide in Expired Air" ;
    cosmos_sdtm:source "LB.LBTESTCD" ;
    cosmos_sdtm:variables <https://w3id.org/cdisc/cosmos/dss/LB/CMONOXEXPAIR/LBCAT>,
        <https://w3id.org/cdisc/cosmos/dss/LB/CMONOXEXPAIR/LBDTC>,
        <https://w3id.org/cdisc/cosmos/dss/LB/CMONOXEXPAIR/LBLOINC>,
        <https://w3id.org/cdisc/cosmos/dss/LB/CMONOXEXPAIR/LBORRES>,
        <https://w3id.org/cdisc/cosmos/dss/LB/CMONOXEXPAIR/LBORRESU>,
        <https://w3id.org/cdisc/cosmos/dss/LB/CMONOXEXPAIR/LBSPEC>,
        <https://w3id.org/cdisc/cosmos/dss/LB/CMONOXEXPAIR/LBSTRESC>,
        <https://w3id.org/cdisc/cosmos/dss/LB/CMONOXEXPAIR/LBSTRESN>,
        <https://w3id.org/cdisc/cosmos/dss/LB/CMONOXEXPAIR/LBSTRESU>,
        <https://w3id.org/cdisc/cosmos/dss/LB/CMONOXEXPAIR/LBTEST>,
        <https://w3id.org/cdisc/cosmos/dss/LB/CMONOXEXPAIR/LBTESTCD> .

<https://w3id.org/cdisc/cosmos/dss/LB/CO2BLD> a cosmos_sdtm:SDTMGroup ;
    dcterms:identifier "CO2BLD" ;
    rdf:_1 <https://w3id.org/cdisc/cosmos/dss/LB/CO2BLD/LBTESTCD> ;
    rdf:_10 <https://w3id.org/cdisc/cosmos/dss/LB/CO2BLD/LBSPEC> ;
    rdf:_11 <https://w3id.org/cdisc/cosmos/dss/LB/CO2BLD/LBFAST> ;
    rdf:_12 <https://w3id.org/cdisc/cosmos/dss/LB/CO2BLD/LBDTC> ;
    rdf:_2 <https://w3id.org/cdisc/cosmos/dss/LB/CO2BLD/LBTEST> ;
    rdf:_3 <https://w3id.org/cdisc/cosmos/dss/LB/CO2BLD/LBCAT> ;
    rdf:_4 <https://w3id.org/cdisc/cosmos/dss/LB/CO2BLD/LBORRES> ;
    rdf:_5 <https://w3id.org/cdisc/cosmos/dss/LB/CO2BLD/LBORRESU> ;
    rdf:_6 <https://w3id.org/cdisc/cosmos/dss/LB/CO2BLD/LBSTRESC> ;
    rdf:_7 <https://w3id.org/cdisc/cosmos/dss/LB/CO2BLD/LBSTRESN> ;
    rdf:_8 <https://w3id.org/cdisc/cosmos/dss/LB/CO2BLD/LBSTRESU> ;
    rdf:_9 <https://w3id.org/cdisc/cosmos/dss/LB/CO2BLD/LBLOINC> ;
    cosmos_sdtm:biomedicalConceptId NCIT:C64545 ;
    cosmos_sdtm:domain "LB" ;
    cosmos_sdtm:packageDate "2026-05-26"^^xsd:date ;
    cosmos_sdtm:packageType <https://www.cdisc.org/cosmos/sdtm_v1.0/PackageTypeEnum#sdtm> ;
    cosmos_sdtm:sdtmigStartVersion "3-2" ;
    cosmos_sdtm:shortName "Carbon Dioxide Concentration in Blood" ;
    cosmos_sdtm:source "LB.LBTESTCD" ;
    cosmos_sdtm:variables <https://w3id.org/cdisc/cosmos/dss/LB/CO2BLD/LBCAT>,
        <https://w3id.org/cdisc/cosmos/dss/LB/CO2BLD/LBDTC>,
        <https://w3id.org/cdisc/cosmos/dss/LB/CO2BLD/LBFAST>,
        <https://w3id.org/cdisc/cosmos/dss/LB/CO2BLD/LBLOINC>,
        <https://w3id.org/cdisc/cosmos/dss/LB/CO2BLD/LBORRES>,
        <https://w3id.org/cdisc/cosmos/dss/LB/CO2BLD/LBORRESU>,
        <https://w3id.org/cdisc/cosmos/dss/LB/CO2BLD/LBSPEC>,
        <https://w3id.org/cdisc/cosmos/dss/LB/CO2BLD/LBSTRESC>,
        <https://w3id.org/cdisc/cosmos/dss/LB/CO2BLD/LBSTRESN>,
        <https://w3id.org/cdisc/cosmos/dss/LB/CO2BLD/LBSTRESU>,
        <https://w3id.org/cdisc/cosmos/dss/LB/CO2BLD/LBTEST>,
        <https://w3id.org/cdisc/cosmos/dss/LB/CO2BLD/LBTESTCD> .

<https://w3id.org/cdisc/cosmos/dss/LB/CO2SERPL> a cosmos_sdtm:SDTMGroup ;
    dcterms:identifier "CO2SERPL" ;
    rdf:_1 <https://w3id.org/cdisc/cosmos/dss/LB/CO2SERPL/LBTESTCD> ;
    rdf:_10 <https://w3id.org/cdisc/cosmos/dss/LB/CO2SERPL/LBSPEC> ;
    rdf:_11 <https://w3id.org/cdisc/cosmos/dss/LB/CO2SERPL/LBFAST> ;
    rdf:_12 <https://w3id.org/cdisc/cosmos/dss/LB/CO2SERPL/LBDTC> ;
    rdf:_2 <https://w3id.org/cdisc/cosmos/dss/LB/CO2SERPL/LBTEST> ;
    rdf:_3 <https://w3id.org/cdisc/cosmos/dss/LB/CO2SERPL/LBCAT> ;
    rdf:_4 <https://w3id.org/cdisc/cosmos/dss/LB/CO2SERPL/LBORRES> ;
    rdf:_5 <https://w3id.org/cdisc/cosmos/dss/LB/CO2SERPL/LBORRESU> ;
    rdf:_6 <https://w3id.org/cdisc/cosmos/dss/LB/CO2SERPL/LBSTRESC> ;
    rdf:_7 <https://w3id.org/cdisc/cosmos/dss/LB/CO2SERPL/LBSTRESN> ;
    rdf:_8 <https://w3id.org/cdisc/cosmos/dss/LB/CO2SERPL/LBSTRESU> ;
    rdf:_9 <https://w3id.org/cdisc/cosmos/dss/LB/CO2SERPL/LBLOINC> ;
    cosmos_sdtm:biomedicalConceptId NCIT:C64545 ;
    cosmos_sdtm:domain "LB" ;
    cosmos_sdtm:packageDate "2026-05-26"^^xsd:date ;
    cosmos_sdtm:packageType <https://www.cdisc.org/cosmos/sdtm_v1.0/PackageTypeEnum#sdtm> ;
    cosmos_sdtm:sdtmigStartVersion "3-2" ;
    cosmos_sdtm:shortName "Carbon Dioxide Concentration in Serum or Plasma" ;
    cosmos_sdtm:source "LB.LBTESTCD" ;
    cosmos_sdtm:variables <https://w3id.org/cdisc/cosmos/dss/LB/CO2SERPL/LBCAT>,
        <https://w3id.org/cdisc/cosmos/dss/LB/CO2SERPL/LBDTC>,
        <https://w3id.org/cdisc/cosmos/dss/LB/CO2SERPL/LBFAST>,
        <https://w3id.org/cdisc/cosmos/dss/LB/CO2SERPL/LBLOINC>,
        <https://w3id.org/cdisc/cosmos/dss/LB/CO2SERPL/LBORRES>,
        <https://w3id.org/cdisc/cosmos/dss/LB/CO2SERPL/LBORRESU>,
        <https://w3id.org/cdisc/cosmos/dss/LB/CO2SERPL/LBSPEC>,
        <https://w3id.org/cdisc/cosmos/dss/LB/CO2SERPL/LBSTRESC>,
        <https://w3id.org/cdisc/cosmos/dss/LB/CO2SERPL/LBSTRESN>,
        <https://w3id.org/cdisc/cosmos/dss/LB/CO2SERPL/LBSTRESU>,
        <https://w3id.org/cdisc/cosmos/dss/LB/CO2SERPL/LBTEST>,
        <https://w3id.org/cdisc/cosmos/dss/LB/CO2SERPL/LBTESTCD> .

<https://w3id.org/cdisc/cosmos/dss/LB/COLORURIN> a cosmos_sdtm:SDTMGroup ;
    dcterms:identifier "COLORURIN" ;
    rdf:_1 <https://w3id.org/cdisc/cosmos/dss/LB/COLORURIN/LBTESTCD> ;
    rdf:_2 <https://w3id.org/cdisc/cosmos/dss/LB/COLORURIN/LBTEST> ;
    rdf:_3 <https://w3id.org/cdisc/cosmos/dss/LB/COLORURIN/LBCAT> ;
    rdf:_4 <https://w3id.org/cdisc/cosmos/dss/LB/COLORURIN/LBORRES> ;
    rdf:_5 <https://w3id.org/cdisc/cosmos/dss/LB/COLORURIN/LBSTRESC> ;
    rdf:_6 <https://w3id.org/cdisc/cosmos/dss/LB/COLORURIN/LBLOINC> ;
    rdf:_7 <https://w3id.org/cdisc/cosmos/dss/LB/COLORURIN/LBSPEC> ;
    rdf:_8 <https://w3id.org/cdisc/cosmos/dss/LB/COLORURIN/LBDTC> ;
    cosmos_sdtm:biomedicalConceptId NCIT:C64546 ;
    cosmos_sdtm:domain "LB" ;
    cosmos_sdtm:packageDate "2026-05-26"^^xsd:date ;
    cosmos_sdtm:packageType <https://www.cdisc.org/cosmos/sdtm_v1.0/PackageTypeEnum#sdtm> ;
    cosmos_sdtm:sdtmigStartVersion "3-2" ;
    cosmos_sdtm:shortName "Color Assessment in Urine" ;
    cosmos_sdtm:source "LB.LBTESTCD" ;
    cosmos_sdtm:variables <https://w3id.org/cdisc/cosmos/dss/LB/COLORURIN/LBCAT>,
        <https://w3id.org/cdisc/cosmos/dss/LB/COLORURIN/LBDTC>,
        <https://w3id.org/cdisc/cosmos/dss/LB/COLORURIN/LBLOINC>,
        <https://w3id.org/cdisc/cosmos/dss/LB/COLORURIN/LBORRES>,
        <https://w3id.org/cdisc/cosmos/dss/LB/COLORURIN/LBSPEC>,
        <https://w3id.org/cdisc/cosmos/dss/LB/COLORURIN/LBSTRESC>,
        <https://w3id.org/cdisc/cosmos/dss/LB/COLORURIN/LBTEST>,
        <https://w3id.org/cdisc/cosmos/dss/LB/COLORURIN/LBTESTCD> .

<https://w3id.org/cdisc/cosmos/dss/LB/COTININEURIN> a cosmos_sdtm:SDTMGroup ;
    dcterms:identifier "COTININEURIN" ;
    rdf:_1 <https://w3id.org/cdisc/cosmos/dss/LB/COTININEURIN/LBTESTCD> ;
    rdf:_10 <https://w3id.org/cdisc/cosmos/dss/LB/COTININEURIN/LBSPEC> ;
    rdf:_11 <https://w3id.org/cdisc/cosmos/dss/LB/COTININEURIN/LBDTC> ;
    rdf:_2 <https://w3id.org/cdisc/cosmos/dss/LB/COTININEURIN/LBTEST> ;
    rdf:_3 <https://w3id.org/cdisc/cosmos/dss/LB/COTININEURIN/LBCAT> ;
    rdf:_4 <https://w3id.org/cdisc/cosmos/dss/LB/COTININEURIN/LBORRES> ;
    rdf:_5 <https://w3id.org/cdisc/cosmos/dss/LB/COTININEURIN/LBORRESU> ;
    rdf:_6 <https://w3id.org/cdisc/cosmos/dss/LB/COTININEURIN/LBSTRESC> ;
    rdf:_7 <https://w3id.org/cdisc/cosmos/dss/LB/COTININEURIN/LBSTRESN> ;
    rdf:_8 <https://w3id.org/cdisc/cosmos/dss/LB/COTININEURIN/LBSTRESU> ;
    rdf:_9 <https://w3id.org/cdisc/cosmos/dss/LB/COTININEURIN/LBLOINC> ;
    cosmos_sdtm:biomedicalConceptId NCIT:C92249 ;
    cosmos_sdtm:domain "LB" ;
    cosmos_sdtm:packageDate "2026-05-26"^^xsd:date ;
    cosmos_sdtm:packageType <https://www.cdisc.org/cosmos/sdtm_v1.0/PackageTypeEnum#sdtm> ;
    cosmos_sdtm:sdtmigStartVersion "3-2" ;
    cosmos_sdtm:shortName "Cotinine Concentration in Urine" ;
    cosmos_sdtm:source "LB.LBTESTCD" ;
    cosmos_sdtm:variables <https://w3id.org/cdisc/cosmos/dss/LB/COTININEURIN/LBCAT>,
        <https://w3id.org/cdisc/cosmos/dss/LB/COTININEURIN/LBDTC>,
        <https://w3id.org/cdisc/cosmos/dss/LB/COTININEURIN/LBLOINC>,
        <https://w3id.org/cdisc/cosmos/dss/LB/COTININEURIN/LBORRES>,
        <https://w3id.org/cdisc/cosmos/dss/LB/COTININEURIN/LBORRESU>,
        <https://w3id.org/cdisc/cosmos/dss/LB/COTININEURIN/LBSPEC>,
        <https://w3id.org/cdisc/cosmos/dss/LB/COTININEURIN/LBSTRESC>,
        <https://w3id.org/cdisc/cosmos/dss/LB/COTININEURIN/LBSTRESN>,
        <https://w3id.org/cdisc/cosmos/dss/LB/COTININEURIN/LBSTRESU>,
        <https://w3id.org/cdisc/cosmos/dss/LB/COTININEURIN/LBTEST>,
        <https://w3id.org/cdisc/cosmos/dss/LB/COTININEURIN/LBTESTCD> .

<https://w3id.org/cdisc/cosmos/dss/LB/CREATCLRSERPL> a cosmos_sdtm:SDTMGroup ;
    dcterms:identifier "CREATCLRSERPL" ;
    rdf:_1 <https://w3id.org/cdisc/cosmos/dss/LB/CREATCLRSERPL/LBTESTCD> ;
    rdf:_10 <https://w3id.org/cdisc/cosmos/dss/LB/CREATCLRSERPL/LBSPEC> ;
    rdf:_11 <https://w3id.org/cdisc/cosmos/dss/LB/CREATCLRSERPL/LBFAST> ;
    rdf:_12 <https://w3id.org/cdisc/cosmos/dss/LB/CREATCLRSERPL/LBDTC> ;
    rdf:_13 <https://w3id.org/cdisc/cosmos/dss/LB/CREATCLRSERPL/LBENDTC> ;
    rdf:_2 <https://w3id.org/cdisc/cosmos/dss/LB/CREATCLRSERPL/LBTEST> ;
    rdf:_3 <https://w3id.org/cdisc/cosmos/dss/LB/CREATCLRSERPL/LBCAT> ;
    rdf:_4 <https://w3id.org/cdisc/cosmos/dss/LB/CREATCLRSERPL/LBORRES> ;
    rdf:_5 <https://w3id.org/cdisc/cosmos/dss/LB/CREATCLRSERPL/LBORRESU> ;
    rdf:_6 <https://w3id.org/cdisc/cosmos/dss/LB/CREATCLRSERPL/LBSTRESC> ;
    rdf:_7 <https://w3id.org/cdisc/cosmos/dss/LB/CREATCLRSERPL/LBSTRESN> ;
    rdf:_8 <https://w3id.org/cdisc/cosmos/dss/LB/CREATCLRSERPL/LBSTRESU> ;
    rdf:_9 <https://w3id.org/cdisc/cosmos/dss/LB/CREATCLRSERPL/LBLOINC> ;
    cosmos_sdtm:biomedicalConceptId NCIT:C25747 ;
    cosmos_sdtm:domain "LB" ;
    cosmos_sdtm:packageDate "2026-05-26"^^xsd:date ;
    cosmos_sdtm:packageType <https://www.cdisc.org/cosmos/sdtm_v1.0/PackageTypeEnum#sdtm> ;
    cosmos_sdtm:sdtmigStartVersion "3-2" ;
    cosmos_sdtm:shortName "Creatinine Clearance in Serum or Plasma" ;
    cosmos_sdtm:source "LB.LBTESTCD" ;
    cosmos_sdtm:variables <https://w3id.org/cdisc/cosmos/dss/LB/CREATCLRSERPL/LBCAT>,
        <https://w3id.org/cdisc/cosmos/dss/LB/CREATCLRSERPL/LBDTC>,
        <https://w3id.org/cdisc/cosmos/dss/LB/CREATCLRSERPL/LBENDTC>,
        <https://w3id.org/cdisc/cosmos/dss/LB/CREATCLRSERPL/LBFAST>,
        <https://w3id.org/cdisc/cosmos/dss/LB/CREATCLRSERPL/LBLOINC>,
        <https://w3id.org/cdisc/cosmos/dss/LB/CREATCLRSERPL/LBORRES>,
        <https://w3id.org/cdisc/cosmos/dss/LB/CREATCLRSERPL/LBORRESU>,
        <https://w3id.org/cdisc/cosmos/dss/LB/CREATCLRSERPL/LBSPEC>,
        <https://w3id.org/cdisc/cosmos/dss/LB/CREATCLRSERPL/LBSTRESC>,
        <https://w3id.org/cdisc/cosmos/dss/LB/CREATCLRSERPL/LBSTRESN>,
        <https://w3id.org/cdisc/cosmos/dss/LB/CREATCLRSERPL/LBSTRESU>,
        <https://w3id.org/cdisc/cosmos/dss/LB/CREATCLRSERPL/LBTEST>,
        <https://w3id.org/cdisc/cosmos/dss/LB/CREATCLRSERPL/LBTESTCD> .

<https://w3id.org/cdisc/cosmos/dss/LB/CREATSERPL> a cosmos_sdtm:SDTMGroup ;
    dcterms:identifier "CREATSERPL" ;
    rdf:_1 <https://w3id.org/cdisc/cosmos/dss/LB/CREATSERPL/LBTESTCD> ;
    rdf:_10 <https://w3id.org/cdisc/cosmos/dss/LB/CREATSERPL/LBSPEC> ;
    rdf:_11 <https://w3id.org/cdisc/cosmos/dss/LB/CREATSERPL/LBFAST> ;
    rdf:_12 <https://w3id.org/cdisc/cosmos/dss/LB/CREATSERPL/LBDTC> ;
    rdf:_2 <https://w3id.org/cdisc/cosmos/dss/LB/CREATSERPL/LBTEST> ;
    rdf:_3 <https://w3id.org/cdisc/cosmos/dss/LB/CREATSERPL/LBCAT> ;
    rdf:_4 <https://w3id.org/cdisc/cosmos/dss/LB/CREATSERPL/LBORRES> ;
    rdf:_5 <https://w3id.org/cdisc/cosmos/dss/LB/CREATSERPL/LBORRESU> ;
    rdf:_6 <https://w3id.org/cdisc/cosmos/dss/LB/CREATSERPL/LBSTRESC> ;
    rdf:_7 <https://w3id.org/cdisc/cosmos/dss/LB/CREATSERPL/LBSTRESN> ;
    rdf:_8 <https://w3id.org/cdisc/cosmos/dss/LB/CREATSERPL/LBSTRESU> ;
    rdf:_9 <https://w3id.org/cdisc/cosmos/dss/LB/CREATSERPL/LBLOINC> ;
    cosmos_sdtm:biomedicalConceptId NCIT:C64547 ;
    cosmos_sdtm:domain "LB" ;
    cosmos_sdtm:packageDate "2026-05-26"^^xsd:date ;
    cosmos_sdtm:packageType <https://www.cdisc.org/cosmos/sdtm_v1.0/PackageTypeEnum#sdtm> ;
    cosmos_sdtm:sdtmigStartVersion "3-2" ;
    cosmos_sdtm:shortName "Creatinine Concentration in Serum or Plasma" ;
    cosmos_sdtm:source "LB.LBTESTCD" ;
    cosmos_sdtm:variables <https://w3id.org/cdisc/cosmos/dss/LB/CREATSERPL/LBCAT>,
        <https://w3id.org/cdisc/cosmos/dss/LB/CREATSERPL/LBDTC>,
        <https://w3id.org/cdisc/cosmos/dss/LB/CREATSERPL/LBFAST>,
        <https://w3id.org/cdisc/cosmos/dss/LB/CREATSERPL/LBLOINC>,
        <https://w3id.org/cdisc/cosmos/dss/LB/CREATSERPL/LBORRES>,
        <https://w3id.org/cdisc/cosmos/dss/LB/CREATSERPL/LBORRESU>,
        <https://w3id.org/cdisc/cosmos/dss/LB/CREATSERPL/LBSPEC>,
        <https://w3id.org/cdisc/cosmos/dss/LB/CREATSERPL/LBSTRESC>,
        <https://w3id.org/cdisc/cosmos/dss/LB/CREATSERPL/LBSTRESN>,
        <https://w3id.org/cdisc/cosmos/dss/LB/CREATSERPL/LBSTRESU>,
        <https://w3id.org/cdisc/cosmos/dss/LB/CREATSERPL/LBTEST>,
        <https://w3id.org/cdisc/cosmos/dss/LB/CREATSERPL/LBTESTCD> .

<https://w3id.org/cdisc/cosmos/dss/LB/CREATURIN> a cosmos_sdtm:SDTMGroup ;
    dcterms:identifier "CREATURIN" ;
    rdf:_1 <https://w3id.org/cdisc/cosmos/dss/LB/CREATURIN/LBTESTCD> ;
    rdf:_10 <https://w3id.org/cdisc/cosmos/dss/LB/CREATURIN/LBSPEC> ;
    rdf:_11 <https://w3id.org/cdisc/cosmos/dss/LB/CREATURIN/LBFAST> ;
    rdf:_12 <https://w3id.org/cdisc/cosmos/dss/LB/CREATURIN/LBDTC> ;
    rdf:_2 <https://w3id.org/cdisc/cosmos/dss/LB/CREATURIN/LBTEST> ;
    rdf:_3 <https://w3id.org/cdisc/cosmos/dss/LB/CREATURIN/LBCAT> ;
    rdf:_4 <https://w3id.org/cdisc/cosmos/dss/LB/CREATURIN/LBORRES> ;
    rdf:_5 <https://w3id.org/cdisc/cosmos/dss/LB/CREATURIN/LBORRESU> ;
    rdf:_6 <https://w3id.org/cdisc/cosmos/dss/LB/CREATURIN/LBSTRESC> ;
    rdf:_7 <https://w3id.org/cdisc/cosmos/dss/LB/CREATURIN/LBSTRESN> ;
    rdf:_8 <https://w3id.org/cdisc/cosmos/dss/LB/CREATURIN/LBSTRESU> ;
    rdf:_9 <https://w3id.org/cdisc/cosmos/dss/LB/CREATURIN/LBLOINC> ;
    cosmos_sdtm:biomedicalConceptId NCIT:C64547 ;
    cosmos_sdtm:domain "LB" ;
    cosmos_sdtm:packageDate "2026-05-26"^^xsd:date ;
    cosmos_sdtm:packageType <https://www.cdisc.org/cosmos/sdtm_v1.0/PackageTypeEnum#sdtm> ;
    cosmos_sdtm:sdtmigStartVersion "3-2" ;
    cosmos_sdtm:shortName "Creatinine Concentration in Urine" ;
    cosmos_sdtm:source "LB.LBTESTCD" ;
    cosmos_sdtm:variables <https://w3id.org/cdisc/cosmos/dss/LB/CREATURIN/LBCAT>,
        <https://w3id.org/cdisc/cosmos/dss/LB/CREATURIN/LBDTC>,
        <https://w3id.org/cdisc/cosmos/dss/LB/CREATURIN/LBFAST>,
        <https://w3id.org/cdisc/cosmos/dss/LB/CREATURIN/LBLOINC>,
        <https://w3id.org/cdisc/cosmos/dss/LB/CREATURIN/LBORRES>,
        <https://w3id.org/cdisc/cosmos/dss/LB/CREATURIN/LBORRESU>,
        <https://w3id.org/cdisc/cosmos/dss/LB/CREATURIN/LBSPEC>,
        <https://w3id.org/cdisc/cosmos/dss/LB/CREATURIN/LBSTRESC>,
        <https://w3id.org/cdisc/cosmos/dss/LB/CREATURIN/LBSTRESN>,
        <https://w3id.org/cdisc/cosmos/dss/LB/CREATURIN/LBSTRESU>,
        <https://w3id.org/cdisc/cosmos/dss/LB/CREATURIN/LBTEST>,
        <https://w3id.org/cdisc/cosmos/dss/LB/CREATURIN/LBTESTCD> .

<https://w3id.org/cdisc/cosmos/dss/LB/CRPSERPL> a cosmos_sdtm:SDTMGroup ;
    dcterms:identifier "CRPSERPL" ;
    rdf:_1 <https://w3id.org/cdisc/cosmos/dss/LB/CRPSERPL/LBTESTCD> ;
    rdf:_10 <https://w3id.org/cdisc/cosmos/dss/LB/CRPSERPL/LBSPEC> ;
    rdf:_11 <https://w3id.org/cdisc/cosmos/dss/LB/CRPSERPL/LBFAST> ;
    rdf:_12 <https://w3id.org/cdisc/cosmos/dss/LB/CRPSERPL/LBDTC> ;
    rdf:_2 <https://w3id.org/cdisc/cosmos/dss/LB/CRPSERPL/LBTEST> ;
    rdf:_3 <https://w3id.org/cdisc/cosmos/dss/LB/CRPSERPL/LBCAT> ;
    rdf:_4 <https://w3id.org/cdisc/cosmos/dss/LB/CRPSERPL/LBORRES> ;
    rdf:_5 <https://w3id.org/cdisc/cosmos/dss/LB/CRPSERPL/LBORRESU> ;
    rdf:_6 <https://w3id.org/cdisc/cosmos/dss/LB/CRPSERPL/LBSTRESC> ;
    rdf:_7 <https://w3id.org/cdisc/cosmos/dss/LB/CRPSERPL/LBSTRESN> ;
    rdf:_8 <https://w3id.org/cdisc/cosmos/dss/LB/CRPSERPL/LBSTRESU> ;
    rdf:_9 <https://w3id.org/cdisc/cosmos/dss/LB/CRPSERPL/LBLOINC> ;
    cosmos_sdtm:biomedicalConceptId NCIT:C64548 ;
    cosmos_sdtm:domain "LB" ;
    cosmos_sdtm:packageDate "2026-05-26"^^xsd:date ;
    cosmos_sdtm:packageType <https://www.cdisc.org/cosmos/sdtm_v1.0/PackageTypeEnum#sdtm> ;
    cosmos_sdtm:sdtmigStartVersion "3-2" ;
    cosmos_sdtm:shortName "C Reactive Protein in Serum or Plasma" ;
    cosmos_sdtm:source "LB.LBTESTCD" ;
    cosmos_sdtm:variables <https://w3id.org/cdisc/cosmos/dss/LB/CRPSERPL/LBCAT>,
        <https://w3id.org/cdisc/cosmos/dss/LB/CRPSERPL/LBDTC>,
        <https://w3id.org/cdisc/cosmos/dss/LB/CRPSERPL/LBFAST>,
        <https://w3id.org/cdisc/cosmos/dss/LB/CRPSERPL/LBLOINC>,
        <https://w3id.org/cdisc/cosmos/dss/LB/CRPSERPL/LBORRES>,
        <https://w3id.org/cdisc/cosmos/dss/LB/CRPSERPL/LBORRESU>,
        <https://w3id.org/cdisc/cosmos/dss/LB/CRPSERPL/LBSPEC>,
        <https://w3id.org/cdisc/cosmos/dss/LB/CRPSERPL/LBSTRESC>,
        <https://w3id.org/cdisc/cosmos/dss/LB/CRPSERPL/LBSTRESN>,
        <https://w3id.org/cdisc/cosmos/dss/LB/CRPSERPL/LBSTRESU>,
        <https://w3id.org/cdisc/cosmos/dss/LB/CRPSERPL/LBTEST>,
        <https://w3id.org/cdisc/cosmos/dss/LB/CRPSERPL/LBTESTCD> .

<https://w3id.org/cdisc/cosmos/dss/LB/CYSTATCSERPL> a cosmos_sdtm:SDTMGroup ;
    dcterms:identifier "CYSTATCSERPL" ;
    rdf:_1 <https://w3id.org/cdisc/cosmos/dss/LB/CYSTATCSERPL/LBTESTCD> ;
    rdf:_10 <https://w3id.org/cdisc/cosmos/dss/LB/CYSTATCSERPL/LBSPEC> ;
    rdf:_11 <https://w3id.org/cdisc/cosmos/dss/LB/CYSTATCSERPL/LBFAST> ;
    rdf:_12 <https://w3id.org/cdisc/cosmos/dss/LB/CYSTATCSERPL/LBDTC> ;
    rdf:_2 <https://w3id.org/cdisc/cosmos/dss/LB/CYSTATCSERPL/LBTEST> ;
    rdf:_3 <https://w3id.org/cdisc/cosmos/dss/LB/CYSTATCSERPL/LBCAT> ;
    rdf:_4 <https://w3id.org/cdisc/cosmos/dss/LB/CYSTATCSERPL/LBORRES> ;
    rdf:_5 <https://w3id.org/cdisc/cosmos/dss/LB/CYSTATCSERPL/LBORRESU> ;
    rdf:_6 <https://w3id.org/cdisc/cosmos/dss/LB/CYSTATCSERPL/LBSTRESC> ;
    rdf:_7 <https://w3id.org/cdisc/cosmos/dss/LB/CYSTATCSERPL/LBSTRESN> ;
    rdf:_8 <https://w3id.org/cdisc/cosmos/dss/LB/CYSTATCSERPL/LBSTRESU> ;
    rdf:_9 <https://w3id.org/cdisc/cosmos/dss/LB/CYSTATCSERPL/LBLOINC> ;
    cosmos_sdtm:biomedicalConceptId NCIT:C92290 ;
    cosmos_sdtm:domain "LB" ;
    cosmos_sdtm:packageDate "2026-05-26"^^xsd:date ;
    cosmos_sdtm:packageType <https://www.cdisc.org/cosmos/sdtm_v1.0/PackageTypeEnum#sdtm> ;
    cosmos_sdtm:sdtmigStartVersion "3-2" ;
    cosmos_sdtm:shortName "Cystatin C Measurement in Serum or Plasma" ;
    cosmos_sdtm:source "LB.LBTESTCD" ;
    cosmos_sdtm:variables <https://w3id.org/cdisc/cosmos/dss/LB/CYSTATCSERPL/LBCAT>,
        <https://w3id.org/cdisc/cosmos/dss/LB/CYSTATCSERPL/LBDTC>,
        <https://w3id.org/cdisc/cosmos/dss/LB/CYSTATCSERPL/LBFAST>,
        <https://w3id.org/cdisc/cosmos/dss/LB/CYSTATCSERPL/LBLOINC>,
        <https://w3id.org/cdisc/cosmos/dss/LB/CYSTATCSERPL/LBORRES>,
        <https://w3id.org/cdisc/cosmos/dss/LB/CYSTATCSERPL/LBORRESU>,
        <https://w3id.org/cdisc/cosmos/dss/LB/CYSTATCSERPL/LBSPEC>,
        <https://w3id.org/cdisc/cosmos/dss/LB/CYSTATCSERPL/LBSTRESC>,
        <https://w3id.org/cdisc/cosmos/dss/LB/CYSTATCSERPL/LBSTRESN>,
        <https://w3id.org/cdisc/cosmos/dss/LB/CYSTATCSERPL/LBSTRESU>,
        <https://w3id.org/cdisc/cosmos/dss/LB/CYSTATCSERPL/LBTEST>,
        <https://w3id.org/cdisc/cosmos/dss/LB/CYSTATCSERPL/LBTESTCD> .

<https://w3id.org/cdisc/cosmos/dss/LB/CYSTATCURIN> a cosmos_sdtm:SDTMGroup ;
    dcterms:identifier "CYSTATCURIN" ;
    rdf:_1 <https://w3id.org/cdisc/cosmos/dss/LB/CYSTATCURIN/LBTESTCD> ;
    rdf:_10 <https://w3id.org/cdisc/cosmos/dss/LB/CYSTATCURIN/LBSPEC> ;
    rdf:_11 <https://w3id.org/cdisc/cosmos/dss/LB/CYSTATCURIN/LBFAST> ;
    rdf:_12 <https://w3id.org/cdisc/cosmos/dss/LB/CYSTATCURIN/LBDTC> ;
    rdf:_2 <https://w3id.org/cdisc/cosmos/dss/LB/CYSTATCURIN/LBTEST> ;
    rdf:_3 <https://w3id.org/cdisc/cosmos/dss/LB/CYSTATCURIN/LBCAT> ;
    rdf:_4 <https://w3id.org/cdisc/cosmos/dss/LB/CYSTATCURIN/LBORRES> ;
    rdf:_5 <https://w3id.org/cdisc/cosmos/dss/LB/CYSTATCURIN/LBORRESU> ;
    rdf:_6 <https://w3id.org/cdisc/cosmos/dss/LB/CYSTATCURIN/LBSTRESC> ;
    rdf:_7 <https://w3id.org/cdisc/cosmos/dss/LB/CYSTATCURIN/LBSTRESN> ;
    rdf:_8 <https://w3id.org/cdisc/cosmos/dss/LB/CYSTATCURIN/LBSTRESU> ;
    rdf:_9 <https://w3id.org/cdisc/cosmos/dss/LB/CYSTATCURIN/LBLOINC> ;
    cosmos_sdtm:biomedicalConceptId NCIT:C92290 ;
    cosmos_sdtm:domain "LB" ;
    cosmos_sdtm:packageDate "2026-05-26"^^xsd:date ;
    cosmos_sdtm:packageType <https://www.cdisc.org/cosmos/sdtm_v1.0/PackageTypeEnum#sdtm> ;
    cosmos_sdtm:sdtmigStartVersion "3-2" ;
    cosmos_sdtm:shortName "Cystatin C Measurement in Urine" ;
    cosmos_sdtm:source "LB.LBTESTCD" ;
    cosmos_sdtm:variables <https://w3id.org/cdisc/cosmos/dss/LB/CYSTATCURIN/LBCAT>,
        <https://w3id.org/cdisc/cosmos/dss/LB/CYSTATCURIN/LBDTC>,
        <https://w3id.org/cdisc/cosmos/dss/LB/CYSTATCURIN/LBFAST>,
        <https://w3id.org/cdisc/cosmos/dss/LB/CYSTATCURIN/LBLOINC>,
        <https://w3id.org/cdisc/cosmos/dss/LB/CYSTATCURIN/LBORRES>,
        <https://w3id.org/cdisc/cosmos/dss/LB/CYSTATCURIN/LBORRESU>,
        <https://w3id.org/cdisc/cosmos/dss/LB/CYSTATCURIN/LBSPEC>,
        <https://w3id.org/cdisc/cosmos/dss/LB/CYSTATCURIN/LBSTRESC>,
        <https://w3id.org/cdisc/cosmos/dss/LB/CYSTATCURIN/LBSTRESN>,
        <https://w3id.org/cdisc/cosmos/dss/LB/CYSTATCURIN/LBSTRESU>,
        <https://w3id.org/cdisc/cosmos/dss/LB/CYSTATCURIN/LBTEST>,
        <https://w3id.org/cdisc/cosmos/dss/LB/CYSTATCURIN/LBTESTCD> .

<https://w3id.org/cdisc/cosmos/dss/LB/DDIMERPPP> a cosmos_sdtm:SDTMGroup ;
    dcterms:identifier "DDIMERPPP" ;
    rdf:_1 <https://w3id.org/cdisc/cosmos/dss/LB/DDIMERPPP/LBTESTCD> ;
    rdf:_10 <https://w3id.org/cdisc/cosmos/dss/LB/DDIMERPPP/LBSPEC> ;
    rdf:_11 <https://w3id.org/cdisc/cosmos/dss/LB/DDIMERPPP/LBFAST> ;
    rdf:_12 <https://w3id.org/cdisc/cosmos/dss/LB/DDIMERPPP/LBDTC> ;
    rdf:_2 <https://w3id.org/cdisc/cosmos/dss/LB/DDIMERPPP/LBTEST> ;
    rdf:_3 <https://w3id.org/cdisc/cosmos/dss/LB/DDIMERPPP/LBCAT> ;
    rdf:_4 <https://w3id.org/cdisc/cosmos/dss/LB/DDIMERPPP/LBORRES> ;
    rdf:_5 <https://w3id.org/cdisc/cosmos/dss/LB/DDIMERPPP/LBORRESU> ;
    rdf:_6 <https://w3id.org/cdisc/cosmos/dss/LB/DDIMERPPP/LBSTRESC> ;
    rdf:_7 <https://w3id.org/cdisc/cosmos/dss/LB/DDIMERPPP/LBSTRESN> ;
    rdf:_8 <https://w3id.org/cdisc/cosmos/dss/LB/DDIMERPPP/LBSTRESU> ;
    rdf:_9 <https://w3id.org/cdisc/cosmos/dss/LB/DDIMERPPP/LBLOINC> ;
    cosmos_sdtm:biomedicalConceptId NCIT:C82621 ;
    cosmos_sdtm:domain "LB" ;
    cosmos_sdtm:packageDate "2026-05-26"^^xsd:date ;
    cosmos_sdtm:packageType <https://www.cdisc.org/cosmos/sdtm_v1.0/PackageTypeEnum#sdtm> ;
    cosmos_sdtm:sdtmigStartVersion "3-2" ;
    cosmos_sdtm:shortName "D-Dimer in Platelet Poor Plasma" ;
    cosmos_sdtm:source "LB.LBTESTCD" ;
    cosmos_sdtm:variables <https://w3id.org/cdisc/cosmos/dss/LB/DDIMERPPP/LBCAT>,
        <https://w3id.org/cdisc/cosmos/dss/LB/DDIMERPPP/LBDTC>,
        <https://w3id.org/cdisc/cosmos/dss/LB/DDIMERPPP/LBFAST>,
        <https://w3id.org/cdisc/cosmos/dss/LB/DDIMERPPP/LBLOINC>,
        <https://w3id.org/cdisc/cosmos/dss/LB/DDIMERPPP/LBORRES>,
        <https://w3id.org/cdisc/cosmos/dss/LB/DDIMERPPP/LBORRESU>,
        <https://w3id.org/cdisc/cosmos/dss/LB/DDIMERPPP/LBSPEC>,
        <https://w3id.org/cdisc/cosmos/dss/LB/DDIMERPPP/LBSTRESC>,
        <https://w3id.org/cdisc/cosmos/dss/LB/DDIMERPPP/LBSTRESN>,
        <https://w3id.org/cdisc/cosmos/dss/LB/DDIMERPPP/LBSTRESU>,
        <https://w3id.org/cdisc/cosmos/dss/LB/DDIMERPPP/LBTEST>,
        <https://w3id.org/cdisc/cosmos/dss/LB/DDIMERPPP/LBTESTCD> .

<https://w3id.org/cdisc/cosmos/dss/LB/EOSBLD> a cosmos_sdtm:SDTMGroup ;
    dcterms:identifier "EOSBLD" ;
    rdf:_1 <https://w3id.org/cdisc/cosmos/dss/LB/EOSBLD/LBTESTCD> ;
    rdf:_10 <https://w3id.org/cdisc/cosmos/dss/LB/EOSBLD/LBSPEC> ;
    rdf:_11 <https://w3id.org/cdisc/cosmos/dss/LB/EOSBLD/LBFAST> ;
    rdf:_12 <https://w3id.org/cdisc/cosmos/dss/LB/EOSBLD/LBDTC> ;
    rdf:_2 <https://w3id.org/cdisc/cosmos/dss/LB/EOSBLD/LBTEST> ;
    rdf:_3 <https://w3id.org/cdisc/cosmos/dss/LB/EOSBLD/LBCAT> ;
    rdf:_4 <https://w3id.org/cdisc/cosmos/dss/LB/EOSBLD/LBORRES> ;
    rdf:_5 <https://w3id.org/cdisc/cosmos/dss/LB/EOSBLD/LBORRESU> ;
    rdf:_6 <https://w3id.org/cdisc/cosmos/dss/LB/EOSBLD/LBSTRESC> ;
    rdf:_7 <https://w3id.org/cdisc/cosmos/dss/LB/EOSBLD/LBSTRESN> ;
    rdf:_8 <https://w3id.org/cdisc/cosmos/dss/LB/EOSBLD/LBSTRESU> ;
    rdf:_9 <https://w3id.org/cdisc/cosmos/dss/LB/EOSBLD/LBLOINC> ;
    cosmos_sdtm:biomedicalConceptId NCIT:C64550 ;
    cosmos_sdtm:domain "LB" ;
    cosmos_sdtm:packageDate "2026-05-26"^^xsd:date ;
    cosmos_sdtm:packageType <https://www.cdisc.org/cosmos/sdtm_v1.0/PackageTypeEnum#sdtm> ;
    cosmos_sdtm:sdtmigStartVersion "3-2" ;
    cosmos_sdtm:shortName "Eosinophil Count in Blood" ;
    cosmos_sdtm:source "LB.LBTESTCD" ;
    cosmos_sdtm:variables <https://w3id.org/cdisc/cosmos/dss/LB/EOSBLD/LBCAT>,
        <https://w3id.org/cdisc/cosmos/dss/LB/EOSBLD/LBDTC>,
        <https://w3id.org/cdisc/cosmos/dss/LB/EOSBLD/LBFAST>,
        <https://w3id.org/cdisc/cosmos/dss/LB/EOSBLD/LBLOINC>,
        <https://w3id.org/cdisc/cosmos/dss/LB/EOSBLD/LBORRES>,
        <https://w3id.org/cdisc/cosmos/dss/LB/EOSBLD/LBORRESU>,
        <https://w3id.org/cdisc/cosmos/dss/LB/EOSBLD/LBSPEC>,
        <https://w3id.org/cdisc/cosmos/dss/LB/EOSBLD/LBSTRESC>,
        <https://w3id.org/cdisc/cosmos/dss/LB/EOSBLD/LBSTRESN>,
        <https://w3id.org/cdisc/cosmos/dss/LB/EOSBLD/LBSTRESU>,
        <https://w3id.org/cdisc/cosmos/dss/LB/EOSBLD/LBTEST>,
        <https://w3id.org/cdisc/cosmos/dss/LB/EOSBLD/LBTESTCD> .

<https://w3id.org/cdisc/cosmos/dss/LB/FERRITINSERPL> a cosmos_sdtm:SDTMGroup ;
    dcterms:identifier "FERRITINSERPL" ;
    rdf:_1 <https://w3id.org/cdisc/cosmos/dss/LB/FERRITINSERPL/LBTESTCD> ;
    rdf:_10 <https://w3id.org/cdisc/cosmos/dss/LB/FERRITINSERPL/LBSPEC> ;
    rdf:_11 <https://w3id.org/cdisc/cosmos/dss/LB/FERRITINSERPL/LBFAST> ;
    rdf:_12 <https://w3id.org/cdisc/cosmos/dss/LB/FERRITINSERPL/LBDTC> ;
    rdf:_2 <https://w3id.org/cdisc/cosmos/dss/LB/FERRITINSERPL/LBTEST> ;
    rdf:_3 <https://w3id.org/cdisc/cosmos/dss/LB/FERRITINSERPL/LBCAT> ;
    rdf:_4 <https://w3id.org/cdisc/cosmos/dss/LB/FERRITINSERPL/LBORRES> ;
    rdf:_5 <https://w3id.org/cdisc/cosmos/dss/LB/FERRITINSERPL/LBORRESU> ;
    rdf:_6 <https://w3id.org/cdisc/cosmos/dss/LB/FERRITINSERPL/LBSTRESC> ;
    rdf:_7 <https://w3id.org/cdisc/cosmos/dss/LB/FERRITINSERPL/LBSTRESN> ;
    rdf:_8 <https://w3id.org/cdisc/cosmos/dss/LB/FERRITINSERPL/LBSTRESU> ;
    rdf:_9 <https://w3id.org/cdisc/cosmos/dss/LB/FERRITINSERPL/LBLOINC> ;
    cosmos_sdtm:biomedicalConceptId NCIT:C74737 ;
    cosmos_sdtm:domain "LB" ;
    cosmos_sdtm:packageDate "2026-05-26"^^xsd:date ;
    cosmos_sdtm:packageType <https://www.cdisc.org/cosmos/sdtm_v1.0/PackageTypeEnum#sdtm> ;
    cosmos_sdtm:sdtmigStartVersion "3-2" ;
    cosmos_sdtm:shortName "Ferritin in Serum or Plasma" ;
    cosmos_sdtm:source "LB.LBTESTCD" ;
    cosmos_sdtm:variables <https://w3id.org/cdisc/cosmos/dss/LB/FERRITINSERPL/LBCAT>,
        <https://w3id.org/cdisc/cosmos/dss/LB/FERRITINSERPL/LBDTC>,
        <https://w3id.org/cdisc/cosmos/dss/LB/FERRITINSERPL/LBFAST>,
        <https://w3id.org/cdisc/cosmos/dss/LB/FERRITINSERPL/LBLOINC>,
        <https://w3id.org/cdisc/cosmos/dss/LB/FERRITINSERPL/LBORRES>,
        <https://w3id.org/cdisc/cosmos/dss/LB/FERRITINSERPL/LBORRESU>,
        <https://w3id.org/cdisc/cosmos/dss/LB/FERRITINSERPL/LBSPEC>,
        <https://w3id.org/cdisc/cosmos/dss/LB/FERRITINSERPL/LBSTRESC>,
        <https://w3id.org/cdisc/cosmos/dss/LB/FERRITINSERPL/LBSTRESN>,
        <https://w3id.org/cdisc/cosmos/dss/LB/FERRITINSERPL/LBSTRESU>,
        <https://w3id.org/cdisc/cosmos/dss/LB/FERRITINSERPL/LBTEST>,
        <https://w3id.org/cdisc/cosmos/dss/LB/FERRITINSERPL/LBTESTCD> .

<https://w3id.org/cdisc/cosmos/dss/LB/GGTSERPL> a cosmos_sdtm:SDTMGroup ;
    dcterms:identifier "GGTSERPL" ;
    rdf:_1 <https://w3id.org/cdisc/cosmos/dss/LB/GGTSERPL/LBTESTCD> ;
    rdf:_10 <https://w3id.org/cdisc/cosmos/dss/LB/GGTSERPL/LBSPEC> ;
    rdf:_11 <https://w3id.org/cdisc/cosmos/dss/LB/GGTSERPL/LBFAST> ;
    rdf:_12 <https://w3id.org/cdisc/cosmos/dss/LB/GGTSERPL/LBDTC> ;
    rdf:_2 <https://w3id.org/cdisc/cosmos/dss/LB/GGTSERPL/LBTEST> ;
    rdf:_3 <https://w3id.org/cdisc/cosmos/dss/LB/GGTSERPL/LBCAT> ;
    rdf:_4 <https://w3id.org/cdisc/cosmos/dss/LB/GGTSERPL/LBORRES> ;
    rdf:_5 <https://w3id.org/cdisc/cosmos/dss/LB/GGTSERPL/LBORRESU> ;
    rdf:_6 <https://w3id.org/cdisc/cosmos/dss/LB/GGTSERPL/LBSTRESC> ;
    rdf:_7 <https://w3id.org/cdisc/cosmos/dss/LB/GGTSERPL/LBSTRESN> ;
    rdf:_8 <https://w3id.org/cdisc/cosmos/dss/LB/GGTSERPL/LBSTRESU> ;
    rdf:_9 <https://w3id.org/cdisc/cosmos/dss/LB/GGTSERPL/LBLOINC> ;
    cosmos_sdtm:biomedicalConceptId NCIT:C64847 ;
    cosmos_sdtm:domain "LB" ;
    cosmos_sdtm:packageDate "2026-05-26"^^xsd:date ;
    cosmos_sdtm:packageType <https://www.cdisc.org/cosmos/sdtm_v1.0/PackageTypeEnum#sdtm> ;
    cosmos_sdtm:sdtmigStartVersion "3-2" ;
    cosmos_sdtm:shortName "Gamma Glutamyl Transpeptidase Concentration in Serum or Plasma" ;
    cosmos_sdtm:source "LB.LBTESTCD" ;
    cosmos_sdtm:variables <https://w3id.org/cdisc/cosmos/dss/LB/GGTSERPL/LBCAT>,
        <https://w3id.org/cdisc/cosmos/dss/LB/GGTSERPL/LBDTC>,
        <https://w3id.org/cdisc/cosmos/dss/LB/GGTSERPL/LBFAST>,
        <https://w3id.org/cdisc/cosmos/dss/LB/GGTSERPL/LBLOINC>,
        <https://w3id.org/cdisc/cosmos/dss/LB/GGTSERPL/LBORRES>,
        <https://w3id.org/cdisc/cosmos/dss/LB/GGTSERPL/LBORRESU>,
        <https://w3id.org/cdisc/cosmos/dss/LB/GGTSERPL/LBSPEC>,
        <https://w3id.org/cdisc/cosmos/dss/LB/GGTSERPL/LBSTRESC>,
        <https://w3id.org/cdisc/cosmos/dss/LB/GGTSERPL/LBSTRESN>,
        <https://w3id.org/cdisc/cosmos/dss/LB/GGTSERPL/LBSTRESU>,
        <https://w3id.org/cdisc/cosmos/dss/LB/GGTSERPL/LBTEST>,
        <https://w3id.org/cdisc/cosmos/dss/LB/GGTSERPL/LBTESTCD> .

<https://w3id.org/cdisc/cosmos/dss/LB/GLUCBLD> a cosmos_sdtm:SDTMGroup ;
    dcterms:identifier "GLUCBLD" ;
    rdf:_1 <https://w3id.org/cdisc/cosmos/dss/LB/GLUCBLD/LBTESTCD> ;
    rdf:_10 <https://w3id.org/cdisc/cosmos/dss/LB/GLUCBLD/LBSPEC> ;
    rdf:_11 <https://w3id.org/cdisc/cosmos/dss/LB/GLUCBLD/LBMETHOD> ;
    rdf:_12 <https://w3id.org/cdisc/cosmos/dss/LB/GLUCBLD/LBFAST> ;
    rdf:_13 <https://w3id.org/cdisc/cosmos/dss/LB/GLUCBLD/LBDTC> ;
    rdf:_2 <https://w3id.org/cdisc/cosmos/dss/LB/GLUCBLD/LBTEST> ;
    rdf:_3 <https://w3id.org/cdisc/cosmos/dss/LB/GLUCBLD/LBCAT> ;
    rdf:_4 <https://w3id.org/cdisc/cosmos/dss/LB/GLUCBLD/LBORRES> ;
    rdf:_5 <https://w3id.org/cdisc/cosmos/dss/LB/GLUCBLD/LBORRESU> ;
    rdf:_6 <https://w3id.org/cdisc/cosmos/dss/LB/GLUCBLD/LBSTRESC> ;
    rdf:_7 <https://w3id.org/cdisc/cosmos/dss/LB/GLUCBLD/LBSTRESN> ;
    rdf:_8 <https://w3id.org/cdisc/cosmos/dss/LB/GLUCBLD/LBSTRESU> ;
    rdf:_9 <https://w3id.org/cdisc/cosmos/dss/LB/GLUCBLD/LBLOINC> ;
    cosmos_sdtm:biomedicalConceptId NCIT:C105585 ;
    cosmos_sdtm:domain "LB" ;
    cosmos_sdtm:packageDate "2026-05-26"^^xsd:date ;
    cosmos_sdtm:packageType <https://www.cdisc.org/cosmos/sdtm_v1.0/PackageTypeEnum#sdtm> ;
    cosmos_sdtm:sdtmigStartVersion "3-2" ;
    cosmos_sdtm:shortName "Glucose Concentration in Blood" ;
    cosmos_sdtm:source "LB.LBTESTCD" ;
    cosmos_sdtm:variables <https://w3id.org/cdisc/cosmos/dss/LB/GLUCBLD/LBCAT>,
        <https://w3id.org/cdisc/cosmos/dss/LB/GLUCBLD/LBDTC>,
        <https://w3id.org/cdisc/cosmos/dss/LB/GLUCBLD/LBFAST>,
        <https://w3id.org/cdisc/cosmos/dss/LB/GLUCBLD/LBLOINC>,
        <https://w3id.org/cdisc/cosmos/dss/LB/GLUCBLD/LBMETHOD>,
        <https://w3id.org/cdisc/cosmos/dss/LB/GLUCBLD/LBORRES>,
        <https://w3id.org/cdisc/cosmos/dss/LB/GLUCBLD/LBORRESU>,
        <https://w3id.org/cdisc/cosmos/dss/LB/GLUCBLD/LBSPEC>,
        <https://w3id.org/cdisc/cosmos/dss/LB/GLUCBLD/LBSTRESC>,
        <https://w3id.org/cdisc/cosmos/dss/LB/GLUCBLD/LBSTRESN>,
        <https://w3id.org/cdisc/cosmos/dss/LB/GLUCBLD/LBSTRESU>,
        <https://w3id.org/cdisc/cosmos/dss/LB/GLUCBLD/LBTEST>,
        <https://w3id.org/cdisc/cosmos/dss/LB/GLUCBLD/LBTESTCD> .

<https://w3id.org/cdisc/cosmos/dss/LB/GLUCPE> a cosmos_sdtm:SDTMGroup ;
    dcterms:identifier "GLUCPE" ;
    rdf:_1 <https://w3id.org/cdisc/cosmos/dss/LB/GLUCPE/LBTESTCD> ;
    rdf:_10 <https://w3id.org/cdisc/cosmos/dss/LB/GLUCPE/LBSPEC> ;
    rdf:_11 <https://w3id.org/cdisc/cosmos/dss/LB/GLUCPE/LBMETHOD> ;
    rdf:_12 <https://w3id.org/cdisc/cosmos/dss/LB/GLUCPE/LBFAST> ;
    rdf:_13 <https://w3id.org/cdisc/cosmos/dss/LB/GLUCPE/LBDTC> ;
    rdf:_14 <https://w3id.org/cdisc/cosmos/dss/LB/GLUCPE/SPDEVID> ;
    rdf:_2 <https://w3id.org/cdisc/cosmos/dss/LB/GLUCPE/LBTEST> ;
    rdf:_3 <https://w3id.org/cdisc/cosmos/dss/LB/GLUCPE/LBCAT> ;
    rdf:_4 <https://w3id.org/cdisc/cosmos/dss/LB/GLUCPE/LBORRES> ;
    rdf:_5 <https://w3id.org/cdisc/cosmos/dss/LB/GLUCPE/LBORRESU> ;
    rdf:_6 <https://w3id.org/cdisc/cosmos/dss/LB/GLUCPE/LBSTRESC> ;
    rdf:_7 <https://w3id.org/cdisc/cosmos/dss/LB/GLUCPE/LBSTRESN> ;
    rdf:_8 <https://w3id.org/cdisc/cosmos/dss/LB/GLUCPE/LBSTRESU> ;
    rdf:_9 <https://w3id.org/cdisc/cosmos/dss/LB/GLUCPE/LBLOINC> ;
    cosmos_sdtm:biomedicalConceptId NCIT:C105585 ;
    cosmos_sdtm:domain "LB" ;
    cosmos_sdtm:packageDate "2026-05-26"^^xsd:date ;
    cosmos_sdtm:packageType <https://www.cdisc.org/cosmos/sdtm_v1.0/PackageTypeEnum#sdtm> ;
    cosmos_sdtm:sdtmigStartVersion "3-2" ;
    cosmos_sdtm:shortName "Plasma Equivalent Glucose" ;
    cosmos_sdtm:source "LB.LBTESTCD" ;
    cosmos_sdtm:variables <https://w3id.org/cdisc/cosmos/dss/LB/GLUCPE/LBCAT>,
        <https://w3id.org/cdisc/cosmos/dss/LB/GLUCPE/LBDTC>,
        <https://w3id.org/cdisc/cosmos/dss/LB/GLUCPE/LBFAST>,
        <https://w3id.org/cdisc/cosmos/dss/LB/GLUCPE/LBLOINC>,
        <https://w3id.org/cdisc/cosmos/dss/LB/GLUCPE/LBMETHOD>,
        <https://w3id.org/cdisc/cosmos/dss/LB/GLUCPE/LBORRES>,
        <https://w3id.org/cdisc/cosmos/dss/LB/GLUCPE/LBORRESU>,
        <https://w3id.org/cdisc/cosmos/dss/LB/GLUCPE/LBSPEC>,
        <https://w3id.org/cdisc/cosmos/dss/LB/GLUCPE/LBSTRESC>,
        <https://w3id.org/cdisc/cosmos/dss/LB/GLUCPE/LBSTRESN>,
        <https://w3id.org/cdisc/cosmos/dss/LB/GLUCPE/LBSTRESU>,
        <https://w3id.org/cdisc/cosmos/dss/LB/GLUCPE/LBTEST>,
        <https://w3id.org/cdisc/cosmos/dss/LB/GLUCPE/LBTESTCD>,
        <https://w3id.org/cdisc/cosmos/dss/LB/GLUCPE/SPDEVID> .

<https://w3id.org/cdisc/cosmos/dss/LB/GLUCPL> a cosmos_sdtm:SDTMGroup ;
    dcterms:identifier "GLUCPL" ;
    rdf:_1 <https://w3id.org/cdisc/cosmos/dss/LB/GLUCPL/LBTESTCD> ;
    rdf:_10 <https://w3id.org/cdisc/cosmos/dss/LB/GLUCPL/LBSPEC> ;
    rdf:_11 <https://w3id.org/cdisc/cosmos/dss/LB/GLUCPL/LBFAST> ;
    rdf:_12 <https://w3id.org/cdisc/cosmos/dss/LB/GLUCPL/LBDTC> ;
    rdf:_2 <https://w3id.org/cdisc/cosmos/dss/LB/GLUCPL/LBTEST> ;
    rdf:_3 <https://w3id.org/cdisc/cosmos/dss/LB/GLUCPL/LBCAT> ;
    rdf:_4 <https://w3id.org/cdisc/cosmos/dss/LB/GLUCPL/LBORRES> ;
    rdf:_5 <https://w3id.org/cdisc/cosmos/dss/LB/GLUCPL/LBORRESU> ;
    rdf:_6 <https://w3id.org/cdisc/cosmos/dss/LB/GLUCPL/LBSTRESC> ;
    rdf:_7 <https://w3id.org/cdisc/cosmos/dss/LB/GLUCPL/LBSTRESN> ;
    rdf:_8 <https://w3id.org/cdisc/cosmos/dss/LB/GLUCPL/LBSTRESU> ;
    rdf:_9 <https://w3id.org/cdisc/cosmos/dss/LB/GLUCPL/LBLOINC> ;
    cosmos_sdtm:biomedicalConceptId NCIT:C105585 ;
    cosmos_sdtm:domain "LB" ;
    cosmos_sdtm:packageDate "2026-05-26"^^xsd:date ;
    cosmos_sdtm:packageType <https://www.cdisc.org/cosmos/sdtm_v1.0/PackageTypeEnum#sdtm> ;
    cosmos_sdtm:sdtmigStartVersion "3-2" ;
    cosmos_sdtm:shortName "Glucose Concentration in Plasma" ;
    cosmos_sdtm:source "LB.LBTESTCD" ;
    cosmos_sdtm:variables <https://w3id.org/cdisc/cosmos/dss/LB/GLUCPL/LBCAT>,
        <https://w3id.org/cdisc/cosmos/dss/LB/GLUCPL/LBDTC>,
        <https://w3id.org/cdisc/cosmos/dss/LB/GLUCPL/LBFAST>,
        <https://w3id.org/cdisc/cosmos/dss/LB/GLUCPL/LBLOINC>,
        <https://w3id.org/cdisc/cosmos/dss/LB/GLUCPL/LBORRES>,
        <https://w3id.org/cdisc/cosmos/dss/LB/GLUCPL/LBORRESU>,
        <https://w3id.org/cdisc/cosmos/dss/LB/GLUCPL/LBSPEC>,
        <https://w3id.org/cdisc/cosmos/dss/LB/GLUCPL/LBSTRESC>,
        <https://w3id.org/cdisc/cosmos/dss/LB/GLUCPL/LBSTRESN>,
        <https://w3id.org/cdisc/cosmos/dss/LB/GLUCPL/LBSTRESU>,
        <https://w3id.org/cdisc/cosmos/dss/LB/GLUCPL/LBTEST>,
        <https://w3id.org/cdisc/cosmos/dss/LB/GLUCPL/LBTESTCD> .

<https://w3id.org/cdisc/cosmos/dss/LB/GLUCSER> a cosmos_sdtm:SDTMGroup ;
    dcterms:identifier "GLUCSER" ;
    rdf:_1 <https://w3id.org/cdisc/cosmos/dss/LB/GLUCSER/LBTESTCD> ;
    rdf:_10 <https://w3id.org/cdisc/cosmos/dss/LB/GLUCSER/LBSPEC> ;
    rdf:_11 <https://w3id.org/cdisc/cosmos/dss/LB/GLUCSER/LBFAST> ;
    rdf:_12 <https://w3id.org/cdisc/cosmos/dss/LB/GLUCSER/LBDTC> ;
    rdf:_2 <https://w3id.org/cdisc/cosmos/dss/LB/GLUCSER/LBTEST> ;
    rdf:_3 <https://w3id.org/cdisc/cosmos/dss/LB/GLUCSER/LBCAT> ;
    rdf:_4 <https://w3id.org/cdisc/cosmos/dss/LB/GLUCSER/LBORRES> ;
    rdf:_5 <https://w3id.org/cdisc/cosmos/dss/LB/GLUCSER/LBORRESU> ;
    rdf:_6 <https://w3id.org/cdisc/cosmos/dss/LB/GLUCSER/LBSTRESC> ;
    rdf:_7 <https://w3id.org/cdisc/cosmos/dss/LB/GLUCSER/LBSTRESN> ;
    rdf:_8 <https://w3id.org/cdisc/cosmos/dss/LB/GLUCSER/LBSTRESU> ;
    rdf:_9 <https://w3id.org/cdisc/cosmos/dss/LB/GLUCSER/LBLOINC> ;
    cosmos_sdtm:biomedicalConceptId NCIT:C105585 ;
    cosmos_sdtm:domain "LB" ;
    cosmos_sdtm:packageDate "2026-05-26"^^xsd:date ;
    cosmos_sdtm:packageType <https://www.cdisc.org/cosmos/sdtm_v1.0/PackageTypeEnum#sdtm> ;
    cosmos_sdtm:sdtmigStartVersion "3-2" ;
    cosmos_sdtm:shortName "Glucose Concentration in Serum" ;
    cosmos_sdtm:source "LB.LBTESTCD" ;
    cosmos_sdtm:variables <https://w3id.org/cdisc/cosmos/dss/LB/GLUCSER/LBCAT>,
        <https://w3id.org/cdisc/cosmos/dss/LB/GLUCSER/LBDTC>,
        <https://w3id.org/cdisc/cosmos/dss/LB/GLUCSER/LBFAST>,
        <https://w3id.org/cdisc/cosmos/dss/LB/GLUCSER/LBLOINC>,
        <https://w3id.org/cdisc/cosmos/dss/LB/GLUCSER/LBORRES>,
        <https://w3id.org/cdisc/cosmos/dss/LB/GLUCSER/LBORRESU>,
        <https://w3id.org/cdisc/cosmos/dss/LB/GLUCSER/LBSPEC>,
        <https://w3id.org/cdisc/cosmos/dss/LB/GLUCSER/LBSTRESC>,
        <https://w3id.org/cdisc/cosmos/dss/LB/GLUCSER/LBSTRESN>,
        <https://w3id.org/cdisc/cosmos/dss/LB/GLUCSER/LBSTRESU>,
        <https://w3id.org/cdisc/cosmos/dss/LB/GLUCSER/LBTEST>,
        <https://w3id.org/cdisc/cosmos/dss/LB/GLUCSER/LBTESTCD> .

<https://w3id.org/cdisc/cosmos/dss/LB/GLUCSERPL> a cosmos_sdtm:SDTMGroup ;
    dcterms:identifier "GLUCSERPL" ;
    rdf:_1 <https://w3id.org/cdisc/cosmos/dss/LB/GLUCSERPL/LBTESTCD> ;
    rdf:_10 <https://w3id.org/cdisc/cosmos/dss/LB/GLUCSERPL/LBSPEC> ;
    rdf:_11 <https://w3id.org/cdisc/cosmos/dss/LB/GLUCSERPL/LBFAST> ;
    rdf:_12 <https://w3id.org/cdisc/cosmos/dss/LB/GLUCSERPL/LBDTC> ;
    rdf:_2 <https://w3id.org/cdisc/cosmos/dss/LB/GLUCSERPL/LBTEST> ;
    rdf:_3 <https://w3id.org/cdisc/cosmos/dss/LB/GLUCSERPL/LBCAT> ;
    rdf:_4 <https://w3id.org/cdisc/cosmos/dss/LB/GLUCSERPL/LBORRES> ;
    rdf:_5 <https://w3id.org/cdisc/cosmos/dss/LB/GLUCSERPL/LBORRESU> ;
    rdf:_6 <https://w3id.org/cdisc/cosmos/dss/LB/GLUCSERPL/LBSTRESC> ;
    rdf:_7 <https://w3id.org/cdisc/cosmos/dss/LB/GLUCSERPL/LBSTRESN> ;
    rdf:_8 <https://w3id.org/cdisc/cosmos/dss/LB/GLUCSERPL/LBSTRESU> ;
    rdf:_9 <https://w3id.org/cdisc/cosmos/dss/LB/GLUCSERPL/LBLOINC> ;
    cosmos_sdtm:biomedicalConceptId NCIT:C105585 ;
    cosmos_sdtm:domain "LB" ;
    cosmos_sdtm:packageDate "2026-05-26"^^xsd:date ;
    cosmos_sdtm:packageType <https://www.cdisc.org/cosmos/sdtm_v1.0/PackageTypeEnum#sdtm> ;
    cosmos_sdtm:sdtmigStartVersion "3-2" ;
    cosmos_sdtm:shortName "Glucose Concentration in Serum or Plasma" ;
    cosmos_sdtm:source "LB.LBTESTCD" ;
    cosmos_sdtm:variables <https://w3id.org/cdisc/cosmos/dss/LB/GLUCSERPL/LBCAT>,
        <https://w3id.org/cdisc/cosmos/dss/LB/GLUCSERPL/LBDTC>,
        <https://w3id.org/cdisc/cosmos/dss/LB/GLUCSERPL/LBFAST>,
        <https://w3id.org/cdisc/cosmos/dss/LB/GLUCSERPL/LBLOINC>,
        <https://w3id.org/cdisc/cosmos/dss/LB/GLUCSERPL/LBORRES>,
        <https://w3id.org/cdisc/cosmos/dss/LB/GLUCSERPL/LBORRESU>,
        <https://w3id.org/cdisc/cosmos/dss/LB/GLUCSERPL/LBSPEC>,
        <https://w3id.org/cdisc/cosmos/dss/LB/GLUCSERPL/LBSTRESC>,
        <https://w3id.org/cdisc/cosmos/dss/LB/GLUCSERPL/LBSTRESN>,
        <https://w3id.org/cdisc/cosmos/dss/LB/GLUCSERPL/LBSTRESU>,
        <https://w3id.org/cdisc/cosmos/dss/LB/GLUCSERPL/LBTEST>,
        <https://w3id.org/cdisc/cosmos/dss/LB/GLUCSERPL/LBTESTCD> .

<https://w3id.org/cdisc/cosmos/dss/LB/GLUCUA> a cosmos_sdtm:SDTMGroup ;
    dcterms:identifier "GLUCUA" ;
    rdf:_1 <https://w3id.org/cdisc/cosmos/dss/LB/GLUCUA/LBTESTCD> ;
    rdf:_10 <https://w3id.org/cdisc/cosmos/dss/LB/GLUCUA/LBDTC> ;
    rdf:_2 <https://w3id.org/cdisc/cosmos/dss/LB/GLUCUA/LBTEST> ;
    rdf:_3 <https://w3id.org/cdisc/cosmos/dss/LB/GLUCUA/LBCAT> ;
    rdf:_4 <https://w3id.org/cdisc/cosmos/dss/LB/GLUCUA/LBORRES> ;
    rdf:_5 <https://w3id.org/cdisc/cosmos/dss/LB/GLUCUA/LBSTRESC> ;
    rdf:_6 <https://w3id.org/cdisc/cosmos/dss/LB/GLUCUA/LBLOINC> ;
    rdf:_7 <https://w3id.org/cdisc/cosmos/dss/LB/GLUCUA/LBSPEC> ;
    rdf:_8 <https://w3id.org/cdisc/cosmos/dss/LB/GLUCUA/LBMETHOD> ;
    rdf:_9 <https://w3id.org/cdisc/cosmos/dss/LB/GLUCUA/LBFAST> ;
    cosmos_sdtm:biomedicalConceptId NCIT:C105585 ;
    cosmos_sdtm:domain "LB" ;
    cosmos_sdtm:packageDate "2026-05-26"^^xsd:date ;
    cosmos_sdtm:packageType <https://www.cdisc.org/cosmos/sdtm_v1.0/PackageTypeEnum#sdtm> ;
    cosmos_sdtm:sdtmigStartVersion "3-2" ;
    cosmos_sdtm:shortName "Glucose Presence in Urine by Test Strip" ;
    cosmos_sdtm:source "LB.LBTESTCD" ;
    cosmos_sdtm:variables <https://w3id.org/cdisc/cosmos/dss/LB/GLUCUA/LBCAT>,
        <https://w3id.org/cdisc/cosmos/dss/LB/GLUCUA/LBDTC>,
        <https://w3id.org/cdisc/cosmos/dss/LB/GLUCUA/LBFAST>,
        <https://w3id.org/cdisc/cosmos/dss/LB/GLUCUA/LBLOINC>,
        <https://w3id.org/cdisc/cosmos/dss/LB/GLUCUA/LBMETHOD>,
        <https://w3id.org/cdisc/cosmos/dss/LB/GLUCUA/LBORRES>,
        <https://w3id.org/cdisc/cosmos/dss/LB/GLUCUA/LBSPEC>,
        <https://w3id.org/cdisc/cosmos/dss/LB/GLUCUA/LBSTRESC>,
        <https://w3id.org/cdisc/cosmos/dss/LB/GLUCUA/LBTEST>,
        <https://w3id.org/cdisc/cosmos/dss/LB/GLUCUA/LBTESTCD> .

<https://w3id.org/cdisc/cosmos/dss/LB/GLUCURIN> a cosmos_sdtm:SDTMGroup ;
    dcterms:identifier "GLUCURIN" ;
    rdf:_1 <https://w3id.org/cdisc/cosmos/dss/LB/GLUCURIN/LBTESTCD> ;
    rdf:_10 <https://w3id.org/cdisc/cosmos/dss/LB/GLUCURIN/LBSPEC> ;
    rdf:_11 <https://w3id.org/cdisc/cosmos/dss/LB/GLUCURIN/LBFAST> ;
    rdf:_12 <https://w3id.org/cdisc/cosmos/dss/LB/GLUCURIN/LBDTC> ;
    rdf:_2 <https://w3id.org/cdisc/cosmos/dss/LB/GLUCURIN/LBTEST> ;
    rdf:_3 <https://w3id.org/cdisc/cosmos/dss/LB/GLUCURIN/LBCAT> ;
    rdf:_4 <https://w3id.org/cdisc/cosmos/dss/LB/GLUCURIN/LBORRES> ;
    rdf:_5 <https://w3id.org/cdisc/cosmos/dss/LB/GLUCURIN/LBORRESU> ;
    rdf:_6 <https://w3id.org/cdisc/cosmos/dss/LB/GLUCURIN/LBSTRESC> ;
    rdf:_7 <https://w3id.org/cdisc/cosmos/dss/LB/GLUCURIN/LBSTRESN> ;
    rdf:_8 <https://w3id.org/cdisc/cosmos/dss/LB/GLUCURIN/LBSTRESU> ;
    rdf:_9 <https://w3id.org/cdisc/cosmos/dss/LB/GLUCURIN/LBLOINC> ;
    cosmos_sdtm:biomedicalConceptId NCIT:C105585 ;
    cosmos_sdtm:domain "LB" ;
    cosmos_sdtm:packageDate "2026-05-26"^^xsd:date ;
    cosmos_sdtm:packageType <https://www.cdisc.org/cosmos/sdtm_v1.0/PackageTypeEnum#sdtm> ;
    cosmos_sdtm:sdtmigStartVersion "3-2" ;
    cosmos_sdtm:shortName "Glucose Concentration in Urine" ;
    cosmos_sdtm:source "LB.LBTESTCD" ;
    cosmos_sdtm:variables <https://w3id.org/cdisc/cosmos/dss/LB/GLUCURIN/LBCAT>,
        <https://w3id.org/cdisc/cosmos/dss/LB/GLUCURIN/LBDTC>,
        <https://w3id.org/cdisc/cosmos/dss/LB/GLUCURIN/LBFAST>,
        <https://w3id.org/cdisc/cosmos/dss/LB/GLUCURIN/LBLOINC>,
        <https://w3id.org/cdisc/cosmos/dss/LB/GLUCURIN/LBORRES>,
        <https://w3id.org/cdisc/cosmos/dss/LB/GLUCURIN/LBORRESU>,
        <https://w3id.org/cdisc/cosmos/dss/LB/GLUCURIN/LBSPEC>,
        <https://w3id.org/cdisc/cosmos/dss/LB/GLUCURIN/LBSTRESC>,
        <https://w3id.org/cdisc/cosmos/dss/LB/GLUCURIN/LBSTRESN>,
        <https://w3id.org/cdisc/cosmos/dss/LB/GLUCURIN/LBSTRESU>,
        <https://w3id.org/cdisc/cosmos/dss/LB/GLUCURIN/LBTEST>,
        <https://w3id.org/cdisc/cosmos/dss/LB/GLUCURIN/LBTESTCD> .

<https://w3id.org/cdisc/cosmos/dss/LB/GLUCURINPRES> a cosmos_sdtm:SDTMGroup ;
    dcterms:identifier "GLUCURINPRES" ;
    rdf:_1 <https://w3id.org/cdisc/cosmos/dss/LB/GLUCURINPRES/LBTESTCD> ;
    rdf:_2 <https://w3id.org/cdisc/cosmos/dss/LB/GLUCURINPRES/LBTEST> ;
    rdf:_3 <https://w3id.org/cdisc/cosmos/dss/LB/GLUCURINPRES/LBCAT> ;
    rdf:_4 <https://w3id.org/cdisc/cosmos/dss/LB/GLUCURINPRES/LBORRES> ;
    rdf:_5 <https://w3id.org/cdisc/cosmos/dss/LB/GLUCURINPRES/LBSTRESC> ;
    rdf:_6 <https://w3id.org/cdisc/cosmos/dss/LB/GLUCURINPRES/LBLOINC> ;
    rdf:_7 <https://w3id.org/cdisc/cosmos/dss/LB/GLUCURINPRES/LBSPEC> ;
    rdf:_8 <https://w3id.org/cdisc/cosmos/dss/LB/GLUCURINPRES/LBFAST> ;
    rdf:_9 <https://w3id.org/cdisc/cosmos/dss/LB/GLUCURINPRES/LBDTC> ;
    cosmos_sdtm:biomedicalConceptId NCIT:C105585 ;
    cosmos_sdtm:domain "LB" ;
    cosmos_sdtm:packageDate "2026-05-26"^^xsd:date ;
    cosmos_sdtm:packageType <https://www.cdisc.org/cosmos/sdtm_v1.0/PackageTypeEnum#sdtm> ;
    cosmos_sdtm:sdtmigStartVersion "3-2" ;
    cosmos_sdtm:shortName "Glucose Presence in Urine" ;
    cosmos_sdtm:source "LB.LBTESTCD" ;
    cosmos_sdtm:variables <https://w3id.org/cdisc/cosmos/dss/LB/GLUCURINPRES/LBCAT>,
        <https://w3id.org/cdisc/cosmos/dss/LB/GLUCURINPRES/LBDTC>,
        <https://w3id.org/cdisc/cosmos/dss/LB/GLUCURINPRES/LBFAST>,
        <https://w3id.org/cdisc/cosmos/dss/LB/GLUCURINPRES/LBLOINC>,
        <https://w3id.org/cdisc/cosmos/dss/LB/GLUCURINPRES/LBORRES>,
        <https://w3id.org/cdisc/cosmos/dss/LB/GLUCURINPRES/LBSPEC>,
        <https://w3id.org/cdisc/cosmos/dss/LB/GLUCURINPRES/LBSTRESC>,
        <https://w3id.org/cdisc/cosmos/dss/LB/GLUCURINPRES/LBTEST>,
        <https://w3id.org/cdisc/cosmos/dss/LB/GLUCURINPRES/LBTESTCD> .

<https://w3id.org/cdisc/cosmos/dss/LB/HBA1CBLD> a cosmos_sdtm:SDTMGroup ;
    dcterms:identifier "HBA1CBLD" ;
    rdf:_1 <https://w3id.org/cdisc/cosmos/dss/LB/HBA1CBLD/LBTESTCD> ;
    rdf:_10 <https://w3id.org/cdisc/cosmos/dss/LB/HBA1CBLD/LBSPEC> ;
    rdf:_11 <https://w3id.org/cdisc/cosmos/dss/LB/HBA1CBLD/LBFAST> ;
    rdf:_12 <https://w3id.org/cdisc/cosmos/dss/LB/HBA1CBLD/LBDTC> ;
    rdf:_2 <https://w3id.org/cdisc/cosmos/dss/LB/HBA1CBLD/LBTEST> ;
    rdf:_3 <https://w3id.org/cdisc/cosmos/dss/LB/HBA1CBLD/LBCAT> ;
    rdf:_4 <https://w3id.org/cdisc/cosmos/dss/LB/HBA1CBLD/LBORRES> ;
    rdf:_5 <https://w3id.org/cdisc/cosmos/dss/LB/HBA1CBLD/LBORRESU> ;
    rdf:_6 <https://w3id.org/cdisc/cosmos/dss/LB/HBA1CBLD/LBSTRESC> ;
    rdf:_7 <https://w3id.org/cdisc/cosmos/dss/LB/HBA1CBLD/LBSTRESN> ;
    rdf:_8 <https://w3id.org/cdisc/cosmos/dss/LB/HBA1CBLD/LBSTRESU> ;
    rdf:_9 <https://w3id.org/cdisc/cosmos/dss/LB/HBA1CBLD/LBLOINC> ;
    cosmos_sdtm:biomedicalConceptId NCIT:C64849 ;
    cosmos_sdtm:domain "LB" ;
    cosmos_sdtm:packageDate "2026-05-26"^^xsd:date ;
    cosmos_sdtm:packageType <https://www.cdisc.org/cosmos/sdtm_v1.0/PackageTypeEnum#sdtm> ;
    cosmos_sdtm:sdtmigStartVersion "3-2" ;
    cosmos_sdtm:shortName "Hemoglobin A1C Concentration in Blood" ;
    cosmos_sdtm:source "LB.LBTESTCD" ;
    cosmos_sdtm:variables <https://w3id.org/cdisc/cosmos/dss/LB/HBA1CBLD/LBCAT>,
        <https://w3id.org/cdisc/cosmos/dss/LB/HBA1CBLD/LBDTC>,
        <https://w3id.org/cdisc/cosmos/dss/LB/HBA1CBLD/LBFAST>,
        <https://w3id.org/cdisc/cosmos/dss/LB/HBA1CBLD/LBLOINC>,
        <https://w3id.org/cdisc/cosmos/dss/LB/HBA1CBLD/LBORRES>,
        <https://w3id.org/cdisc/cosmos/dss/LB/HBA1CBLD/LBORRESU>,
        <https://w3id.org/cdisc/cosmos/dss/LB/HBA1CBLD/LBSPEC>,
        <https://w3id.org/cdisc/cosmos/dss/LB/HBA1CBLD/LBSTRESC>,
        <https://w3id.org/cdisc/cosmos/dss/LB/HBA1CBLD/LBSTRESN>,
        <https://w3id.org/cdisc/cosmos/dss/LB/HBA1CBLD/LBSTRESU>,
        <https://w3id.org/cdisc/cosmos/dss/LB/HBA1CBLD/LBTEST>,
        <https://w3id.org/cdisc/cosmos/dss/LB/HBA1CBLD/LBTESTCD> .

<https://w3id.org/cdisc/cosmos/dss/LB/HBA1CHGBBLD> a cosmos_sdtm:SDTMGroup ;
    dcterms:identifier "HBA1CHGBBLD" ;
    rdf:_1 <https://w3id.org/cdisc/cosmos/dss/LB/HBA1CHGBBLD/LBTESTCD> ;
    rdf:_10 <https://w3id.org/cdisc/cosmos/dss/LB/HBA1CHGBBLD/LBSPEC> ;
    rdf:_11 <https://w3id.org/cdisc/cosmos/dss/LB/HBA1CHGBBLD/LBFAST> ;
    rdf:_12 <https://w3id.org/cdisc/cosmos/dss/LB/HBA1CHGBBLD/LBDTC> ;
    rdf:_2 <https://w3id.org/cdisc/cosmos/dss/LB/HBA1CHGBBLD/LBTEST> ;
    rdf:_3 <https://w3id.org/cdisc/cosmos/dss/LB/HBA1CHGBBLD/LBCAT> ;
    rdf:_4 <https://w3id.org/cdisc/cosmos/dss/LB/HBA1CHGBBLD/LBORRES> ;
    rdf:_5 <https://w3id.org/cdisc/cosmos/dss/LB/HBA1CHGBBLD/LBORRESU> ;
    rdf:_6 <https://w3id.org/cdisc/cosmos/dss/LB/HBA1CHGBBLD/LBSTRESC> ;
    rdf:_7 <https://w3id.org/cdisc/cosmos/dss/LB/HBA1CHGBBLD/LBSTRESN> ;
    rdf:_8 <https://w3id.org/cdisc/cosmos/dss/LB/HBA1CHGBBLD/LBSTRESU> ;
    rdf:_9 <https://w3id.org/cdisc/cosmos/dss/LB/HBA1CHGBBLD/LBLOINC> ;
    cosmos_sdtm:biomedicalConceptId NCIT:C111207 ;
    cosmos_sdtm:domain "LB" ;
    cosmos_sdtm:packageDate "2026-05-26"^^xsd:date ;
    cosmos_sdtm:packageType <https://www.cdisc.org/cosmos/sdtm_v1.0/PackageTypeEnum#sdtm> ;
    cosmos_sdtm:sdtmigStartVersion "3-2" ;
    cosmos_sdtm:shortName "Hemoglobin A1C to Hemoglobin Ratio Measurement" ;
    cosmos_sdtm:source "LB.LBTESTCD" ;
    cosmos_sdtm:variables <https://w3id.org/cdisc/cosmos/dss/LB/HBA1CHGBBLD/LBCAT>,
        <https://w3id.org/cdisc/cosmos/dss/LB/HBA1CHGBBLD/LBDTC>,
        <https://w3id.org/cdisc/cosmos/dss/LB/HBA1CHGBBLD/LBFAST>,
        <https://w3id.org/cdisc/cosmos/dss/LB/HBA1CHGBBLD/LBLOINC>,
        <https://w3id.org/cdisc/cosmos/dss/LB/HBA1CHGBBLD/LBORRES>,
        <https://w3id.org/cdisc/cosmos/dss/LB/HBA1CHGBBLD/LBORRESU>,
        <https://w3id.org/cdisc/cosmos/dss/LB/HBA1CHGBBLD/LBSPEC>,
        <https://w3id.org/cdisc/cosmos/dss/LB/HBA1CHGBBLD/LBSTRESC>,
        <https://w3id.org/cdisc/cosmos/dss/LB/HBA1CHGBBLD/LBSTRESN>,
        <https://w3id.org/cdisc/cosmos/dss/LB/HBA1CHGBBLD/LBSTRESU>,
        <https://w3id.org/cdisc/cosmos/dss/LB/HBA1CHGBBLD/LBTEST>,
        <https://w3id.org/cdisc/cosmos/dss/LB/HBA1CHGBBLD/LBTESTCD> .

<https://w3id.org/cdisc/cosmos/dss/LB/HBCOHGB> a cosmos_sdtm:SDTMGroup ;
    dcterms:identifier "HBCOHGB" ;
    rdf:_1 <https://w3id.org/cdisc/cosmos/dss/LB/HBCOHGB/LBTESTCD> ;
    rdf:_10 <https://w3id.org/cdisc/cosmos/dss/LB/HBCOHGB/LBSPEC> ;
    rdf:_11 <https://w3id.org/cdisc/cosmos/dss/LB/HBCOHGB/LBDTC> ;
    rdf:_2 <https://w3id.org/cdisc/cosmos/dss/LB/HBCOHGB/LBTEST> ;
    rdf:_3 <https://w3id.org/cdisc/cosmos/dss/LB/HBCOHGB/LBCAT> ;
    rdf:_4 <https://w3id.org/cdisc/cosmos/dss/LB/HBCOHGB/LBORRES> ;
    rdf:_5 <https://w3id.org/cdisc/cosmos/dss/LB/HBCOHGB/LBORRESU> ;
    rdf:_6 <https://w3id.org/cdisc/cosmos/dss/LB/HBCOHGB/LBSTRESC> ;
    rdf:_7 <https://w3id.org/cdisc/cosmos/dss/LB/HBCOHGB/LBSTRESN> ;
    rdf:_8 <https://w3id.org/cdisc/cosmos/dss/LB/HBCOHGB/LBSTRESU> ;
    rdf:_9 <https://w3id.org/cdisc/cosmos/dss/LB/HBCOHGB/LBLOINC> ;
    cosmos_sdtm:biomedicalConceptId NCIT:C147355 ;
    cosmos_sdtm:domain "LB" ;
    cosmos_sdtm:packageDate "2026-05-26"^^xsd:date ;
    cosmos_sdtm:packageType <https://www.cdisc.org/cosmos/sdtm_v1.0/PackageTypeEnum#sdtm> ;
    cosmos_sdtm:sdtmigStartVersion "3-2" ;
    cosmos_sdtm:shortName "Carboxyhemoglobin to Total Hemoglobin in Blood" ;
    cosmos_sdtm:source "LB.LBTESTCD" ;
    cosmos_sdtm:variables <https://w3id.org/cdisc/cosmos/dss/LB/HBCOHGB/LBCAT>,
        <https://w3id.org/cdisc/cosmos/dss/LB/HBCOHGB/LBDTC>,
        <https://w3id.org/cdisc/cosmos/dss/LB/HBCOHGB/LBLOINC>,
        <https://w3id.org/cdisc/cosmos/dss/LB/HBCOHGB/LBORRES>,
        <https://w3id.org/cdisc/cosmos/dss/LB/HBCOHGB/LBORRESU>,
        <https://w3id.org/cdisc/cosmos/dss/LB/HBCOHGB/LBSPEC>,
        <https://w3id.org/cdisc/cosmos/dss/LB/HBCOHGB/LBSTRESC>,
        <https://w3id.org/cdisc/cosmos/dss/LB/HBCOHGB/LBSTRESN>,
        <https://w3id.org/cdisc/cosmos/dss/LB/HBCOHGB/LBSTRESU>,
        <https://w3id.org/cdisc/cosmos/dss/LB/HBCOHGB/LBTEST>,
        <https://w3id.org/cdisc/cosmos/dss/LB/HBCOHGB/LBTESTCD> .

<https://w3id.org/cdisc/cosmos/dss/LB/HCGCNCTSERPL> a cosmos_sdtm:SDTMGroup ;
    dcterms:identifier "HCGCNCTSERPL" ;
    rdf:_1 <https://w3id.org/cdisc/cosmos/dss/LB/HCGCNCTSERPL/LBTESTCD> ;
    rdf:_10 <https://w3id.org/cdisc/cosmos/dss/LB/HCGCNCTSERPL/LBSPEC> ;
    rdf:_11 <https://w3id.org/cdisc/cosmos/dss/LB/HCGCNCTSERPL/LBDTC> ;
    rdf:_2 <https://w3id.org/cdisc/cosmos/dss/LB/HCGCNCTSERPL/LBTEST> ;
    rdf:_3 <https://w3id.org/cdisc/cosmos/dss/LB/HCGCNCTSERPL/LBCAT> ;
    rdf:_4 <https://w3id.org/cdisc/cosmos/dss/LB/HCGCNCTSERPL/LBORRES> ;
    rdf:_5 <https://w3id.org/cdisc/cosmos/dss/LB/HCGCNCTSERPL/LBORRESU> ;
    rdf:_6 <https://w3id.org/cdisc/cosmos/dss/LB/HCGCNCTSERPL/LBSTRESC> ;
    rdf:_7 <https://w3id.org/cdisc/cosmos/dss/LB/HCGCNCTSERPL/LBSTRESN> ;
    rdf:_8 <https://w3id.org/cdisc/cosmos/dss/LB/HCGCNCTSERPL/LBSTRESU> ;
    rdf:_9 <https://w3id.org/cdisc/cosmos/dss/LB/HCGCNCTSERPL/LBLOINC> ;
    cosmos_sdtm:biomedicalConceptId NCIT:C73495 ;
    cosmos_sdtm:domain "LB" ;
    cosmos_sdtm:packageDate "2026-05-26"^^xsd:date ;
    cosmos_sdtm:packageType <https://www.cdisc.org/cosmos/sdtm_v1.0/PackageTypeEnum#sdtm> ;
    cosmos_sdtm:sdtmigStartVersion "3-2" ;
    cosmos_sdtm:shortName "HCG Concentration in Serum or Plasma" ;
    cosmos_sdtm:source "LB.LBTESTCD" ;
    cosmos_sdtm:variables <https://w3id.org/cdisc/cosmos/dss/LB/HCGCNCTSERPL/LBCAT>,
        <https://w3id.org/cdisc/cosmos/dss/LB/HCGCNCTSERPL/LBDTC>,
        <https://w3id.org/cdisc/cosmos/dss/LB/HCGCNCTSERPL/LBLOINC>,
        <https://w3id.org/cdisc/cosmos/dss/LB/HCGCNCTSERPL/LBORRES>,
        <https://w3id.org/cdisc/cosmos/dss/LB/HCGCNCTSERPL/LBORRESU>,
        <https://w3id.org/cdisc/cosmos/dss/LB/HCGCNCTSERPL/LBSPEC>,
        <https://w3id.org/cdisc/cosmos/dss/LB/HCGCNCTSERPL/LBSTRESC>,
        <https://w3id.org/cdisc/cosmos/dss/LB/HCGCNCTSERPL/LBSTRESN>,
        <https://w3id.org/cdisc/cosmos/dss/LB/HCGCNCTSERPL/LBSTRESU>,
        <https://w3id.org/cdisc/cosmos/dss/LB/HCGCNCTSERPL/LBTEST>,
        <https://w3id.org/cdisc/cosmos/dss/LB/HCGCNCTSERPL/LBTESTCD> .

<https://w3id.org/cdisc/cosmos/dss/LB/HCGSERPL> a cosmos_sdtm:SDTMGroup ;
    dcterms:identifier "HCGSERPL" ;
    rdf:_1 <https://w3id.org/cdisc/cosmos/dss/LB/HCGSERPL/LBTESTCD> ;
    rdf:_2 <https://w3id.org/cdisc/cosmos/dss/LB/HCGSERPL/LBTEST> ;
    rdf:_3 <https://w3id.org/cdisc/cosmos/dss/LB/HCGSERPL/LBCAT> ;
    rdf:_4 <https://w3id.org/cdisc/cosmos/dss/LB/HCGSERPL/LBORRES> ;
    rdf:_5 <https://w3id.org/cdisc/cosmos/dss/LB/HCGSERPL/LBSTRESC> ;
    rdf:_6 <https://w3id.org/cdisc/cosmos/dss/LB/HCGSERPL/LBLOINC> ;
    rdf:_7 <https://w3id.org/cdisc/cosmos/dss/LB/HCGSERPL/LBSPEC> ;
    rdf:_8 <https://w3id.org/cdisc/cosmos/dss/LB/HCGSERPL/LBDTC> ;
    cosmos_sdtm:biomedicalConceptId NCIT:C64851 ;
    cosmos_sdtm:domain "LB" ;
    cosmos_sdtm:packageDate "2026-05-26"^^xsd:date ;
    cosmos_sdtm:packageType <https://www.cdisc.org/cosmos/sdtm_v1.0/PackageTypeEnum#sdtm> ;
    cosmos_sdtm:sdtmigStartVersion "3-2" ;
    cosmos_sdtm:shortName "HCG Presence in Serum or Plasma" ;
    cosmos_sdtm:source "LB.LBTESTCD" ;
    cosmos_sdtm:variables <https://w3id.org/cdisc/cosmos/dss/LB/HCGSERPL/LBCAT>,
        <https://w3id.org/cdisc/cosmos/dss/LB/HCGSERPL/LBDTC>,
        <https://w3id.org/cdisc/cosmos/dss/LB/HCGSERPL/LBLOINC>,
        <https://w3id.org/cdisc/cosmos/dss/LB/HCGSERPL/LBORRES>,
        <https://w3id.org/cdisc/cosmos/dss/LB/HCGSERPL/LBSPEC>,
        <https://w3id.org/cdisc/cosmos/dss/LB/HCGSERPL/LBSTRESC>,
        <https://w3id.org/cdisc/cosmos/dss/LB/HCGSERPL/LBTEST>,
        <https://w3id.org/cdisc/cosmos/dss/LB/HCGSERPL/LBTESTCD> .

<https://w3id.org/cdisc/cosmos/dss/LB/HCGURIN> a cosmos_sdtm:SDTMGroup ;
    dcterms:identifier "HCGURIN" ;
    rdf:_1 <https://w3id.org/cdisc/cosmos/dss/LB/HCGURIN/LBTESTCD> ;
    rdf:_2 <https://w3id.org/cdisc/cosmos/dss/LB/HCGURIN/LBTEST> ;
    rdf:_3 <https://w3id.org/cdisc/cosmos/dss/LB/HCGURIN/LBCAT> ;
    rdf:_4 <https://w3id.org/cdisc/cosmos/dss/LB/HCGURIN/LBORRES> ;
    rdf:_5 <https://w3id.org/cdisc/cosmos/dss/LB/HCGURIN/LBSTRESC> ;
    rdf:_6 <https://w3id.org/cdisc/cosmos/dss/LB/HCGURIN/LBLOINC> ;
    rdf:_7 <https://w3id.org/cdisc/cosmos/dss/LB/HCGURIN/LBSPEC> ;
    rdf:_8 <https://w3id.org/cdisc/cosmos/dss/LB/HCGURIN/LBDTC> ;
    cosmos_sdtm:biomedicalConceptId NCIT:C64851 ;
    cosmos_sdtm:domain "LB" ;
    cosmos_sdtm:packageDate "2026-05-26"^^xsd:date ;
    cosmos_sdtm:packageType <https://www.cdisc.org/cosmos/sdtm_v1.0/PackageTypeEnum#sdtm> ;
    cosmos_sdtm:sdtmigStartVersion "3-2" ;
    cosmos_sdtm:shortName "HCG Presence in Urine" ;
    cosmos_sdtm:source "LB.LBTESTCD" ;
    cosmos_sdtm:variables <https://w3id.org/cdisc/cosmos/dss/LB/HCGURIN/LBCAT>,
        <https://w3id.org/cdisc/cosmos/dss/LB/HCGURIN/LBDTC>,
        <https://w3id.org/cdisc/cosmos/dss/LB/HCGURIN/LBLOINC>,
        <https://w3id.org/cdisc/cosmos/dss/LB/HCGURIN/LBORRES>,
        <https://w3id.org/cdisc/cosmos/dss/LB/HCGURIN/LBSPEC>,
        <https://w3id.org/cdisc/cosmos/dss/LB/HCGURIN/LBSTRESC>,
        <https://w3id.org/cdisc/cosmos/dss/LB/HCGURIN/LBTEST>,
        <https://w3id.org/cdisc/cosmos/dss/LB/HCGURIN/LBTESTCD> .

<https://w3id.org/cdisc/cosmos/dss/LB/HCTBLD> a cosmos_sdtm:SDTMGroup ;
    dcterms:identifier "HCTBLD" ;
    rdf:_1 <https://w3id.org/cdisc/cosmos/dss/LB/HCTBLD/LBTESTCD> ;
    rdf:_10 <https://w3id.org/cdisc/cosmos/dss/LB/HCTBLD/LBSPEC> ;
    rdf:_11 <https://w3id.org/cdisc/cosmos/dss/LB/HCTBLD/LBFAST> ;
    rdf:_12 <https://w3id.org/cdisc/cosmos/dss/LB/HCTBLD/LBDTC> ;
    rdf:_2 <https://w3id.org/cdisc/cosmos/dss/LB/HCTBLD/LBTEST> ;
    rdf:_3 <https://w3id.org/cdisc/cosmos/dss/LB/HCTBLD/LBCAT> ;
    rdf:_4 <https://w3id.org/cdisc/cosmos/dss/LB/HCTBLD/LBORRES> ;
    rdf:_5 <https://w3id.org/cdisc/cosmos/dss/LB/HCTBLD/LBORRESU> ;
    rdf:_6 <https://w3id.org/cdisc/cosmos/dss/LB/HCTBLD/LBSTRESC> ;
    rdf:_7 <https://w3id.org/cdisc/cosmos/dss/LB/HCTBLD/LBSTRESN> ;
    rdf:_8 <https://w3id.org/cdisc/cosmos/dss/LB/HCTBLD/LBSTRESU> ;
    rdf:_9 <https://w3id.org/cdisc/cosmos/dss/LB/HCTBLD/LBLOINC> ;
    cosmos_sdtm:biomedicalConceptId NCIT:C64796 ;
    cosmos_sdtm:domain "LB" ;
    cosmos_sdtm:packageDate "2026-05-26"^^xsd:date ;
    cosmos_sdtm:packageType <https://www.cdisc.org/cosmos/sdtm_v1.0/PackageTypeEnum#sdtm> ;
    cosmos_sdtm:sdtmigStartVersion "3-2" ;
    cosmos_sdtm:shortName "Hematocrit of Blood" ;
    cosmos_sdtm:source "LB.LBTESTCD" ;
    cosmos_sdtm:variables <https://w3id.org/cdisc/cosmos/dss/LB/HCTBLD/LBCAT>,
        <https://w3id.org/cdisc/cosmos/dss/LB/HCTBLD/LBDTC>,
        <https://w3id.org/cdisc/cosmos/dss/LB/HCTBLD/LBFAST>,
        <https://w3id.org/cdisc/cosmos/dss/LB/HCTBLD/LBLOINC>,
        <https://w3id.org/cdisc/cosmos/dss/LB/HCTBLD/LBORRES>,
        <https://w3id.org/cdisc/cosmos/dss/LB/HCTBLD/LBORRESU>,
        <https://w3id.org/cdisc/cosmos/dss/LB/HCTBLD/LBSPEC>,
        <https://w3id.org/cdisc/cosmos/dss/LB/HCTBLD/LBSTRESC>,
        <https://w3id.org/cdisc/cosmos/dss/LB/HCTBLD/LBSTRESN>,
        <https://w3id.org/cdisc/cosmos/dss/LB/HCTBLD/LBSTRESU>,
        <https://w3id.org/cdisc/cosmos/dss/LB/HCTBLD/LBTEST>,
        <https://w3id.org/cdisc/cosmos/dss/LB/HCTBLD/LBTESTCD> .

<https://w3id.org/cdisc/cosmos/dss/LB/HDLSERPL> a cosmos_sdtm:SDTMGroup ;
    dcterms:identifier "HDLSERPL" ;
    rdf:_1 <https://w3id.org/cdisc/cosmos/dss/LB/HDLSERPL/LBTESTCD> ;
    rdf:_10 <https://w3id.org/cdisc/cosmos/dss/LB/HDLSERPL/LBSPEC> ;
    rdf:_11 <https://w3id.org/cdisc/cosmos/dss/LB/HDLSERPL/LBFAST> ;
    rdf:_12 <https://w3id.org/cdisc/cosmos/dss/LB/HDLSERPL/LBDTC> ;
    rdf:_2 <https://w3id.org/cdisc/cosmos/dss/LB/HDLSERPL/LBTEST> ;
    rdf:_3 <https://w3id.org/cdisc/cosmos/dss/LB/HDLSERPL/LBCAT> ;
    rdf:_4 <https://w3id.org/cdisc/cosmos/dss/LB/HDLSERPL/LBORRES> ;
    rdf:_5 <https://w3id.org/cdisc/cosmos/dss/LB/HDLSERPL/LBORRESU> ;
    rdf:_6 <https://w3id.org/cdisc/cosmos/dss/LB/HDLSERPL/LBSTRESC> ;
    rdf:_7 <https://w3id.org/cdisc/cosmos/dss/LB/HDLSERPL/LBSTRESN> ;
    rdf:_8 <https://w3id.org/cdisc/cosmos/dss/LB/HDLSERPL/LBSTRESU> ;
    rdf:_9 <https://w3id.org/cdisc/cosmos/dss/LB/HDLSERPL/LBLOINC> ;
    cosmos_sdtm:biomedicalConceptId NCIT:C105587 ;
    cosmos_sdtm:domain "LB" ;
    cosmos_sdtm:packageDate "2026-05-26"^^xsd:date ;
    cosmos_sdtm:packageType <https://www.cdisc.org/cosmos/sdtm_v1.0/PackageTypeEnum#sdtm> ;
    cosmos_sdtm:sdtmigStartVersion "3-2" ;
    cosmos_sdtm:shortName "HDL Cholesterol in Serum or Plasma" ;
    cosmos_sdtm:source "LB.LBTESTCD" ;
    cosmos_sdtm:variables <https://w3id.org/cdisc/cosmos/dss/LB/HDLSERPL/LBCAT>,
        <https://w3id.org/cdisc/cosmos/dss/LB/HDLSERPL/LBDTC>,
        <https://w3id.org/cdisc/cosmos/dss/LB/HDLSERPL/LBFAST>,
        <https://w3id.org/cdisc/cosmos/dss/LB/HDLSERPL/LBLOINC>,
        <https://w3id.org/cdisc/cosmos/dss/LB/HDLSERPL/LBORRES>,
        <https://w3id.org/cdisc/cosmos/dss/LB/HDLSERPL/LBORRESU>,
        <https://w3id.org/cdisc/cosmos/dss/LB/HDLSERPL/LBSPEC>,
        <https://w3id.org/cdisc/cosmos/dss/LB/HDLSERPL/LBSTRESC>,
        <https://w3id.org/cdisc/cosmos/dss/LB/HDLSERPL/LBSTRESN>,
        <https://w3id.org/cdisc/cosmos/dss/LB/HDLSERPL/LBSTRESU>,
        <https://w3id.org/cdisc/cosmos/dss/LB/HDLSERPL/LBTEST>,
        <https://w3id.org/cdisc/cosmos/dss/LB/HDLSERPL/LBTESTCD> .

<https://w3id.org/cdisc/cosmos/dss/LB/HGBBLD> a cosmos_sdtm:SDTMGroup ;
    dcterms:identifier "HGBBLD" ;
    rdf:_1 <https://w3id.org/cdisc/cosmos/dss/LB/HGBBLD/LBTESTCD> ;
    rdf:_10 <https://w3id.org/cdisc/cosmos/dss/LB/HGBBLD/LBSPEC> ;
    rdf:_11 <https://w3id.org/cdisc/cosmos/dss/LB/HGBBLD/LBFAST> ;
    rdf:_12 <https://w3id.org/cdisc/cosmos/dss/LB/HGBBLD/LBDTC> ;
    rdf:_2 <https://w3id.org/cdisc/cosmos/dss/LB/HGBBLD/LBTEST> ;
    rdf:_3 <https://w3id.org/cdisc/cosmos/dss/LB/HGBBLD/LBCAT> ;
    rdf:_4 <https://w3id.org/cdisc/cosmos/dss/LB/HGBBLD/LBORRES> ;
    rdf:_5 <https://w3id.org/cdisc/cosmos/dss/LB/HGBBLD/LBORRESU> ;
    rdf:_6 <https://w3id.org/cdisc/cosmos/dss/LB/HGBBLD/LBSTRESC> ;
    rdf:_7 <https://w3id.org/cdisc/cosmos/dss/LB/HGBBLD/LBSTRESN> ;
    rdf:_8 <https://w3id.org/cdisc/cosmos/dss/LB/HGBBLD/LBSTRESU> ;
    rdf:_9 <https://w3id.org/cdisc/cosmos/dss/LB/HGBBLD/LBLOINC> ;
    cosmos_sdtm:biomedicalConceptId NCIT:C64848 ;
    cosmos_sdtm:domain "LB" ;
    cosmos_sdtm:packageDate "2026-05-26"^^xsd:date ;
    cosmos_sdtm:packageType <https://www.cdisc.org/cosmos/sdtm_v1.0/PackageTypeEnum#sdtm> ;
    cosmos_sdtm:sdtmigStartVersion "3-2" ;
    cosmos_sdtm:shortName "Hemoglobin Concentration in Blood" ;
    cosmos_sdtm:source "LB.LBTESTCD" ;
    cosmos_sdtm:variables <https://w3id.org/cdisc/cosmos/dss/LB/HGBBLD/LBCAT>,
        <https://w3id.org/cdisc/cosmos/dss/LB/HGBBLD/LBDTC>,
        <https://w3id.org/cdisc/cosmos/dss/LB/HGBBLD/LBFAST>,
        <https://w3id.org/cdisc/cosmos/dss/LB/HGBBLD/LBLOINC>,
        <https://w3id.org/cdisc/cosmos/dss/LB/HGBBLD/LBORRES>,
        <https://w3id.org/cdisc/cosmos/dss/LB/HGBBLD/LBORRESU>,
        <https://w3id.org/cdisc/cosmos/dss/LB/HGBBLD/LBSPEC>,
        <https://w3id.org/cdisc/cosmos/dss/LB/HGBBLD/LBSTRESC>,
        <https://w3id.org/cdisc/cosmos/dss/LB/HGBBLD/LBSTRESN>,
        <https://w3id.org/cdisc/cosmos/dss/LB/HGBBLD/LBSTRESU>,
        <https://w3id.org/cdisc/cosmos/dss/LB/HGBBLD/LBTEST>,
        <https://w3id.org/cdisc/cosmos/dss/LB/HGBBLD/LBTESTCD> .

<https://w3id.org/cdisc/cosmos/dss/LB/HGBBLDDIP> a cosmos_sdtm:SDTMGroup ;
    dcterms:identifier "HGBBLDDIP" ;
    rdf:_1 <https://w3id.org/cdisc/cosmos/dss/LB/HGBBLDDIP/LBTESTCD> ;
    rdf:_10 <https://w3id.org/cdisc/cosmos/dss/LB/HGBBLDDIP/LBSPEC> ;
    rdf:_11 <https://w3id.org/cdisc/cosmos/dss/LB/HGBBLDDIP/LBMETHOD> ;
    rdf:_12 <https://w3id.org/cdisc/cosmos/dss/LB/HGBBLDDIP/LBFAST> ;
    rdf:_13 <https://w3id.org/cdisc/cosmos/dss/LB/HGBBLDDIP/LBDTC> ;
    rdf:_2 <https://w3id.org/cdisc/cosmos/dss/LB/HGBBLDDIP/LBTEST> ;
    rdf:_3 <https://w3id.org/cdisc/cosmos/dss/LB/HGBBLDDIP/LBCAT> ;
    rdf:_4 <https://w3id.org/cdisc/cosmos/dss/LB/HGBBLDDIP/LBORRES> ;
    rdf:_5 <https://w3id.org/cdisc/cosmos/dss/LB/HGBBLDDIP/LBORRESU> ;
    rdf:_6 <https://w3id.org/cdisc/cosmos/dss/LB/HGBBLDDIP/LBSTRESC> ;
    rdf:_7 <https://w3id.org/cdisc/cosmos/dss/LB/HGBBLDDIP/LBSTRESN> ;
    rdf:_8 <https://w3id.org/cdisc/cosmos/dss/LB/HGBBLDDIP/LBSTRESU> ;
    rdf:_9 <https://w3id.org/cdisc/cosmos/dss/LB/HGBBLDDIP/LBLOINC> ;
    cosmos_sdtm:biomedicalConceptId NCIT:C64848 ;
    cosmos_sdtm:domain "LB" ;
    cosmos_sdtm:packageDate "2026-05-26"^^xsd:date ;
    cosmos_sdtm:packageType <https://www.cdisc.org/cosmos/sdtm_v1.0/PackageTypeEnum#sdtm> ;
    cosmos_sdtm:sdtmigStartVersion "3-2" ;
    cosmos_sdtm:shortName "Hemoglobin in Blood by Dipstick" ;
    cosmos_sdtm:source "LB.LBTESTCD" ;
    cosmos_sdtm:variables <https://w3id.org/cdisc/cosmos/dss/LB/HGBBLDDIP/LBCAT>,
        <https://w3id.org/cdisc/cosmos/dss/LB/HGBBLDDIP/LBDTC>,
        <https://w3id.org/cdisc/cosmos/dss/LB/HGBBLDDIP/LBFAST>,
        <https://w3id.org/cdisc/cosmos/dss/LB/HGBBLDDIP/LBLOINC>,
        <https://w3id.org/cdisc/cosmos/dss/LB/HGBBLDDIP/LBMETHOD>,
        <https://w3id.org/cdisc/cosmos/dss/LB/HGBBLDDIP/LBORRES>,
        <https://w3id.org/cdisc/cosmos/dss/LB/HGBBLDDIP/LBORRESU>,
        <https://w3id.org/cdisc/cosmos/dss/LB/HGBBLDDIP/LBSPEC>,
        <https://w3id.org/cdisc/cosmos/dss/LB/HGBBLDDIP/LBSTRESC>,
        <https://w3id.org/cdisc/cosmos/dss/LB/HGBBLDDIP/LBSTRESN>,
        <https://w3id.org/cdisc/cosmos/dss/LB/HGBBLDDIP/LBSTRESU>,
        <https://w3id.org/cdisc/cosmos/dss/LB/HGBBLDDIP/LBTEST>,
        <https://w3id.org/cdisc/cosmos/dss/LB/HGBBLDDIP/LBTESTCD> .

<https://w3id.org/cdisc/cosmos/dss/LB/INRBLD> a cosmos_sdtm:SDTMGroup ;
    dcterms:identifier "INRBLD" ;
    rdf:_1 <https://w3id.org/cdisc/cosmos/dss/LB/INRBLD/LBTESTCD> ;
    rdf:_10 <https://w3id.org/cdisc/cosmos/dss/LB/INRBLD/LBSPEC> ;
    rdf:_11 <https://w3id.org/cdisc/cosmos/dss/LB/INRBLD/LBDTC> ;
    rdf:_2 <https://w3id.org/cdisc/cosmos/dss/LB/INRBLD/LBTEST> ;
    rdf:_3 <https://w3id.org/cdisc/cosmos/dss/LB/INRBLD/LBCAT> ;
    rdf:_4 <https://w3id.org/cdisc/cosmos/dss/LB/INRBLD/LBORRES> ;
    rdf:_5 <https://w3id.org/cdisc/cosmos/dss/LB/INRBLD/LBORRESU> ;
    rdf:_6 <https://w3id.org/cdisc/cosmos/dss/LB/INRBLD/LBSTRESC> ;
    rdf:_7 <https://w3id.org/cdisc/cosmos/dss/LB/INRBLD/LBSTRESN> ;
    rdf:_8 <https://w3id.org/cdisc/cosmos/dss/LB/INRBLD/LBSTRESU> ;
    rdf:_9 <https://w3id.org/cdisc/cosmos/dss/LB/INRBLD/LBLOINC> ;
    cosmos_sdtm:biomedicalConceptId NCIT:C64805 ;
    cosmos_sdtm:domain "LB" ;
    cosmos_sdtm:packageDate "2026-05-26"^^xsd:date ;
    cosmos_sdtm:packageType <https://www.cdisc.org/cosmos/sdtm_v1.0/PackageTypeEnum#sdtm> ;
    cosmos_sdtm:sdtmigStartVersion "3-2" ;
    cosmos_sdtm:shortName "Prothrombin Intl. Normalized Ratio in Blood" ;
    cosmos_sdtm:source "LB.LBTESTCD" ;
    cosmos_sdtm:variables <https://w3id.org/cdisc/cosmos/dss/LB/INRBLD/LBCAT>,
        <https://w3id.org/cdisc/cosmos/dss/LB/INRBLD/LBDTC>,
        <https://w3id.org/cdisc/cosmos/dss/LB/INRBLD/LBLOINC>,
        <https://w3id.org/cdisc/cosmos/dss/LB/INRBLD/LBORRES>,
        <https://w3id.org/cdisc/cosmos/dss/LB/INRBLD/LBORRESU>,
        <https://w3id.org/cdisc/cosmos/dss/LB/INRBLD/LBSPEC>,
        <https://w3id.org/cdisc/cosmos/dss/LB/INRBLD/LBSTRESC>,
        <https://w3id.org/cdisc/cosmos/dss/LB/INRBLD/LBSTRESN>,
        <https://w3id.org/cdisc/cosmos/dss/LB/INRBLD/LBSTRESU>,
        <https://w3id.org/cdisc/cosmos/dss/LB/INRBLD/LBTEST>,
        <https://w3id.org/cdisc/cosmos/dss/LB/INRBLD/LBTESTCD> .

<https://w3id.org/cdisc/cosmos/dss/LB/INRPPP> a cosmos_sdtm:SDTMGroup ;
    dcterms:identifier "INRPPP" ;
    rdf:_1 <https://w3id.org/cdisc/cosmos/dss/LB/INRPPP/LBTESTCD> ;
    rdf:_10 <https://w3id.org/cdisc/cosmos/dss/LB/INRPPP/LBSPEC> ;
    rdf:_11 <https://w3id.org/cdisc/cosmos/dss/LB/INRPPP/LBDTC> ;
    rdf:_2 <https://w3id.org/cdisc/cosmos/dss/LB/INRPPP/LBTEST> ;
    rdf:_3 <https://w3id.org/cdisc/cosmos/dss/LB/INRPPP/LBCAT> ;
    rdf:_4 <https://w3id.org/cdisc/cosmos/dss/LB/INRPPP/LBORRES> ;
    rdf:_5 <https://w3id.org/cdisc/cosmos/dss/LB/INRPPP/LBORRESU> ;
    rdf:_6 <https://w3id.org/cdisc/cosmos/dss/LB/INRPPP/LBSTRESC> ;
    rdf:_7 <https://w3id.org/cdisc/cosmos/dss/LB/INRPPP/LBSTRESN> ;
    rdf:_8 <https://w3id.org/cdisc/cosmos/dss/LB/INRPPP/LBSTRESU> ;
    rdf:_9 <https://w3id.org/cdisc/cosmos/dss/LB/INRPPP/LBLOINC> ;
    cosmos_sdtm:biomedicalConceptId NCIT:C64805 ;
    cosmos_sdtm:domain "LB" ;
    cosmos_sdtm:packageDate "2026-05-26"^^xsd:date ;
    cosmos_sdtm:packageType <https://www.cdisc.org/cosmos/sdtm_v1.0/PackageTypeEnum#sdtm> ;
    cosmos_sdtm:sdtmigStartVersion "3-2" ;
    cosmos_sdtm:shortName "Prothrombin Intl. Normalized Ratio in Platelet Poor Plasma" ;
    cosmos_sdtm:source "LB.LBTESTCD" ;
    cosmos_sdtm:variables <https://w3id.org/cdisc/cosmos/dss/LB/INRPPP/LBCAT>,
        <https://w3id.org/cdisc/cosmos/dss/LB/INRPPP/LBDTC>,
        <https://w3id.org/cdisc/cosmos/dss/LB/INRPPP/LBLOINC>,
        <https://w3id.org/cdisc/cosmos/dss/LB/INRPPP/LBORRES>,
        <https://w3id.org/cdisc/cosmos/dss/LB/INRPPP/LBORRESU>,
        <https://w3id.org/cdisc/cosmos/dss/LB/INRPPP/LBSPEC>,
        <https://w3id.org/cdisc/cosmos/dss/LB/INRPPP/LBSTRESC>,
        <https://w3id.org/cdisc/cosmos/dss/LB/INRPPP/LBSTRESN>,
        <https://w3id.org/cdisc/cosmos/dss/LB/INRPPP/LBSTRESU>,
        <https://w3id.org/cdisc/cosmos/dss/LB/INRPPP/LBTEST>,
        <https://w3id.org/cdisc/cosmos/dss/LB/INRPPP/LBTESTCD> .

<https://w3id.org/cdisc/cosmos/dss/LB/INTLK6SERPL> a cosmos_sdtm:SDTMGroup ;
    dcterms:identifier "INTLK6SERPL" ;
    rdf:_1 <https://w3id.org/cdisc/cosmos/dss/LB/INTLK6SERPL/LBTESTCD> ;
    rdf:_10 <https://w3id.org/cdisc/cosmos/dss/LB/INTLK6SERPL/LBSPEC> ;
    rdf:_11 <https://w3id.org/cdisc/cosmos/dss/LB/INTLK6SERPL/LBDTC> ;
    rdf:_2 <https://w3id.org/cdisc/cosmos/dss/LB/INTLK6SERPL/LBTEST> ;
    rdf:_3 <https://w3id.org/cdisc/cosmos/dss/LB/INTLK6SERPL/LBCAT> ;
    rdf:_4 <https://w3id.org/cdisc/cosmos/dss/LB/INTLK6SERPL/LBORRES> ;
    rdf:_5 <https://w3id.org/cdisc/cosmos/dss/LB/INTLK6SERPL/LBORRESU> ;
    rdf:_6 <https://w3id.org/cdisc/cosmos/dss/LB/INTLK6SERPL/LBSTRESC> ;
    rdf:_7 <https://w3id.org/cdisc/cosmos/dss/LB/INTLK6SERPL/LBSTRESN> ;
    rdf:_8 <https://w3id.org/cdisc/cosmos/dss/LB/INTLK6SERPL/LBSTRESU> ;
    rdf:_9 <https://w3id.org/cdisc/cosmos/dss/LB/INTLK6SERPL/LBLOINC> ;
    cosmos_sdtm:biomedicalConceptId NCIT:C74834 ;
    cosmos_sdtm:domain "LB" ;
    cosmos_sdtm:packageDate "2026-05-26"^^xsd:date ;
    cosmos_sdtm:packageType <https://www.cdisc.org/cosmos/sdtm_v1.0/PackageTypeEnum#sdtm> ;
    cosmos_sdtm:sdtmigStartVersion "3-2" ;
    cosmos_sdtm:shortName "Interleukin 6 in Serum or Plasma" ;
    cosmos_sdtm:source "LB.LBTESTCD" ;
    cosmos_sdtm:variables <https://w3id.org/cdisc/cosmos/dss/LB/INTLK6SERPL/LBCAT>,
        <https://w3id.org/cdisc/cosmos/dss/LB/INTLK6SERPL/LBDTC>,
        <https://w3id.org/cdisc/cosmos/dss/LB/INTLK6SERPL/LBLOINC>,
        <https://w3id.org/cdisc/cosmos/dss/LB/INTLK6SERPL/LBORRES>,
        <https://w3id.org/cdisc/cosmos/dss/LB/INTLK6SERPL/LBORRESU>,
        <https://w3id.org/cdisc/cosmos/dss/LB/INTLK6SERPL/LBSPEC>,
        <https://w3id.org/cdisc/cosmos/dss/LB/INTLK6SERPL/LBSTRESC>,
        <https://w3id.org/cdisc/cosmos/dss/LB/INTLK6SERPL/LBSTRESN>,
        <https://w3id.org/cdisc/cosmos/dss/LB/INTLK6SERPL/LBSTRESU>,
        <https://w3id.org/cdisc/cosmos/dss/LB/INTLK6SERPL/LBTEST>,
        <https://w3id.org/cdisc/cosmos/dss/LB/INTLK6SERPL/LBTESTCD> .

<https://w3id.org/cdisc/cosmos/dss/LB/KBLD> a cosmos_sdtm:SDTMGroup ;
    dcterms:identifier "KBLD" ;
    rdf:_1 <https://w3id.org/cdisc/cosmos/dss/LB/KBLD/LBTESTCD> ;
    rdf:_10 <https://w3id.org/cdisc/cosmos/dss/LB/KBLD/LBSPEC> ;
    rdf:_11 <https://w3id.org/cdisc/cosmos/dss/LB/KBLD/LBFAST> ;
    rdf:_12 <https://w3id.org/cdisc/cosmos/dss/LB/KBLD/LBDTC> ;
    rdf:_2 <https://w3id.org/cdisc/cosmos/dss/LB/KBLD/LBTEST> ;
    rdf:_3 <https://w3id.org/cdisc/cosmos/dss/LB/KBLD/LBCAT> ;
    rdf:_4 <https://w3id.org/cdisc/cosmos/dss/LB/KBLD/LBORRES> ;
    rdf:_5 <https://w3id.org/cdisc/cosmos/dss/LB/KBLD/LBORRESU> ;
    rdf:_6 <https://w3id.org/cdisc/cosmos/dss/LB/KBLD/LBSTRESC> ;
    rdf:_7 <https://w3id.org/cdisc/cosmos/dss/LB/KBLD/LBSTRESN> ;
    rdf:_8 <https://w3id.org/cdisc/cosmos/dss/LB/KBLD/LBSTRESU> ;
    rdf:_9 <https://w3id.org/cdisc/cosmos/dss/LB/KBLD/LBLOINC> ;
    cosmos_sdtm:biomedicalConceptId NCIT:C64853 ;
    cosmos_sdtm:domain "LB" ;
    cosmos_sdtm:packageDate "2026-05-26"^^xsd:date ;
    cosmos_sdtm:packageType <https://www.cdisc.org/cosmos/sdtm_v1.0/PackageTypeEnum#sdtm> ;
    cosmos_sdtm:sdtmigStartVersion "3-2" ;
    cosmos_sdtm:shortName "Potassium Concentration in Blood" ;
    cosmos_sdtm:source "LB.LBTESTCD" ;
    cosmos_sdtm:variables <https://w3id.org/cdisc/cosmos/dss/LB/KBLD/LBCAT>,
        <https://w3id.org/cdisc/cosmos/dss/LB/KBLD/LBDTC>,
        <https://w3id.org/cdisc/cosmos/dss/LB/KBLD/LBFAST>,
        <https://w3id.org/cdisc/cosmos/dss/LB/KBLD/LBLOINC>,
        <https://w3id.org/cdisc/cosmos/dss/LB/KBLD/LBORRES>,
        <https://w3id.org/cdisc/cosmos/dss/LB/KBLD/LBORRESU>,
        <https://w3id.org/cdisc/cosmos/dss/LB/KBLD/LBSPEC>,
        <https://w3id.org/cdisc/cosmos/dss/LB/KBLD/LBSTRESC>,
        <https://w3id.org/cdisc/cosmos/dss/LB/KBLD/LBSTRESN>,
        <https://w3id.org/cdisc/cosmos/dss/LB/KBLD/LBSTRESU>,
        <https://w3id.org/cdisc/cosmos/dss/LB/KBLD/LBTEST>,
        <https://w3id.org/cdisc/cosmos/dss/LB/KBLD/LBTESTCD> .

<https://w3id.org/cdisc/cosmos/dss/LB/KETONESURIN> a cosmos_sdtm:SDTMGroup ;
    dcterms:identifier "KETONESURIN" ;
    rdf:_1 <https://w3id.org/cdisc/cosmos/dss/LB/KETONESURIN/LBTESTCD> ;
    rdf:_10 <https://w3id.org/cdisc/cosmos/dss/LB/KETONESURIN/LBSPEC> ;
    rdf:_11 <https://w3id.org/cdisc/cosmos/dss/LB/KETONESURIN/LBFAST> ;
    rdf:_12 <https://w3id.org/cdisc/cosmos/dss/LB/KETONESURIN/LBDTC> ;
    rdf:_2 <https://w3id.org/cdisc/cosmos/dss/LB/KETONESURIN/LBTEST> ;
    rdf:_3 <https://w3id.org/cdisc/cosmos/dss/LB/KETONESURIN/LBCAT> ;
    rdf:_4 <https://w3id.org/cdisc/cosmos/dss/LB/KETONESURIN/LBORRES> ;
    rdf:_5 <https://w3id.org/cdisc/cosmos/dss/LB/KETONESURIN/LBORRESU> ;
    rdf:_6 <https://w3id.org/cdisc/cosmos/dss/LB/KETONESURIN/LBSTRESC> ;
    rdf:_7 <https://w3id.org/cdisc/cosmos/dss/LB/KETONESURIN/LBSTRESN> ;
    rdf:_8 <https://w3id.org/cdisc/cosmos/dss/LB/KETONESURIN/LBSTRESU> ;
    rdf:_9 <https://w3id.org/cdisc/cosmos/dss/LB/KETONESURIN/LBLOINC> ;
    cosmos_sdtm:biomedicalConceptId NCIT:C64854 ;
    cosmos_sdtm:domain "LB" ;
    cosmos_sdtm:packageDate "2026-05-26"^^xsd:date ;
    cosmos_sdtm:packageType <https://www.cdisc.org/cosmos/sdtm_v1.0/PackageTypeEnum#sdtm> ;
    cosmos_sdtm:sdtmigStartVersion "3-2" ;
    cosmos_sdtm:shortName "Ketone Concentration in Urine" ;
    cosmos_sdtm:source "LB.LBTESTCD" ;
    cosmos_sdtm:variables <https://w3id.org/cdisc/cosmos/dss/LB/KETONESURIN/LBCAT>,
        <https://w3id.org/cdisc/cosmos/dss/LB/KETONESURIN/LBDTC>,
        <https://w3id.org/cdisc/cosmos/dss/LB/KETONESURIN/LBFAST>,
        <https://w3id.org/cdisc/cosmos/dss/LB/KETONESURIN/LBLOINC>,
        <https://w3id.org/cdisc/cosmos/dss/LB/KETONESURIN/LBORRES>,
        <https://w3id.org/cdisc/cosmos/dss/LB/KETONESURIN/LBORRESU>,
        <https://w3id.org/cdisc/cosmos/dss/LB/KETONESURIN/LBSPEC>,
        <https://w3id.org/cdisc/cosmos/dss/LB/KETONESURIN/LBSTRESC>,
        <https://w3id.org/cdisc/cosmos/dss/LB/KETONESURIN/LBSTRESN>,
        <https://w3id.org/cdisc/cosmos/dss/LB/KETONESURIN/LBSTRESU>,
        <https://w3id.org/cdisc/cosmos/dss/LB/KETONESURIN/LBTEST>,
        <https://w3id.org/cdisc/cosmos/dss/LB/KETONESURIN/LBTESTCD> .

<https://w3id.org/cdisc/cosmos/dss/LB/KETONESURINPRES> a cosmos_sdtm:SDTMGroup ;
    dcterms:identifier "KETONESURINPRES" ;
    rdf:_1 <https://w3id.org/cdisc/cosmos/dss/LB/KETONESURINPRES/LBTESTCD> ;
    rdf:_2 <https://w3id.org/cdisc/cosmos/dss/LB/KETONESURINPRES/LBTEST> ;
    rdf:_3 <https://w3id.org/cdisc/cosmos/dss/LB/KETONESURINPRES/LBCAT> ;
    rdf:_4 <https://w3id.org/cdisc/cosmos/dss/LB/KETONESURINPRES/LBORRES> ;
    rdf:_5 <https://w3id.org/cdisc/cosmos/dss/LB/KETONESURINPRES/LBSTRESC> ;
    rdf:_6 <https://w3id.org/cdisc/cosmos/dss/LB/KETONESURINPRES/LBLOINC> ;
    rdf:_7 <https://w3id.org/cdisc/cosmos/dss/LB/KETONESURINPRES/LBSPEC> ;
    rdf:_8 <https://w3id.org/cdisc/cosmos/dss/LB/KETONESURINPRES/LBFAST> ;
    rdf:_9 <https://w3id.org/cdisc/cosmos/dss/LB/KETONESURINPRES/LBDTC> ;
    cosmos_sdtm:biomedicalConceptId NCIT:C64854 ;
    cosmos_sdtm:domain "LB" ;
    cosmos_sdtm:packageDate "2026-05-26"^^xsd:date ;
    cosmos_sdtm:packageType <https://www.cdisc.org/cosmos/sdtm_v1.0/PackageTypeEnum#sdtm> ;
    cosmos_sdtm:sdtmigStartVersion "3-2" ;
    cosmos_sdtm:shortName "Ketone Presence in Urine" ;
    cosmos_sdtm:source "LB.LBTESTCD" ;
    cosmos_sdtm:variables <https://w3id.org/cdisc/cosmos/dss/LB/KETONESURINPRES/LBCAT>,
        <https://w3id.org/cdisc/cosmos/dss/LB/KETONESURINPRES/LBDTC>,
        <https://w3id.org/cdisc/cosmos/dss/LB/KETONESURINPRES/LBFAST>,
        <https://w3id.org/cdisc/cosmos/dss/LB/KETONESURINPRES/LBLOINC>,
        <https://w3id.org/cdisc/cosmos/dss/LB/KETONESURINPRES/LBORRES>,
        <https://w3id.org/cdisc/cosmos/dss/LB/KETONESURINPRES/LBSPEC>,
        <https://w3id.org/cdisc/cosmos/dss/LB/KETONESURINPRES/LBSTRESC>,
        <https://w3id.org/cdisc/cosmos/dss/LB/KETONESURINPRES/LBTEST>,
        <https://w3id.org/cdisc/cosmos/dss/LB/KETONESURINPRES/LBTESTCD> .

<https://w3id.org/cdisc/cosmos/dss/LB/KSERPL> a cosmos_sdtm:SDTMGroup ;
    dcterms:identifier "KSERPL" ;
    rdf:_1 <https://w3id.org/cdisc/cosmos/dss/LB/KSERPL/LBTESTCD> ;
    rdf:_10 <https://w3id.org/cdisc/cosmos/dss/LB/KSERPL/LBSPEC> ;
    rdf:_11 <https://w3id.org/cdisc/cosmos/dss/LB/KSERPL/LBFAST> ;
    rdf:_12 <https://w3id.org/cdisc/cosmos/dss/LB/KSERPL/LBDTC> ;
    rdf:_2 <https://w3id.org/cdisc/cosmos/dss/LB/KSERPL/LBTEST> ;
    rdf:_3 <https://w3id.org/cdisc/cosmos/dss/LB/KSERPL/LBCAT> ;
    rdf:_4 <https://w3id.org/cdisc/cosmos/dss/LB/KSERPL/LBORRES> ;
    rdf:_5 <https://w3id.org/cdisc/cosmos/dss/LB/KSERPL/LBORRESU> ;
    rdf:_6 <https://w3id.org/cdisc/cosmos/dss/LB/KSERPL/LBSTRESC> ;
    rdf:_7 <https://w3id.org/cdisc/cosmos/dss/LB/KSERPL/LBSTRESN> ;
    rdf:_8 <https://w3id.org/cdisc/cosmos/dss/LB/KSERPL/LBSTRESU> ;
    rdf:_9 <https://w3id.org/cdisc/cosmos/dss/LB/KSERPL/LBLOINC> ;
    cosmos_sdtm:biomedicalConceptId NCIT:C64853 ;
    cosmos_sdtm:domain "LB" ;
    cosmos_sdtm:packageDate "2026-05-26"^^xsd:date ;
    cosmos_sdtm:packageType <https://www.cdisc.org/cosmos/sdtm_v1.0/PackageTypeEnum#sdtm> ;
    cosmos_sdtm:sdtmigStartVersion "3-2" ;
    cosmos_sdtm:shortName "Potassium Concentration in Serum or Plasma" ;
    cosmos_sdtm:source "LB.LBTESTCD" ;
    cosmos_sdtm:variables <https://w3id.org/cdisc/cosmos/dss/LB/KSERPL/LBCAT>,
        <https://w3id.org/cdisc/cosmos/dss/LB/KSERPL/LBDTC>,
        <https://w3id.org/cdisc/cosmos/dss/LB/KSERPL/LBFAST>,
        <https://w3id.org/cdisc/cosmos/dss/LB/KSERPL/LBLOINC>,
        <https://w3id.org/cdisc/cosmos/dss/LB/KSERPL/LBORRES>,
        <https://w3id.org/cdisc/cosmos/dss/LB/KSERPL/LBORRESU>,
        <https://w3id.org/cdisc/cosmos/dss/LB/KSERPL/LBSPEC>,
        <https://w3id.org/cdisc/cosmos/dss/LB/KSERPL/LBSTRESC>,
        <https://w3id.org/cdisc/cosmos/dss/LB/KSERPL/LBSTRESN>,
        <https://w3id.org/cdisc/cosmos/dss/LB/KSERPL/LBSTRESU>,
        <https://w3id.org/cdisc/cosmos/dss/LB/KSERPL/LBTEST>,
        <https://w3id.org/cdisc/cosmos/dss/LB/KSERPL/LBTESTCD> .

<https://w3id.org/cdisc/cosmos/dss/LB/KURIN> a cosmos_sdtm:SDTMGroup ;
    dcterms:identifier "KURIN" ;
    rdf:_1 <https://w3id.org/cdisc/cosmos/dss/LB/KURIN/LBTESTCD> ;
    rdf:_10 <https://w3id.org/cdisc/cosmos/dss/LB/KURIN/LBSPEC> ;
    rdf:_11 <https://w3id.org/cdisc/cosmos/dss/LB/KURIN/LBFAST> ;
    rdf:_12 <https://w3id.org/cdisc/cosmos/dss/LB/KURIN/LBDTC> ;
    rdf:_2 <https://w3id.org/cdisc/cosmos/dss/LB/KURIN/LBTEST> ;
    rdf:_3 <https://w3id.org/cdisc/cosmos/dss/LB/KURIN/LBCAT> ;
    rdf:_4 <https://w3id.org/cdisc/cosmos/dss/LB/KURIN/LBORRES> ;
    rdf:_5 <https://w3id.org/cdisc/cosmos/dss/LB/KURIN/LBORRESU> ;
    rdf:_6 <https://w3id.org/cdisc/cosmos/dss/LB/KURIN/LBSTRESC> ;
    rdf:_7 <https://w3id.org/cdisc/cosmos/dss/LB/KURIN/LBSTRESN> ;
    rdf:_8 <https://w3id.org/cdisc/cosmos/dss/LB/KURIN/LBSTRESU> ;
    rdf:_9 <https://w3id.org/cdisc/cosmos/dss/LB/KURIN/LBLOINC> ;
    cosmos_sdtm:biomedicalConceptId NCIT:C64853 ;
    cosmos_sdtm:domain "LB" ;
    cosmos_sdtm:packageDate "2026-05-26"^^xsd:date ;
    cosmos_sdtm:packageType <https://www.cdisc.org/cosmos/sdtm_v1.0/PackageTypeEnum#sdtm> ;
    cosmos_sdtm:sdtmigStartVersion "3-2" ;
    cosmos_sdtm:shortName "Potassium Concentration in Urine" ;
    cosmos_sdtm:source "LB.LBTESTCD" ;
    cosmos_sdtm:variables <https://w3id.org/cdisc/cosmos/dss/LB/KURIN/LBCAT>,
        <https://w3id.org/cdisc/cosmos/dss/LB/KURIN/LBDTC>,
        <https://w3id.org/cdisc/cosmos/dss/LB/KURIN/LBFAST>,
        <https://w3id.org/cdisc/cosmos/dss/LB/KURIN/LBLOINC>,
        <https://w3id.org/cdisc/cosmos/dss/LB/KURIN/LBORRES>,
        <https://w3id.org/cdisc/cosmos/dss/LB/KURIN/LBORRESU>,
        <https://w3id.org/cdisc/cosmos/dss/LB/KURIN/LBSPEC>,
        <https://w3id.org/cdisc/cosmos/dss/LB/KURIN/LBSTRESC>,
        <https://w3id.org/cdisc/cosmos/dss/LB/KURIN/LBSTRESN>,
        <https://w3id.org/cdisc/cosmos/dss/LB/KURIN/LBSTRESU>,
        <https://w3id.org/cdisc/cosmos/dss/LB/KURIN/LBTEST>,
        <https://w3id.org/cdisc/cosmos/dss/LB/KURIN/LBTESTCD> .

<https://w3id.org/cdisc/cosmos/dss/LB/LDHSERPL> a cosmos_sdtm:SDTMGroup ;
    dcterms:identifier "LDHSERPL" ;
    rdf:_1 <https://w3id.org/cdisc/cosmos/dss/LB/LDHSERPL/LBTESTCD> ;
    rdf:_10 <https://w3id.org/cdisc/cosmos/dss/LB/LDHSERPL/LBSPEC> ;
    rdf:_11 <https://w3id.org/cdisc/cosmos/dss/LB/LDHSERPL/LBFAST> ;
    rdf:_12 <https://w3id.org/cdisc/cosmos/dss/LB/LDHSERPL/LBDTC> ;
    rdf:_2 <https://w3id.org/cdisc/cosmos/dss/LB/LDHSERPL/LBTEST> ;
    rdf:_3 <https://w3id.org/cdisc/cosmos/dss/LB/LDHSERPL/LBCAT> ;
    rdf:_4 <https://w3id.org/cdisc/cosmos/dss/LB/LDHSERPL/LBORRES> ;
    rdf:_5 <https://w3id.org/cdisc/cosmos/dss/LB/LDHSERPL/LBORRESU> ;
    rdf:_6 <https://w3id.org/cdisc/cosmos/dss/LB/LDHSERPL/LBSTRESC> ;
    rdf:_7 <https://w3id.org/cdisc/cosmos/dss/LB/LDHSERPL/LBSTRESN> ;
    rdf:_8 <https://w3id.org/cdisc/cosmos/dss/LB/LDHSERPL/LBSTRESU> ;
    rdf:_9 <https://w3id.org/cdisc/cosmos/dss/LB/LDHSERPL/LBLOINC> ;
    cosmos_sdtm:biomedicalConceptId NCIT:C64855 ;
    cosmos_sdtm:domain "LB" ;
    cosmos_sdtm:packageDate "2026-05-26"^^xsd:date ;
    cosmos_sdtm:packageType <https://www.cdisc.org/cosmos/sdtm_v1.0/PackageTypeEnum#sdtm> ;
    cosmos_sdtm:sdtmigStartVersion "3-2" ;
    cosmos_sdtm:shortName "Lactate Dehydrogenase Concentration in Serum or Plasma" ;
    cosmos_sdtm:source "LB.LBTESTCD" ;
    cosmos_sdtm:variables <https://w3id.org/cdisc/cosmos/dss/LB/LDHSERPL/LBCAT>,
        <https://w3id.org/cdisc/cosmos/dss/LB/LDHSERPL/LBDTC>,
        <https://w3id.org/cdisc/cosmos/dss/LB/LDHSERPL/LBFAST>,
        <https://w3id.org/cdisc/cosmos/dss/LB/LDHSERPL/LBLOINC>,
        <https://w3id.org/cdisc/cosmos/dss/LB/LDHSERPL/LBORRES>,
        <https://w3id.org/cdisc/cosmos/dss/LB/LDHSERPL/LBORRESU>,
        <https://w3id.org/cdisc/cosmos/dss/LB/LDHSERPL/LBSPEC>,
        <https://w3id.org/cdisc/cosmos/dss/LB/LDHSERPL/LBSTRESC>,
        <https://w3id.org/cdisc/cosmos/dss/LB/LDHSERPL/LBSTRESN>,
        <https://w3id.org/cdisc/cosmos/dss/LB/LDHSERPL/LBSTRESU>,
        <https://w3id.org/cdisc/cosmos/dss/LB/LDHSERPL/LBTEST>,
        <https://w3id.org/cdisc/cosmos/dss/LB/LDHSERPL/LBTESTCD> .

<https://w3id.org/cdisc/cosmos/dss/LB/LDLSERPL> a cosmos_sdtm:SDTMGroup ;
    dcterms:identifier "LDLSERPL" ;
    rdf:_1 <https://w3id.org/cdisc/cosmos/dss/LB/LDLSERPL/LBTESTCD> ;
    rdf:_10 <https://w3id.org/cdisc/cosmos/dss/LB/LDLSERPL/LBSPEC> ;
    rdf:_11 <https://w3id.org/cdisc/cosmos/dss/LB/LDLSERPL/LBFAST> ;
    rdf:_12 <https://w3id.org/cdisc/cosmos/dss/LB/LDLSERPL/LBDTC> ;
    rdf:_2 <https://w3id.org/cdisc/cosmos/dss/LB/LDLSERPL/LBTEST> ;
    rdf:_3 <https://w3id.org/cdisc/cosmos/dss/LB/LDLSERPL/LBCAT> ;
    rdf:_4 <https://w3id.org/cdisc/cosmos/dss/LB/LDLSERPL/LBORRES> ;
    rdf:_5 <https://w3id.org/cdisc/cosmos/dss/LB/LDLSERPL/LBORRESU> ;
    rdf:_6 <https://w3id.org/cdisc/cosmos/dss/LB/LDLSERPL/LBSTRESC> ;
    rdf:_7 <https://w3id.org/cdisc/cosmos/dss/LB/LDLSERPL/LBSTRESN> ;
    rdf:_8 <https://w3id.org/cdisc/cosmos/dss/LB/LDLSERPL/LBSTRESU> ;
    rdf:_9 <https://w3id.org/cdisc/cosmos/dss/LB/LDLSERPL/LBLOINC> ;
    cosmos_sdtm:biomedicalConceptId NCIT:C105588 ;
    cosmos_sdtm:domain "LB" ;
    cosmos_sdtm:packageDate "2026-05-26"^^xsd:date ;
    cosmos_sdtm:packageType <https://www.cdisc.org/cosmos/sdtm_v1.0/PackageTypeEnum#sdtm> ;
    cosmos_sdtm:sdtmigStartVersion "3-2" ;
    cosmos_sdtm:shortName "LDL Cholesterol in Serum or Plasma" ;
    cosmos_sdtm:source "LB.LBTESTCD" ;
    cosmos_sdtm:variables <https://w3id.org/cdisc/cosmos/dss/LB/LDLSERPL/LBCAT>,
        <https://w3id.org/cdisc/cosmos/dss/LB/LDLSERPL/LBDTC>,
        <https://w3id.org/cdisc/cosmos/dss/LB/LDLSERPL/LBFAST>,
        <https://w3id.org/cdisc/cosmos/dss/LB/LDLSERPL/LBLOINC>,
        <https://w3id.org/cdisc/cosmos/dss/LB/LDLSERPL/LBORRES>,
        <https://w3id.org/cdisc/cosmos/dss/LB/LDLSERPL/LBORRESU>,
        <https://w3id.org/cdisc/cosmos/dss/LB/LDLSERPL/LBSPEC>,
        <https://w3id.org/cdisc/cosmos/dss/LB/LDLSERPL/LBSTRESC>,
        <https://w3id.org/cdisc/cosmos/dss/LB/LDLSERPL/LBSTRESN>,
        <https://w3id.org/cdisc/cosmos/dss/LB/LDLSERPL/LBSTRESU>,
        <https://w3id.org/cdisc/cosmos/dss/LB/LDLSERPL/LBTEST>,
        <https://w3id.org/cdisc/cosmos/dss/LB/LDLSERPL/LBTESTCD> .

<https://w3id.org/cdisc/cosmos/dss/LB/LYMPHBLD> a cosmos_sdtm:SDTMGroup ;
    dcterms:identifier "LYMPHBLD" ;
    rdf:_1 <https://w3id.org/cdisc/cosmos/dss/LB/LYMPHBLD/LBTESTCD> ;
    rdf:_10 <https://w3id.org/cdisc/cosmos/dss/LB/LYMPHBLD/LBSPEC> ;
    rdf:_11 <https://w3id.org/cdisc/cosmos/dss/LB/LYMPHBLD/LBFAST> ;
    rdf:_12 <https://w3id.org/cdisc/cosmos/dss/LB/LYMPHBLD/LBDTC> ;
    rdf:_2 <https://w3id.org/cdisc/cosmos/dss/LB/LYMPHBLD/LBTEST> ;
    rdf:_3 <https://w3id.org/cdisc/cosmos/dss/LB/LYMPHBLD/LBCAT> ;
    rdf:_4 <https://w3id.org/cdisc/cosmos/dss/LB/LYMPHBLD/LBORRES> ;
    rdf:_5 <https://w3id.org/cdisc/cosmos/dss/LB/LYMPHBLD/LBORRESU> ;
    rdf:_6 <https://w3id.org/cdisc/cosmos/dss/LB/LYMPHBLD/LBSTRESC> ;
    rdf:_7 <https://w3id.org/cdisc/cosmos/dss/LB/LYMPHBLD/LBSTRESN> ;
    rdf:_8 <https://w3id.org/cdisc/cosmos/dss/LB/LYMPHBLD/LBSTRESU> ;
    rdf:_9 <https://w3id.org/cdisc/cosmos/dss/LB/LYMPHBLD/LBLOINC> ;
    cosmos_sdtm:biomedicalConceptId NCIT:C51949 ;
    cosmos_sdtm:domain "LB" ;
    cosmos_sdtm:packageDate "2026-05-26"^^xsd:date ;
    cosmos_sdtm:packageType <https://www.cdisc.org/cosmos/sdtm_v1.0/PackageTypeEnum#sdtm> ;
    cosmos_sdtm:sdtmigStartVersion "3-2" ;
    cosmos_sdtm:shortName "Lymphocyte Count in Blood" ;
    cosmos_sdtm:source "LB.LBTESTCD" ;
    cosmos_sdtm:variables <https://w3id.org/cdisc/cosmos/dss/LB/LYMPHBLD/LBCAT>,
        <https://w3id.org/cdisc/cosmos/dss/LB/LYMPHBLD/LBDTC>,
        <https://w3id.org/cdisc/cosmos/dss/LB/LYMPHBLD/LBFAST>,
        <https://w3id.org/cdisc/cosmos/dss/LB/LYMPHBLD/LBLOINC>,
        <https://w3id.org/cdisc/cosmos/dss/LB/LYMPHBLD/LBORRES>,
        <https://w3id.org/cdisc/cosmos/dss/LB/LYMPHBLD/LBORRESU>,
        <https://w3id.org/cdisc/cosmos/dss/LB/LYMPHBLD/LBSPEC>,
        <https://w3id.org/cdisc/cosmos/dss/LB/LYMPHBLD/LBSTRESC>,
        <https://w3id.org/cdisc/cosmos/dss/LB/LYMPHBLD/LBSTRESN>,
        <https://w3id.org/cdisc/cosmos/dss/LB/LYMPHBLD/LBSTRESU>,
        <https://w3id.org/cdisc/cosmos/dss/LB/LYMPHBLD/LBTEST>,
        <https://w3id.org/cdisc/cosmos/dss/LB/LYMPHBLD/LBTESTCD> .

<https://w3id.org/cdisc/cosmos/dss/LB/MACROBLURINPRES> a cosmos_sdtm:SDTMGroup ;
    dcterms:identifier "MACROBLURINPRES" ;
    rdf:_1 <https://w3id.org/cdisc/cosmos/dss/LB/MACROBLURINPRES/LBTESTCD> ;
    rdf:_2 <https://w3id.org/cdisc/cosmos/dss/LB/MACROBLURINPRES/LBTEST> ;
    rdf:_3 <https://w3id.org/cdisc/cosmos/dss/LB/MACROBLURINPRES/LBCAT> ;
    rdf:_4 <https://w3id.org/cdisc/cosmos/dss/LB/MACROBLURINPRES/LBORRES> ;
    rdf:_5 <https://w3id.org/cdisc/cosmos/dss/LB/MACROBLURINPRES/LBSTRESC> ;
    rdf:_6 <https://w3id.org/cdisc/cosmos/dss/LB/MACROBLURINPRES/LBLOINC> ;
    rdf:_7 <https://w3id.org/cdisc/cosmos/dss/LB/MACROBLURINPRES/LBSPEC> ;
    rdf:_8 <https://w3id.org/cdisc/cosmos/dss/LB/MACROBLURINPRES/LBFAST> ;
    rdf:_9 <https://w3id.org/cdisc/cosmos/dss/LB/MACROBLURINPRES/LBDTC> ;
    cosmos_sdtm:biomedicalConceptId NCIT:C147390 ;
    cosmos_sdtm:domain "LB" ;
    cosmos_sdtm:packageDate "2026-05-26"^^xsd:date ;
    cosmos_sdtm:packageType <https://www.cdisc.org/cosmos/sdtm_v1.0/PackageTypeEnum#sdtm> ;
    cosmos_sdtm:sdtmigStartVersion "3-2" ;
    cosmos_sdtm:shortName "Macroscopic Blood Presence in Urine" ;
    cosmos_sdtm:source "LB.LBTESTCD" ;
    cosmos_sdtm:variables <https://w3id.org/cdisc/cosmos/dss/LB/MACROBLURINPRES/LBCAT>,
        <https://w3id.org/cdisc/cosmos/dss/LB/MACROBLURINPRES/LBDTC>,
        <https://w3id.org/cdisc/cosmos/dss/LB/MACROBLURINPRES/LBFAST>,
        <https://w3id.org/cdisc/cosmos/dss/LB/MACROBLURINPRES/LBLOINC>,
        <https://w3id.org/cdisc/cosmos/dss/LB/MACROBLURINPRES/LBORRES>,
        <https://w3id.org/cdisc/cosmos/dss/LB/MACROBLURINPRES/LBSPEC>,
        <https://w3id.org/cdisc/cosmos/dss/LB/MACROBLURINPRES/LBSTRESC>,
        <https://w3id.org/cdisc/cosmos/dss/LB/MACROBLURINPRES/LBTEST>,
        <https://w3id.org/cdisc/cosmos/dss/LB/MACROBLURINPRES/LBTESTCD> .

<https://w3id.org/cdisc/cosmos/dss/LB/MACROCYBLD> a cosmos_sdtm:SDTMGroup ;
    dcterms:identifier "MACROCYBLD" ;
    rdf:_1 <https://w3id.org/cdisc/cosmos/dss/LB/MACROCYBLD/LBTESTCD> ;
    rdf:_2 <https://w3id.org/cdisc/cosmos/dss/LB/MACROCYBLD/LBTEST> ;
    rdf:_3 <https://w3id.org/cdisc/cosmos/dss/LB/MACROCYBLD/LBCAT> ;
    rdf:_4 <https://w3id.org/cdisc/cosmos/dss/LB/MACROCYBLD/LBORRES> ;
    rdf:_5 <https://w3id.org/cdisc/cosmos/dss/LB/MACROCYBLD/LBSTRESC> ;
    rdf:_6 <https://w3id.org/cdisc/cosmos/dss/LB/MACROCYBLD/LBLOINC> ;
    rdf:_7 <https://w3id.org/cdisc/cosmos/dss/LB/MACROCYBLD/LBSPEC> ;
    rdf:_8 <https://w3id.org/cdisc/cosmos/dss/LB/MACROCYBLD/LBFAST> ;
    rdf:_9 <https://w3id.org/cdisc/cosmos/dss/LB/MACROCYBLD/LBDTC> ;
    cosmos_sdtm:biomedicalConceptId NCIT:C64821 ;
    cosmos_sdtm:domain "LB" ;
    cosmos_sdtm:packageDate "2026-05-26"^^xsd:date ;
    cosmos_sdtm:packageType <https://www.cdisc.org/cosmos/sdtm_v1.0/PackageTypeEnum#sdtm> ;
    cosmos_sdtm:sdtmigStartVersion "3-2" ;
    cosmos_sdtm:shortName "Macrocytes in Blood" ;
    cosmos_sdtm:source "LB.LBTESTCD" ;
    cosmos_sdtm:variables <https://w3id.org/cdisc/cosmos/dss/LB/MACROCYBLD/LBCAT>,
        <https://w3id.org/cdisc/cosmos/dss/LB/MACROCYBLD/LBDTC>,
        <https://w3id.org/cdisc/cosmos/dss/LB/MACROCYBLD/LBFAST>,
        <https://w3id.org/cdisc/cosmos/dss/LB/MACROCYBLD/LBLOINC>,
        <https://w3id.org/cdisc/cosmos/dss/LB/MACROCYBLD/LBORRES>,
        <https://w3id.org/cdisc/cosmos/dss/LB/MACROCYBLD/LBSPEC>,
        <https://w3id.org/cdisc/cosmos/dss/LB/MACROCYBLD/LBSTRESC>,
        <https://w3id.org/cdisc/cosmos/dss/LB/MACROCYBLD/LBTEST>,
        <https://w3id.org/cdisc/cosmos/dss/LB/MACROCYBLD/LBTESTCD> .

<https://w3id.org/cdisc/cosmos/dss/LB/MACROCYURNSED> a cosmos_sdtm:SDTMGroup ;
    dcterms:identifier "MACROCYURNSED" ;
    rdf:_1 <https://w3id.org/cdisc/cosmos/dss/LB/MACROCYURNSED/LBTESTCD> ;
    rdf:_2 <https://w3id.org/cdisc/cosmos/dss/LB/MACROCYURNSED/LBTEST> ;
    rdf:_3 <https://w3id.org/cdisc/cosmos/dss/LB/MACROCYURNSED/LBCAT> ;
    rdf:_4 <https://w3id.org/cdisc/cosmos/dss/LB/MACROCYURNSED/LBORRES> ;
    rdf:_5 <https://w3id.org/cdisc/cosmos/dss/LB/MACROCYURNSED/LBSTRESC> ;
    rdf:_6 <https://w3id.org/cdisc/cosmos/dss/LB/MACROCYURNSED/LBLOINC> ;
    rdf:_7 <https://w3id.org/cdisc/cosmos/dss/LB/MACROCYURNSED/LBSPEC> ;
    rdf:_8 <https://w3id.org/cdisc/cosmos/dss/LB/MACROCYURNSED/LBFAST> ;
    rdf:_9 <https://w3id.org/cdisc/cosmos/dss/LB/MACROCYURNSED/LBDTC> ;
    cosmos_sdtm:biomedicalConceptId NCIT:C64821 ;
    cosmos_sdtm:domain "LB" ;
    cosmos_sdtm:packageDate "2026-05-26"^^xsd:date ;
    cosmos_sdtm:packageType <https://www.cdisc.org/cosmos/sdtm_v1.0/PackageTypeEnum#sdtm> ;
    cosmos_sdtm:sdtmigStartVersion "3-2" ;
    cosmos_sdtm:shortName "Macrocytes in Urine Sediment" ;
    cosmos_sdtm:source "LB.LBTESTCD" ;
    cosmos_sdtm:variables <https://w3id.org/cdisc/cosmos/dss/LB/MACROCYURNSED/LBCAT>,
        <https://w3id.org/cdisc/cosmos/dss/LB/MACROCYURNSED/LBDTC>,
        <https://w3id.org/cdisc/cosmos/dss/LB/MACROCYURNSED/LBFAST>,
        <https://w3id.org/cdisc/cosmos/dss/LB/MACROCYURNSED/LBLOINC>,
        <https://w3id.org/cdisc/cosmos/dss/LB/MACROCYURNSED/LBORRES>,
        <https://w3id.org/cdisc/cosmos/dss/LB/MACROCYURNSED/LBSPEC>,
        <https://w3id.org/cdisc/cosmos/dss/LB/MACROCYURNSED/LBSTRESC>,
        <https://w3id.org/cdisc/cosmos/dss/LB/MACROCYURNSED/LBTEST>,
        <https://w3id.org/cdisc/cosmos/dss/LB/MACROCYURNSED/LBTESTCD> .

<https://w3id.org/cdisc/cosmos/dss/LB/MCH> a cosmos_sdtm:SDTMGroup ;
    dcterms:identifier "MCH" ;
    rdf:_1 <https://w3id.org/cdisc/cosmos/dss/LB/MCH/LBTESTCD> ;
    rdf:_10 <https://w3id.org/cdisc/cosmos/dss/LB/MCH/LBSPEC> ;
    rdf:_11 <https://w3id.org/cdisc/cosmos/dss/LB/MCH/LBFAST> ;
    rdf:_12 <https://w3id.org/cdisc/cosmos/dss/LB/MCH/LBDTC> ;
    rdf:_2 <https://w3id.org/cdisc/cosmos/dss/LB/MCH/LBTEST> ;
    rdf:_3 <https://w3id.org/cdisc/cosmos/dss/LB/MCH/LBCAT> ;
    rdf:_4 <https://w3id.org/cdisc/cosmos/dss/LB/MCH/LBORRES> ;
    rdf:_5 <https://w3id.org/cdisc/cosmos/dss/LB/MCH/LBORRESU> ;
    rdf:_6 <https://w3id.org/cdisc/cosmos/dss/LB/MCH/LBSTRESC> ;
    rdf:_7 <https://w3id.org/cdisc/cosmos/dss/LB/MCH/LBSTRESN> ;
    rdf:_8 <https://w3id.org/cdisc/cosmos/dss/LB/MCH/LBSTRESU> ;
    rdf:_9 <https://w3id.org/cdisc/cosmos/dss/LB/MCH/LBLOINC> ;
    cosmos_sdtm:biomedicalConceptId NCIT:C64797 ;
    cosmos_sdtm:domain "LB" ;
    cosmos_sdtm:packageDate "2026-05-26"^^xsd:date ;
    cosmos_sdtm:packageType <https://www.cdisc.org/cosmos/sdtm_v1.0/PackageTypeEnum#sdtm> ;
    cosmos_sdtm:sdtmigStartVersion "3-2" ;
    cosmos_sdtm:shortName "Erythrocyte Mean Corpuscular Hemoglobin" ;
    cosmos_sdtm:source "LB.LBTESTCD" ;
    cosmos_sdtm:variables <https://w3id.org/cdisc/cosmos/dss/LB/MCH/LBCAT>,
        <https://w3id.org/cdisc/cosmos/dss/LB/MCH/LBDTC>,
        <https://w3id.org/cdisc/cosmos/dss/LB/MCH/LBFAST>,
        <https://w3id.org/cdisc/cosmos/dss/LB/MCH/LBLOINC>,
        <https://w3id.org/cdisc/cosmos/dss/LB/MCH/LBORRES>,
        <https://w3id.org/cdisc/cosmos/dss/LB/MCH/LBORRESU>,
        <https://w3id.org/cdisc/cosmos/dss/LB/MCH/LBSPEC>,
        <https://w3id.org/cdisc/cosmos/dss/LB/MCH/LBSTRESC>,
        <https://w3id.org/cdisc/cosmos/dss/LB/MCH/LBSTRESN>,
        <https://w3id.org/cdisc/cosmos/dss/LB/MCH/LBSTRESU>,
        <https://w3id.org/cdisc/cosmos/dss/LB/MCH/LBTEST>,
        <https://w3id.org/cdisc/cosmos/dss/LB/MCH/LBTESTCD> .

<https://w3id.org/cdisc/cosmos/dss/LB/MCHC> a cosmos_sdtm:SDTMGroup ;
    dcterms:identifier "MCHC" ;
    rdf:_1 <https://w3id.org/cdisc/cosmos/dss/LB/MCHC/LBTESTCD> ;
    rdf:_10 <https://w3id.org/cdisc/cosmos/dss/LB/MCHC/LBSPEC> ;
    rdf:_11 <https://w3id.org/cdisc/cosmos/dss/LB/MCHC/LBFAST> ;
    rdf:_12 <https://w3id.org/cdisc/cosmos/dss/LB/MCHC/LBDTC> ;
    rdf:_2 <https://w3id.org/cdisc/cosmos/dss/LB/MCHC/LBTEST> ;
    rdf:_3 <https://w3id.org/cdisc/cosmos/dss/LB/MCHC/LBCAT> ;
    rdf:_4 <https://w3id.org/cdisc/cosmos/dss/LB/MCHC/LBORRES> ;
    rdf:_5 <https://w3id.org/cdisc/cosmos/dss/LB/MCHC/LBORRESU> ;
    rdf:_6 <https://w3id.org/cdisc/cosmos/dss/LB/MCHC/LBSTRESC> ;
    rdf:_7 <https://w3id.org/cdisc/cosmos/dss/LB/MCHC/LBSTRESN> ;
    rdf:_8 <https://w3id.org/cdisc/cosmos/dss/LB/MCHC/LBSTRESU> ;
    rdf:_9 <https://w3id.org/cdisc/cosmos/dss/LB/MCHC/LBLOINC> ;
    cosmos_sdtm:biomedicalConceptId NCIT:C64798 ;
    cosmos_sdtm:domain "LB" ;
    cosmos_sdtm:packageDate "2026-05-26"^^xsd:date ;
    cosmos_sdtm:packageType <https://www.cdisc.org/cosmos/sdtm_v1.0/PackageTypeEnum#sdtm> ;
    cosmos_sdtm:sdtmigStartVersion "3-2" ;
    cosmos_sdtm:shortName "Erythrocyte Mean Corpuscular Hemoglobin Concentration" ;
    cosmos_sdtm:source "LB.LBTESTCD" ;
    cosmos_sdtm:variables <https://w3id.org/cdisc/cosmos/dss/LB/MCHC/LBCAT>,
        <https://w3id.org/cdisc/cosmos/dss/LB/MCHC/LBDTC>,
        <https://w3id.org/cdisc/cosmos/dss/LB/MCHC/LBFAST>,
        <https://w3id.org/cdisc/cosmos/dss/LB/MCHC/LBLOINC>,
        <https://w3id.org/cdisc/cosmos/dss/LB/MCHC/LBORRES>,
        <https://w3id.org/cdisc/cosmos/dss/LB/MCHC/LBORRESU>,
        <https://w3id.org/cdisc/cosmos/dss/LB/MCHC/LBSPEC>,
        <https://w3id.org/cdisc/cosmos/dss/LB/MCHC/LBSTRESC>,
        <https://w3id.org/cdisc/cosmos/dss/LB/MCHC/LBSTRESN>,
        <https://w3id.org/cdisc/cosmos/dss/LB/MCHC/LBSTRESU>,
        <https://w3id.org/cdisc/cosmos/dss/LB/MCHC/LBTEST>,
        <https://w3id.org/cdisc/cosmos/dss/LB/MCHC/LBTESTCD> .

<https://w3id.org/cdisc/cosmos/dss/LB/MCV> a cosmos_sdtm:SDTMGroup ;
    dcterms:identifier "MCV" ;
    rdf:_1 <https://w3id.org/cdisc/cosmos/dss/LB/MCV/LBTESTCD> ;
    rdf:_10 <https://w3id.org/cdisc/cosmos/dss/LB/MCV/LBSPEC> ;
    rdf:_11 <https://w3id.org/cdisc/cosmos/dss/LB/MCV/LBFAST> ;
    rdf:_12 <https://w3id.org/cdisc/cosmos/dss/LB/MCV/LBDTC> ;
    rdf:_2 <https://w3id.org/cdisc/cosmos/dss/LB/MCV/LBTEST> ;
    rdf:_3 <https://w3id.org/cdisc/cosmos/dss/LB/MCV/LBCAT> ;
    rdf:_4 <https://w3id.org/cdisc/cosmos/dss/LB/MCV/LBORRES> ;
    rdf:_5 <https://w3id.org/cdisc/cosmos/dss/LB/MCV/LBORRESU> ;
    rdf:_6 <https://w3id.org/cdisc/cosmos/dss/LB/MCV/LBSTRESC> ;
    rdf:_7 <https://w3id.org/cdisc/cosmos/dss/LB/MCV/LBSTRESN> ;
    rdf:_8 <https://w3id.org/cdisc/cosmos/dss/LB/MCV/LBSTRESU> ;
    rdf:_9 <https://w3id.org/cdisc/cosmos/dss/LB/MCV/LBLOINC> ;
    cosmos_sdtm:biomedicalConceptId NCIT:C64799 ;
    cosmos_sdtm:domain "LB" ;
    cosmos_sdtm:packageDate "2026-05-26"^^xsd:date ;
    cosmos_sdtm:packageType <https://www.cdisc.org/cosmos/sdtm_v1.0/PackageTypeEnum#sdtm> ;
    cosmos_sdtm:sdtmigStartVersion "3-2" ;
    cosmos_sdtm:shortName "Erythrocyte Mean Corpuscular Volume" ;
    cosmos_sdtm:source "LB.LBTESTCD" ;
    cosmos_sdtm:variables <https://w3id.org/cdisc/cosmos/dss/LB/MCV/LBCAT>,
        <https://w3id.org/cdisc/cosmos/dss/LB/MCV/LBDTC>,
        <https://w3id.org/cdisc/cosmos/dss/LB/MCV/LBFAST>,
        <https://w3id.org/cdisc/cosmos/dss/LB/MCV/LBLOINC>,
        <https://w3id.org/cdisc/cosmos/dss/LB/MCV/LBORRES>,
        <https://w3id.org/cdisc/cosmos/dss/LB/MCV/LBORRESU>,
        <https://w3id.org/cdisc/cosmos/dss/LB/MCV/LBSPEC>,
        <https://w3id.org/cdisc/cosmos/dss/LB/MCV/LBSTRESC>,
        <https://w3id.org/cdisc/cosmos/dss/LB/MCV/LBSTRESN>,
        <https://w3id.org/cdisc/cosmos/dss/LB/MCV/LBSTRESU>,
        <https://w3id.org/cdisc/cosmos/dss/LB/MCV/LBTEST>,
        <https://w3id.org/cdisc/cosmos/dss/LB/MCV/LBTESTCD> .

<https://w3id.org/cdisc/cosmos/dss/LB/MGSERPL> a cosmos_sdtm:SDTMGroup ;
    dcterms:identifier "MGSERPL" ;
    rdf:_1 <https://w3id.org/cdisc/cosmos/dss/LB/MGSERPL/LBTESTCD> ;
    rdf:_10 <https://w3id.org/cdisc/cosmos/dss/LB/MGSERPL/LBSPEC> ;
    rdf:_11 <https://w3id.org/cdisc/cosmos/dss/LB/MGSERPL/LBFAST> ;
    rdf:_12 <https://w3id.org/cdisc/cosmos/dss/LB/MGSERPL/LBDTC> ;
    rdf:_2 <https://w3id.org/cdisc/cosmos/dss/LB/MGSERPL/LBTEST> ;
    rdf:_3 <https://w3id.org/cdisc/cosmos/dss/LB/MGSERPL/LBCAT> ;
    rdf:_4 <https://w3id.org/cdisc/cosmos/dss/LB/MGSERPL/LBORRES> ;
    rdf:_5 <https://w3id.org/cdisc/cosmos/dss/LB/MGSERPL/LBORRESU> ;
    rdf:_6 <https://w3id.org/cdisc/cosmos/dss/LB/MGSERPL/LBSTRESC> ;
    rdf:_7 <https://w3id.org/cdisc/cosmos/dss/LB/MGSERPL/LBSTRESN> ;
    rdf:_8 <https://w3id.org/cdisc/cosmos/dss/LB/MGSERPL/LBSTRESU> ;
    rdf:_9 <https://w3id.org/cdisc/cosmos/dss/LB/MGSERPL/LBLOINC> ;
    cosmos_sdtm:biomedicalConceptId NCIT:C64840 ;
    cosmos_sdtm:domain "LB" ;
    cosmos_sdtm:packageDate "2026-07-14"^^xsd:date ;
    cosmos_sdtm:packageType <https://www.cdisc.org/cosmos/sdtm_v1.0/PackageTypeEnum#sdtm> ;
    cosmos_sdtm:sdtmigStartVersion "3-2" ;
    cosmos_sdtm:shortName "Magnesium in Serum or Plasma" ;
    cosmos_sdtm:source "LB.LBTESTCD" ;
    cosmos_sdtm:variables <https://w3id.org/cdisc/cosmos/dss/LB/MGSERPL/LBCAT>,
        <https://w3id.org/cdisc/cosmos/dss/LB/MGSERPL/LBDTC>,
        <https://w3id.org/cdisc/cosmos/dss/LB/MGSERPL/LBFAST>,
        <https://w3id.org/cdisc/cosmos/dss/LB/MGSERPL/LBLOINC>,
        <https://w3id.org/cdisc/cosmos/dss/LB/MGSERPL/LBORRES>,
        <https://w3id.org/cdisc/cosmos/dss/LB/MGSERPL/LBORRESU>,
        <https://w3id.org/cdisc/cosmos/dss/LB/MGSERPL/LBSPEC>,
        <https://w3id.org/cdisc/cosmos/dss/LB/MGSERPL/LBSTRESC>,
        <https://w3id.org/cdisc/cosmos/dss/LB/MGSERPL/LBSTRESN>,
        <https://w3id.org/cdisc/cosmos/dss/LB/MGSERPL/LBSTRESU>,
        <https://w3id.org/cdisc/cosmos/dss/LB/MGSERPL/LBTEST>,
        <https://w3id.org/cdisc/cosmos/dss/LB/MGSERPL/LBTESTCD> .

<https://w3id.org/cdisc/cosmos/dss/LB/MICROCYBLD> a cosmos_sdtm:SDTMGroup ;
    dcterms:identifier "MICROCYBLD" ;
    rdf:_1 <https://w3id.org/cdisc/cosmos/dss/LB/MICROCYBLD/LBTESTCD> ;
    rdf:_2 <https://w3id.org/cdisc/cosmos/dss/LB/MICROCYBLD/LBTEST> ;
    rdf:_3 <https://w3id.org/cdisc/cosmos/dss/LB/MICROCYBLD/LBCAT> ;
    rdf:_4 <https://w3id.org/cdisc/cosmos/dss/LB/MICROCYBLD/LBORRES> ;
    rdf:_5 <https://w3id.org/cdisc/cosmos/dss/LB/MICROCYBLD/LBSTRESC> ;
    rdf:_6 <https://w3id.org/cdisc/cosmos/dss/LB/MICROCYBLD/LBLOINC> ;
    rdf:_7 <https://w3id.org/cdisc/cosmos/dss/LB/MICROCYBLD/LBSPEC> ;
    rdf:_8 <https://w3id.org/cdisc/cosmos/dss/LB/MICROCYBLD/LBFAST> ;
    rdf:_9 <https://w3id.org/cdisc/cosmos/dss/LB/MICROCYBLD/LBDTC> ;
    cosmos_sdtm:biomedicalConceptId NCIT:C64822 ;
    cosmos_sdtm:domain "LB" ;
    cosmos_sdtm:packageDate "2026-05-26"^^xsd:date ;
    cosmos_sdtm:packageType <https://www.cdisc.org/cosmos/sdtm_v1.0/PackageTypeEnum#sdtm> ;
    cosmos_sdtm:sdtmigStartVersion "3-2" ;
    cosmos_sdtm:shortName "Microcytes in Blood" ;
    cosmos_sdtm:source "LB.LBTESTCD" ;
    cosmos_sdtm:variables <https://w3id.org/cdisc/cosmos/dss/LB/MICROCYBLD/LBCAT>,
        <https://w3id.org/cdisc/cosmos/dss/LB/MICROCYBLD/LBDTC>,
        <https://w3id.org/cdisc/cosmos/dss/LB/MICROCYBLD/LBFAST>,
        <https://w3id.org/cdisc/cosmos/dss/LB/MICROCYBLD/LBLOINC>,
        <https://w3id.org/cdisc/cosmos/dss/LB/MICROCYBLD/LBORRES>,
        <https://w3id.org/cdisc/cosmos/dss/LB/MICROCYBLD/LBSPEC>,
        <https://w3id.org/cdisc/cosmos/dss/LB/MICROCYBLD/LBSTRESC>,
        <https://w3id.org/cdisc/cosmos/dss/LB/MICROCYBLD/LBTEST>,
        <https://w3id.org/cdisc/cosmos/dss/LB/MICROCYBLD/LBTESTCD> .

<https://w3id.org/cdisc/cosmos/dss/LB/MICROCYRBC> a cosmos_sdtm:SDTMGroup ;
    dcterms:identifier "MICROCYRBC" ;
    rdf:_1 <https://w3id.org/cdisc/cosmos/dss/LB/MICROCYRBC/LBTESTCD> ;
    rdf:_10 <https://w3id.org/cdisc/cosmos/dss/LB/MICROCYRBC/LBSPEC> ;
    rdf:_11 <https://w3id.org/cdisc/cosmos/dss/LB/MICROCYRBC/LBFAST> ;
    rdf:_12 <https://w3id.org/cdisc/cosmos/dss/LB/MICROCYRBC/LBDTC> ;
    rdf:_2 <https://w3id.org/cdisc/cosmos/dss/LB/MICROCYRBC/LBTEST> ;
    rdf:_3 <https://w3id.org/cdisc/cosmos/dss/LB/MICROCYRBC/LBCAT> ;
    rdf:_4 <https://w3id.org/cdisc/cosmos/dss/LB/MICROCYRBC/LBORRES> ;
    rdf:_5 <https://w3id.org/cdisc/cosmos/dss/LB/MICROCYRBC/LBORRESU> ;
    rdf:_6 <https://w3id.org/cdisc/cosmos/dss/LB/MICROCYRBC/LBSTRESC> ;
    rdf:_7 <https://w3id.org/cdisc/cosmos/dss/LB/MICROCYRBC/LBSTRESN> ;
    rdf:_8 <https://w3id.org/cdisc/cosmos/dss/LB/MICROCYRBC/LBSTRESU> ;
    rdf:_9 <https://w3id.org/cdisc/cosmos/dss/LB/MICROCYRBC/LBLOINC> ;
    cosmos_sdtm:biomedicalConceptId NCIT:C201227 ;
    cosmos_sdtm:domain "LB" ;
    cosmos_sdtm:packageDate "2026-05-26"^^xsd:date ;
    cosmos_sdtm:packageType <https://www.cdisc.org/cosmos/sdtm_v1.0/PackageTypeEnum#sdtm> ;
    cosmos_sdtm:sdtmigStartVersion "3-2" ;
    cosmos_sdtm:shortName "Microcyte to Erythrocyte Ratio in Blood" ;
    cosmos_sdtm:source "LB.LBTESTCD" ;
    cosmos_sdtm:variables <https://w3id.org/cdisc/cosmos/dss/LB/MICROCYRBC/LBCAT>,
        <https://w3id.org/cdisc/cosmos/dss/LB/MICROCYRBC/LBDTC>,
        <https://w3id.org/cdisc/cosmos/dss/LB/MICROCYRBC/LBFAST>,
        <https://w3id.org/cdisc/cosmos/dss/LB/MICROCYRBC/LBLOINC>,
        <https://w3id.org/cdisc/cosmos/dss/LB/MICROCYRBC/LBORRES>,
        <https://w3id.org/cdisc/cosmos/dss/LB/MICROCYRBC/LBORRESU>,
        <https://w3id.org/cdisc/cosmos/dss/LB/MICROCYRBC/LBSPEC>,
        <https://w3id.org/cdisc/cosmos/dss/LB/MICROCYRBC/LBSTRESC>,
        <https://w3id.org/cdisc/cosmos/dss/LB/MICROCYRBC/LBSTRESN>,
        <https://w3id.org/cdisc/cosmos/dss/LB/MICROCYRBC/LBSTRESU>,
        <https://w3id.org/cdisc/cosmos/dss/LB/MICROCYRBC/LBTEST>,
        <https://w3id.org/cdisc/cosmos/dss/LB/MICROCYRBC/LBTESTCD> .

<https://w3id.org/cdisc/cosmos/dss/LB/MICROCYURN> a cosmos_sdtm:SDTMGroup ;
    dcterms:identifier "MICROCYURN" ;
    rdf:_1 <https://w3id.org/cdisc/cosmos/dss/LB/MICROCYURN/LBTESTCD> ;
    rdf:_2 <https://w3id.org/cdisc/cosmos/dss/LB/MICROCYURN/LBTEST> ;
    rdf:_3 <https://w3id.org/cdisc/cosmos/dss/LB/MICROCYURN/LBCAT> ;
    rdf:_4 <https://w3id.org/cdisc/cosmos/dss/LB/MICROCYURN/LBORRES> ;
    rdf:_5 <https://w3id.org/cdisc/cosmos/dss/LB/MICROCYURN/LBSTRESC> ;
    rdf:_6 <https://w3id.org/cdisc/cosmos/dss/LB/MICROCYURN/LBLOINC> ;
    rdf:_7 <https://w3id.org/cdisc/cosmos/dss/LB/MICROCYURN/LBSPEC> ;
    rdf:_8 <https://w3id.org/cdisc/cosmos/dss/LB/MICROCYURN/LBFAST> ;
    rdf:_9 <https://w3id.org/cdisc/cosmos/dss/LB/MICROCYURN/LBDTC> ;
    cosmos_sdtm:biomedicalConceptId NCIT:C64822 ;
    cosmos_sdtm:domain "LB" ;
    cosmos_sdtm:packageDate "2026-05-26"^^xsd:date ;
    cosmos_sdtm:packageType <https://www.cdisc.org/cosmos/sdtm_v1.0/PackageTypeEnum#sdtm> ;
    cosmos_sdtm:sdtmigStartVersion "3-2" ;
    cosmos_sdtm:shortName "Microcytes in Urine" ;
    cosmos_sdtm:source "LB.LBTESTCD" ;
    cosmos_sdtm:variables <https://w3id.org/cdisc/cosmos/dss/LB/MICROCYURN/LBCAT>,
        <https://w3id.org/cdisc/cosmos/dss/LB/MICROCYURN/LBDTC>,
        <https://w3id.org/cdisc/cosmos/dss/LB/MICROCYURN/LBFAST>,
        <https://w3id.org/cdisc/cosmos/dss/LB/MICROCYURN/LBLOINC>,
        <https://w3id.org/cdisc/cosmos/dss/LB/MICROCYURN/LBORRES>,
        <https://w3id.org/cdisc/cosmos/dss/LB/MICROCYURN/LBSPEC>,
        <https://w3id.org/cdisc/cosmos/dss/LB/MICROCYURN/LBSTRESC>,
        <https://w3id.org/cdisc/cosmos/dss/LB/MICROCYURN/LBTEST>,
        <https://w3id.org/cdisc/cosmos/dss/LB/MICROCYURN/LBTESTCD> .

<https://w3id.org/cdisc/cosmos/dss/LB/MICROCYURNSED> a cosmos_sdtm:SDTMGroup ;
    dcterms:identifier "MICROCYURNSED" ;
    rdf:_1 <https://w3id.org/cdisc/cosmos/dss/LB/MICROCYURNSED/LBTESTCD> ;
    rdf:_2 <https://w3id.org/cdisc/cosmos/dss/LB/MICROCYURNSED/LBTEST> ;
    rdf:_3 <https://w3id.org/cdisc/cosmos/dss/LB/MICROCYURNSED/LBCAT> ;
    rdf:_4 <https://w3id.org/cdisc/cosmos/dss/LB/MICROCYURNSED/LBORRES> ;
    rdf:_5 <https://w3id.org/cdisc/cosmos/dss/LB/MICROCYURNSED/LBSTRESC> ;
    rdf:_6 <https://w3id.org/cdisc/cosmos/dss/LB/MICROCYURNSED/LBLOINC> ;
    rdf:_7 <https://w3id.org/cdisc/cosmos/dss/LB/MICROCYURNSED/LBSPEC> ;
    rdf:_8 <https://w3id.org/cdisc/cosmos/dss/LB/MICROCYURNSED/LBFAST> ;
    rdf:_9 <https://w3id.org/cdisc/cosmos/dss/LB/MICROCYURNSED/LBDTC> ;
    cosmos_sdtm:biomedicalConceptId NCIT:C64822 ;
    cosmos_sdtm:domain "LB" ;
    cosmos_sdtm:packageDate "2026-05-26"^^xsd:date ;
    cosmos_sdtm:packageType <https://www.cdisc.org/cosmos/sdtm_v1.0/PackageTypeEnum#sdtm> ;
    cosmos_sdtm:sdtmigStartVersion "3-2" ;
    cosmos_sdtm:shortName "Microcytes in Urine Sediment" ;
    cosmos_sdtm:source "LB.LBTESTCD" ;
    cosmos_sdtm:variables <https://w3id.org/cdisc/cosmos/dss/LB/MICROCYURNSED/LBCAT>,
        <https://w3id.org/cdisc/cosmos/dss/LB/MICROCYURNSED/LBDTC>,
        <https://w3id.org/cdisc/cosmos/dss/LB/MICROCYURNSED/LBFAST>,
        <https://w3id.org/cdisc/cosmos/dss/LB/MICROCYURNSED/LBLOINC>,
        <https://w3id.org/cdisc/cosmos/dss/LB/MICROCYURNSED/LBORRES>,
        <https://w3id.org/cdisc/cosmos/dss/LB/MICROCYURNSED/LBSPEC>,
        <https://w3id.org/cdisc/cosmos/dss/LB/MICROCYURNSED/LBSTRESC>,
        <https://w3id.org/cdisc/cosmos/dss/LB/MICROCYURNSED/LBTEST>,
        <https://w3id.org/cdisc/cosmos/dss/LB/MICROCYURNSED/LBTESTCD> .

<https://w3id.org/cdisc/cosmos/dss/LB/MONOBLD> a cosmos_sdtm:SDTMGroup ;
    dcterms:identifier "MONOBLD" ;
    rdf:_1 <https://w3id.org/cdisc/cosmos/dss/LB/MONOBLD/LBTESTCD> ;
    rdf:_10 <https://w3id.org/cdisc/cosmos/dss/LB/MONOBLD/LBSPEC> ;
    rdf:_11 <https://w3id.org/cdisc/cosmos/dss/LB/MONOBLD/LBFAST> ;
    rdf:_12 <https://w3id.org/cdisc/cosmos/dss/LB/MONOBLD/LBDTC> ;
    rdf:_2 <https://w3id.org/cdisc/cosmos/dss/LB/MONOBLD/LBTEST> ;
    rdf:_3 <https://w3id.org/cdisc/cosmos/dss/LB/MONOBLD/LBCAT> ;
    rdf:_4 <https://w3id.org/cdisc/cosmos/dss/LB/MONOBLD/LBORRES> ;
    rdf:_5 <https://w3id.org/cdisc/cosmos/dss/LB/MONOBLD/LBORRESU> ;
    rdf:_6 <https://w3id.org/cdisc/cosmos/dss/LB/MONOBLD/LBSTRESC> ;
    rdf:_7 <https://w3id.org/cdisc/cosmos/dss/LB/MONOBLD/LBSTRESN> ;
    rdf:_8 <https://w3id.org/cdisc/cosmos/dss/LB/MONOBLD/LBSTRESU> ;
    rdf:_9 <https://w3id.org/cdisc/cosmos/dss/LB/MONOBLD/LBLOINC> ;
    cosmos_sdtm:biomedicalConceptId NCIT:C64823 ;
    cosmos_sdtm:domain "LB" ;
    cosmos_sdtm:packageDate "2026-05-26"^^xsd:date ;
    cosmos_sdtm:packageType <https://www.cdisc.org/cosmos/sdtm_v1.0/PackageTypeEnum#sdtm> ;
    cosmos_sdtm:sdtmigStartVersion "3-2" ;
    cosmos_sdtm:shortName "Monocyte Count in Blood" ;
    cosmos_sdtm:source "LB.LBTESTCD" ;
    cosmos_sdtm:variables <https://w3id.org/cdisc/cosmos/dss/LB/MONOBLD/LBCAT>,
        <https://w3id.org/cdisc/cosmos/dss/LB/MONOBLD/LBDTC>,
        <https://w3id.org/cdisc/cosmos/dss/LB/MONOBLD/LBFAST>,
        <https://w3id.org/cdisc/cosmos/dss/LB/MONOBLD/LBLOINC>,
        <https://w3id.org/cdisc/cosmos/dss/LB/MONOBLD/LBORRES>,
        <https://w3id.org/cdisc/cosmos/dss/LB/MONOBLD/LBORRESU>,
        <https://w3id.org/cdisc/cosmos/dss/LB/MONOBLD/LBSPEC>,
        <https://w3id.org/cdisc/cosmos/dss/LB/MONOBLD/LBSTRESC>,
        <https://w3id.org/cdisc/cosmos/dss/LB/MONOBLD/LBSTRESN>,
        <https://w3id.org/cdisc/cosmos/dss/LB/MONOBLD/LBSTRESU>,
        <https://w3id.org/cdisc/cosmos/dss/LB/MONOBLD/LBTEST>,
        <https://w3id.org/cdisc/cosmos/dss/LB/MONOBLD/LBTESTCD> .

<https://w3id.org/cdisc/cosmos/dss/LB/NACLRSERPL> a cosmos_sdtm:SDTMGroup ;
    dcterms:identifier "NACLRSERPL" ;
    rdf:_1 <https://w3id.org/cdisc/cosmos/dss/LB/NACLRSERPL/LBTESTCD> ;
    rdf:_10 <https://w3id.org/cdisc/cosmos/dss/LB/NACLRSERPL/LBSPEC> ;
    rdf:_11 <https://w3id.org/cdisc/cosmos/dss/LB/NACLRSERPL/LBFAST> ;
    rdf:_12 <https://w3id.org/cdisc/cosmos/dss/LB/NACLRSERPL/LBDTC> ;
    rdf:_13 <https://w3id.org/cdisc/cosmos/dss/LB/NACLRSERPL/LBENDTC> ;
    rdf:_2 <https://w3id.org/cdisc/cosmos/dss/LB/NACLRSERPL/LBTEST> ;
    rdf:_3 <https://w3id.org/cdisc/cosmos/dss/LB/NACLRSERPL/LBCAT> ;
    rdf:_4 <https://w3id.org/cdisc/cosmos/dss/LB/NACLRSERPL/LBORRES> ;
    rdf:_5 <https://w3id.org/cdisc/cosmos/dss/LB/NACLRSERPL/LBORRESU> ;
    rdf:_6 <https://w3id.org/cdisc/cosmos/dss/LB/NACLRSERPL/LBSTRESC> ;
    rdf:_7 <https://w3id.org/cdisc/cosmos/dss/LB/NACLRSERPL/LBSTRESN> ;
    rdf:_8 <https://w3id.org/cdisc/cosmos/dss/LB/NACLRSERPL/LBSTRESU> ;
    rdf:_9 <https://w3id.org/cdisc/cosmos/dss/LB/NACLRSERPL/LBLOINC> ;
    cosmos_sdtm:biomedicalConceptId NCIT:C106568 ;
    cosmos_sdtm:domain "LB" ;
    cosmos_sdtm:packageDate "2026-05-26"^^xsd:date ;
    cosmos_sdtm:packageType <https://www.cdisc.org/cosmos/sdtm_v1.0/PackageTypeEnum#sdtm> ;
    cosmos_sdtm:sdtmigStartVersion "3-2" ;
    cosmos_sdtm:shortName "Sodium Clearance in Serum or Plasma" ;
    cosmos_sdtm:source "LB.LBTESTCD" ;
    cosmos_sdtm:variables <https://w3id.org/cdisc/cosmos/dss/LB/NACLRSERPL/LBCAT>,
        <https://w3id.org/cdisc/cosmos/dss/LB/NACLRSERPL/LBDTC>,
        <https://w3id.org/cdisc/cosmos/dss/LB/NACLRSERPL/LBENDTC>,
        <https://w3id.org/cdisc/cosmos/dss/LB/NACLRSERPL/LBFAST>,
        <https://w3id.org/cdisc/cosmos/dss/LB/NACLRSERPL/LBLOINC>,
        <https://w3id.org/cdisc/cosmos/dss/LB/NACLRSERPL/LBORRES>,
        <https://w3id.org/cdisc/cosmos/dss/LB/NACLRSERPL/LBORRESU>,
        <https://w3id.org/cdisc/cosmos/dss/LB/NACLRSERPL/LBSPEC>,
        <https://w3id.org/cdisc/cosmos/dss/LB/NACLRSERPL/LBSTRESC>,
        <https://w3id.org/cdisc/cosmos/dss/LB/NACLRSERPL/LBSTRESN>,
        <https://w3id.org/cdisc/cosmos/dss/LB/NACLRSERPL/LBSTRESU>,
        <https://w3id.org/cdisc/cosmos/dss/LB/NACLRSERPL/LBTEST>,
        <https://w3id.org/cdisc/cosmos/dss/LB/NACLRSERPL/LBTESTCD> .

<https://w3id.org/cdisc/cosmos/dss/LB/NEUTBBLD> a cosmos_sdtm:SDTMGroup ;
    dcterms:identifier "NEUTBBLD" ;
    rdf:_1 <https://w3id.org/cdisc/cosmos/dss/LB/NEUTBBLD/LBTESTCD> ;
    rdf:_10 <https://w3id.org/cdisc/cosmos/dss/LB/NEUTBBLD/LBSPEC> ;
    rdf:_11 <https://w3id.org/cdisc/cosmos/dss/LB/NEUTBBLD/LBFAST> ;
    rdf:_12 <https://w3id.org/cdisc/cosmos/dss/LB/NEUTBBLD/LBDTC> ;
    rdf:_2 <https://w3id.org/cdisc/cosmos/dss/LB/NEUTBBLD/LBTEST> ;
    rdf:_3 <https://w3id.org/cdisc/cosmos/dss/LB/NEUTBBLD/LBCAT> ;
    rdf:_4 <https://w3id.org/cdisc/cosmos/dss/LB/NEUTBBLD/LBORRES> ;
    rdf:_5 <https://w3id.org/cdisc/cosmos/dss/LB/NEUTBBLD/LBORRESU> ;
    rdf:_6 <https://w3id.org/cdisc/cosmos/dss/LB/NEUTBBLD/LBSTRESC> ;
    rdf:_7 <https://w3id.org/cdisc/cosmos/dss/LB/NEUTBBLD/LBSTRESN> ;
    rdf:_8 <https://w3id.org/cdisc/cosmos/dss/LB/NEUTBBLD/LBSTRESU> ;
    rdf:_9 <https://w3id.org/cdisc/cosmos/dss/LB/NEUTBBLD/LBLOINC> ;
    cosmos_sdtm:biomedicalConceptId NCIT:C64830 ;
    cosmos_sdtm:domain "LB" ;
    cosmos_sdtm:packageDate "2026-05-26"^^xsd:date ;
    cosmos_sdtm:packageType <https://www.cdisc.org/cosmos/sdtm_v1.0/PackageTypeEnum#sdtm> ;
    cosmos_sdtm:sdtmigStartVersion "3-2" ;
    cosmos_sdtm:shortName "Neutrophils Band Form in Blood" ;
    cosmos_sdtm:source "LB.LBTESTCD" ;
    cosmos_sdtm:variables <https://w3id.org/cdisc/cosmos/dss/LB/NEUTBBLD/LBCAT>,
        <https://w3id.org/cdisc/cosmos/dss/LB/NEUTBBLD/LBDTC>,
        <https://w3id.org/cdisc/cosmos/dss/LB/NEUTBBLD/LBFAST>,
        <https://w3id.org/cdisc/cosmos/dss/LB/NEUTBBLD/LBLOINC>,
        <https://w3id.org/cdisc/cosmos/dss/LB/NEUTBBLD/LBORRES>,
        <https://w3id.org/cdisc/cosmos/dss/LB/NEUTBBLD/LBORRESU>,
        <https://w3id.org/cdisc/cosmos/dss/LB/NEUTBBLD/LBSPEC>,
        <https://w3id.org/cdisc/cosmos/dss/LB/NEUTBBLD/LBSTRESC>,
        <https://w3id.org/cdisc/cosmos/dss/LB/NEUTBBLD/LBSTRESN>,
        <https://w3id.org/cdisc/cosmos/dss/LB/NEUTBBLD/LBSTRESU>,
        <https://w3id.org/cdisc/cosmos/dss/LB/NEUTBBLD/LBTEST>,
        <https://w3id.org/cdisc/cosmos/dss/LB/NEUTBBLD/LBTESTCD> .

<https://w3id.org/cdisc/cosmos/dss/LB/NEUTBLD> a cosmos_sdtm:SDTMGroup ;
    dcterms:identifier "NEUTBLD" ;
    rdf:_1 <https://w3id.org/cdisc/cosmos/dss/LB/NEUTBLD/LBTESTCD> ;
    rdf:_10 <https://w3id.org/cdisc/cosmos/dss/LB/NEUTBLD/LBSPEC> ;
    rdf:_11 <https://w3id.org/cdisc/cosmos/dss/LB/NEUTBLD/LBFAST> ;
    rdf:_12 <https://w3id.org/cdisc/cosmos/dss/LB/NEUTBLD/LBDTC> ;
    rdf:_2 <https://w3id.org/cdisc/cosmos/dss/LB/NEUTBLD/LBTEST> ;
    rdf:_3 <https://w3id.org/cdisc/cosmos/dss/LB/NEUTBLD/LBCAT> ;
    rdf:_4 <https://w3id.org/cdisc/cosmos/dss/LB/NEUTBLD/LBORRES> ;
    rdf:_5 <https://w3id.org/cdisc/cosmos/dss/LB/NEUTBLD/LBORRESU> ;
    rdf:_6 <https://w3id.org/cdisc/cosmos/dss/LB/NEUTBLD/LBSTRESC> ;
    rdf:_7 <https://w3id.org/cdisc/cosmos/dss/LB/NEUTBLD/LBSTRESN> ;
    rdf:_8 <https://w3id.org/cdisc/cosmos/dss/LB/NEUTBLD/LBSTRESU> ;
    rdf:_9 <https://w3id.org/cdisc/cosmos/dss/LB/NEUTBLD/LBLOINC> ;
    cosmos_sdtm:biomedicalConceptId NCIT:C63321 ;
    cosmos_sdtm:domain "LB" ;
    cosmos_sdtm:packageDate "2026-05-26"^^xsd:date ;
    cosmos_sdtm:packageType <https://www.cdisc.org/cosmos/sdtm_v1.0/PackageTypeEnum#sdtm> ;
    cosmos_sdtm:sdtmigStartVersion "3-2" ;
    cosmos_sdtm:shortName "Neutrophils in Blood" ;
    cosmos_sdtm:source "LB.LBTESTCD" ;
    cosmos_sdtm:variables <https://w3id.org/cdisc/cosmos/dss/LB/NEUTBLD/LBCAT>,
        <https://w3id.org/cdisc/cosmos/dss/LB/NEUTBLD/LBDTC>,
        <https://w3id.org/cdisc/cosmos/dss/LB/NEUTBLD/LBFAST>,
        <https://w3id.org/cdisc/cosmos/dss/LB/NEUTBLD/LBLOINC>,
        <https://w3id.org/cdisc/cosmos/dss/LB/NEUTBLD/LBORRES>,
        <https://w3id.org/cdisc/cosmos/dss/LB/NEUTBLD/LBORRESU>,
        <https://w3id.org/cdisc/cosmos/dss/LB/NEUTBLD/LBSPEC>,
        <https://w3id.org/cdisc/cosmos/dss/LB/NEUTBLD/LBSTRESC>,
        <https://w3id.org/cdisc/cosmos/dss/LB/NEUTBLD/LBSTRESN>,
        <https://w3id.org/cdisc/cosmos/dss/LB/NEUTBLD/LBSTRESU>,
        <https://w3id.org/cdisc/cosmos/dss/LB/NEUTBLD/LBTEST>,
        <https://w3id.org/cdisc/cosmos/dss/LB/NEUTBLD/LBTESTCD> .

<https://w3id.org/cdisc/cosmos/dss/LB/NEUTBLEBLD> a cosmos_sdtm:SDTMGroup ;
    dcterms:identifier "NEUTBLEBLD" ;
    rdf:_1 <https://w3id.org/cdisc/cosmos/dss/LB/NEUTBLEBLD/LBTESTCD> ;
    rdf:_10 <https://w3id.org/cdisc/cosmos/dss/LB/NEUTBLEBLD/LBSPEC> ;
    rdf:_11 <https://w3id.org/cdisc/cosmos/dss/LB/NEUTBLEBLD/LBFAST> ;
    rdf:_12 <https://w3id.org/cdisc/cosmos/dss/LB/NEUTBLEBLD/LBDTC> ;
    rdf:_2 <https://w3id.org/cdisc/cosmos/dss/LB/NEUTBLEBLD/LBTEST> ;
    rdf:_3 <https://w3id.org/cdisc/cosmos/dss/LB/NEUTBLEBLD/LBCAT> ;
    rdf:_4 <https://w3id.org/cdisc/cosmos/dss/LB/NEUTBLEBLD/LBORRES> ;
    rdf:_5 <https://w3id.org/cdisc/cosmos/dss/LB/NEUTBLEBLD/LBORRESU> ;
    rdf:_6 <https://w3id.org/cdisc/cosmos/dss/LB/NEUTBLEBLD/LBSTRESC> ;
    rdf:_7 <https://w3id.org/cdisc/cosmos/dss/LB/NEUTBLEBLD/LBSTRESN> ;
    rdf:_8 <https://w3id.org/cdisc/cosmos/dss/LB/NEUTBLEBLD/LBSTRESU> ;
    rdf:_9 <https://w3id.org/cdisc/cosmos/dss/LB/NEUTBLEBLD/LBLOINC> ;
    cosmos_sdtm:biomedicalConceptId NCIT:C64831 ;
    cosmos_sdtm:domain "LB" ;
    cosmos_sdtm:packageDate "2026-05-26"^^xsd:date ;
    cosmos_sdtm:packageType <https://www.cdisc.org/cosmos/sdtm_v1.0/PackageTypeEnum#sdtm> ;
    cosmos_sdtm:sdtmigStartVersion "3-2" ;
    cosmos_sdtm:shortName "Neutrophils Band Form/Leukocytes in Blood" ;
    cosmos_sdtm:source "LB.LBTESTCD" ;
    cosmos_sdtm:variables <https://w3id.org/cdisc/cosmos/dss/LB/NEUTBLEBLD/LBCAT>,
        <https://w3id.org/cdisc/cosmos/dss/LB/NEUTBLEBLD/LBDTC>,
        <https://w3id.org/cdisc/cosmos/dss/LB/NEUTBLEBLD/LBFAST>,
        <https://w3id.org/cdisc/cosmos/dss/LB/NEUTBLEBLD/LBLOINC>,
        <https://w3id.org/cdisc/cosmos/dss/LB/NEUTBLEBLD/LBORRES>,
        <https://w3id.org/cdisc/cosmos/dss/LB/NEUTBLEBLD/LBORRESU>,
        <https://w3id.org/cdisc/cosmos/dss/LB/NEUTBLEBLD/LBSPEC>,
        <https://w3id.org/cdisc/cosmos/dss/LB/NEUTBLEBLD/LBSTRESC>,
        <https://w3id.org/cdisc/cosmos/dss/LB/NEUTBLEBLD/LBSTRESN>,
        <https://w3id.org/cdisc/cosmos/dss/LB/NEUTBLEBLD/LBSTRESU>,
        <https://w3id.org/cdisc/cosmos/dss/LB/NEUTBLEBLD/LBTEST>,
        <https://w3id.org/cdisc/cosmos/dss/LB/NEUTBLEBLD/LBTESTCD> .

<https://w3id.org/cdisc/cosmos/dss/LB/NEUTLEBLD> a cosmos_sdtm:SDTMGroup ;
    dcterms:identifier "NEUTLEBLD" ;
    rdf:_1 <https://w3id.org/cdisc/cosmos/dss/LB/NEUTLEBLD/LBTESTCD> ;
    rdf:_10 <https://w3id.org/cdisc/cosmos/dss/LB/NEUTLEBLD/LBSPEC> ;
    rdf:_11 <https://w3id.org/cdisc/cosmos/dss/LB/NEUTLEBLD/LBFAST> ;
    rdf:_12 <https://w3id.org/cdisc/cosmos/dss/LB/NEUTLEBLD/LBDTC> ;
    rdf:_2 <https://w3id.org/cdisc/cosmos/dss/LB/NEUTLEBLD/LBTEST> ;
    rdf:_3 <https://w3id.org/cdisc/cosmos/dss/LB/NEUTLEBLD/LBCAT> ;
    rdf:_4 <https://w3id.org/cdisc/cosmos/dss/LB/NEUTLEBLD/LBORRES> ;
    rdf:_5 <https://w3id.org/cdisc/cosmos/dss/LB/NEUTLEBLD/LBORRESU> ;
    rdf:_6 <https://w3id.org/cdisc/cosmos/dss/LB/NEUTLEBLD/LBSTRESC> ;
    rdf:_7 <https://w3id.org/cdisc/cosmos/dss/LB/NEUTLEBLD/LBSTRESN> ;
    rdf:_8 <https://w3id.org/cdisc/cosmos/dss/LB/NEUTLEBLD/LBSTRESU> ;
    rdf:_9 <https://w3id.org/cdisc/cosmos/dss/LB/NEUTLEBLD/LBLOINC> ;
    cosmos_sdtm:biomedicalConceptId NCIT:C64827 ;
    cosmos_sdtm:domain "LB" ;
    cosmos_sdtm:packageDate "2026-05-26"^^xsd:date ;
    cosmos_sdtm:packageType <https://www.cdisc.org/cosmos/sdtm_v1.0/PackageTypeEnum#sdtm> ;
    cosmos_sdtm:sdtmigStartVersion "3-2" ;
    cosmos_sdtm:shortName "Neutrophils/Leukocytes in Blood" ;
    cosmos_sdtm:source "LB.LBTESTCD" ;
    cosmos_sdtm:variables <https://w3id.org/cdisc/cosmos/dss/LB/NEUTLEBLD/LBCAT>,
        <https://w3id.org/cdisc/cosmos/dss/LB/NEUTLEBLD/LBDTC>,
        <https://w3id.org/cdisc/cosmos/dss/LB/NEUTLEBLD/LBFAST>,
        <https://w3id.org/cdisc/cosmos/dss/LB/NEUTLEBLD/LBLOINC>,
        <https://w3id.org/cdisc/cosmos/dss/LB/NEUTLEBLD/LBORRES>,
        <https://w3id.org/cdisc/cosmos/dss/LB/NEUTLEBLD/LBORRESU>,
        <https://w3id.org/cdisc/cosmos/dss/LB/NEUTLEBLD/LBSPEC>,
        <https://w3id.org/cdisc/cosmos/dss/LB/NEUTLEBLD/LBSTRESC>,
        <https://w3id.org/cdisc/cosmos/dss/LB/NEUTLEBLD/LBSTRESN>,
        <https://w3id.org/cdisc/cosmos/dss/LB/NEUTLEBLD/LBSTRESU>,
        <https://w3id.org/cdisc/cosmos/dss/LB/NEUTLEBLD/LBTEST>,
        <https://w3id.org/cdisc/cosmos/dss/LB/NEUTLEBLD/LBTESTCD> .

<https://w3id.org/cdisc/cosmos/dss/LB/NEUTSGBLD> a cosmos_sdtm:SDTMGroup ;
    dcterms:identifier "NEUTSGBLD" ;
    rdf:_1 <https://w3id.org/cdisc/cosmos/dss/LB/NEUTSGBLD/LBTESTCD> ;
    rdf:_10 <https://w3id.org/cdisc/cosmos/dss/LB/NEUTSGBLD/LBSPEC> ;
    rdf:_11 <https://w3id.org/cdisc/cosmos/dss/LB/NEUTSGBLD/LBFAST> ;
    rdf:_12 <https://w3id.org/cdisc/cosmos/dss/LB/NEUTSGBLD/LBDTC> ;
    rdf:_2 <https://w3id.org/cdisc/cosmos/dss/LB/NEUTSGBLD/LBTEST> ;
    rdf:_3 <https://w3id.org/cdisc/cosmos/dss/LB/NEUTSGBLD/LBCAT> ;
    rdf:_4 <https://w3id.org/cdisc/cosmos/dss/LB/NEUTSGBLD/LBORRES> ;
    rdf:_5 <https://w3id.org/cdisc/cosmos/dss/LB/NEUTSGBLD/LBORRESU> ;
    rdf:_6 <https://w3id.org/cdisc/cosmos/dss/LB/NEUTSGBLD/LBSTRESC> ;
    rdf:_7 <https://w3id.org/cdisc/cosmos/dss/LB/NEUTSGBLD/LBSTRESN> ;
    rdf:_8 <https://w3id.org/cdisc/cosmos/dss/LB/NEUTSGBLD/LBSTRESU> ;
    rdf:_9 <https://w3id.org/cdisc/cosmos/dss/LB/NEUTSGBLD/LBLOINC> ;
    cosmos_sdtm:biomedicalConceptId NCIT:C81997 ;
    cosmos_sdtm:domain "LB" ;
    cosmos_sdtm:packageDate "2026-05-26"^^xsd:date ;
    cosmos_sdtm:packageType <https://www.cdisc.org/cosmos/sdtm_v1.0/PackageTypeEnum#sdtm> ;
    cosmos_sdtm:sdtmigStartVersion "3-2" ;
    cosmos_sdtm:shortName "Segmented Neutrophils in Blood" ;
    cosmos_sdtm:source "LB.LBTESTCD" ;
    cosmos_sdtm:variables <https://w3id.org/cdisc/cosmos/dss/LB/NEUTSGBLD/LBCAT>,
        <https://w3id.org/cdisc/cosmos/dss/LB/NEUTSGBLD/LBDTC>,
        <https://w3id.org/cdisc/cosmos/dss/LB/NEUTSGBLD/LBFAST>,
        <https://w3id.org/cdisc/cosmos/dss/LB/NEUTSGBLD/LBLOINC>,
        <https://w3id.org/cdisc/cosmos/dss/LB/NEUTSGBLD/LBORRES>,
        <https://w3id.org/cdisc/cosmos/dss/LB/NEUTSGBLD/LBORRESU>,
        <https://w3id.org/cdisc/cosmos/dss/LB/NEUTSGBLD/LBSPEC>,
        <https://w3id.org/cdisc/cosmos/dss/LB/NEUTSGBLD/LBSTRESC>,
        <https://w3id.org/cdisc/cosmos/dss/LB/NEUTSGBLD/LBSTRESN>,
        <https://w3id.org/cdisc/cosmos/dss/LB/NEUTSGBLD/LBSTRESU>,
        <https://w3id.org/cdisc/cosmos/dss/LB/NEUTSGBLD/LBTEST>,
        <https://w3id.org/cdisc/cosmos/dss/LB/NEUTSGBLD/LBTESTCD> .

<https://w3id.org/cdisc/cosmos/dss/LB/NEUTSGLEBLD> a cosmos_sdtm:SDTMGroup ;
    dcterms:identifier "NEUTSGLEBLD" ;
    rdf:_1 <https://w3id.org/cdisc/cosmos/dss/LB/NEUTSGLEBLD/LBTESTCD> ;
    rdf:_10 <https://w3id.org/cdisc/cosmos/dss/LB/NEUTSGLEBLD/LBSPEC> ;
    rdf:_11 <https://w3id.org/cdisc/cosmos/dss/LB/NEUTSGLEBLD/LBFAST> ;
    rdf:_12 <https://w3id.org/cdisc/cosmos/dss/LB/NEUTSGLEBLD/LBDTC> ;
    rdf:_2 <https://w3id.org/cdisc/cosmos/dss/LB/NEUTSGLEBLD/LBTEST> ;
    rdf:_3 <https://w3id.org/cdisc/cosmos/dss/LB/NEUTSGLEBLD/LBCAT> ;
    rdf:_4 <https://w3id.org/cdisc/cosmos/dss/LB/NEUTSGLEBLD/LBORRES> ;
    rdf:_5 <https://w3id.org/cdisc/cosmos/dss/LB/NEUTSGLEBLD/LBORRESU> ;
    rdf:_6 <https://w3id.org/cdisc/cosmos/dss/LB/NEUTSGLEBLD/LBSTRESC> ;
    rdf:_7 <https://w3id.org/cdisc/cosmos/dss/LB/NEUTSGLEBLD/LBSTRESN> ;
    rdf:_8 <https://w3id.org/cdisc/cosmos/dss/LB/NEUTSGLEBLD/LBSTRESU> ;
    rdf:_9 <https://w3id.org/cdisc/cosmos/dss/LB/NEUTSGLEBLD/LBLOINC> ;
    cosmos_sdtm:biomedicalConceptId NCIT:C82045 ;
    cosmos_sdtm:domain "LB" ;
    cosmos_sdtm:packageDate "2026-05-26"^^xsd:date ;
    cosmos_sdtm:packageType <https://www.cdisc.org/cosmos/sdtm_v1.0/PackageTypeEnum#sdtm> ;
    cosmos_sdtm:sdtmigStartVersion "3-2" ;
    cosmos_sdtm:shortName "Neutrophils, Segmented/Leukocytes in Blood" ;
    cosmos_sdtm:source "LB.LBTESTCD" ;
    cosmos_sdtm:variables <https://w3id.org/cdisc/cosmos/dss/LB/NEUTSGLEBLD/LBCAT>,
        <https://w3id.org/cdisc/cosmos/dss/LB/NEUTSGLEBLD/LBDTC>,
        <https://w3id.org/cdisc/cosmos/dss/LB/NEUTSGLEBLD/LBFAST>,
        <https://w3id.org/cdisc/cosmos/dss/LB/NEUTSGLEBLD/LBLOINC>,
        <https://w3id.org/cdisc/cosmos/dss/LB/NEUTSGLEBLD/LBORRES>,
        <https://w3id.org/cdisc/cosmos/dss/LB/NEUTSGLEBLD/LBORRESU>,
        <https://w3id.org/cdisc/cosmos/dss/LB/NEUTSGLEBLD/LBSPEC>,
        <https://w3id.org/cdisc/cosmos/dss/LB/NEUTSGLEBLD/LBSTRESC>,
        <https://w3id.org/cdisc/cosmos/dss/LB/NEUTSGLEBLD/LBSTRESN>,
        <https://w3id.org/cdisc/cosmos/dss/LB/NEUTSGLEBLD/LBSTRESU>,
        <https://w3id.org/cdisc/cosmos/dss/LB/NEUTSGLEBLD/LBTEST>,
        <https://w3id.org/cdisc/cosmos/dss/LB/NEUTSGLEBLD/LBTESTCD> .

<https://w3id.org/cdisc/cosmos/dss/LB/NICOTINESERPL> a cosmos_sdtm:SDTMGroup ;
    dcterms:identifier "NICOTINESERPL" ;
    rdf:_1 <https://w3id.org/cdisc/cosmos/dss/LB/NICOTINESERPL/LBTESTCD> ;
    rdf:_10 <https://w3id.org/cdisc/cosmos/dss/LB/NICOTINESERPL/LBSPEC> ;
    rdf:_11 <https://w3id.org/cdisc/cosmos/dss/LB/NICOTINESERPL/LBDTC> ;
    rdf:_2 <https://w3id.org/cdisc/cosmos/dss/LB/NICOTINESERPL/LBTEST> ;
    rdf:_3 <https://w3id.org/cdisc/cosmos/dss/LB/NICOTINESERPL/LBCAT> ;
    rdf:_4 <https://w3id.org/cdisc/cosmos/dss/LB/NICOTINESERPL/LBORRES> ;
    rdf:_5 <https://w3id.org/cdisc/cosmos/dss/LB/NICOTINESERPL/LBORRESU> ;
    rdf:_6 <https://w3id.org/cdisc/cosmos/dss/LB/NICOTINESERPL/LBSTRESC> ;
    rdf:_7 <https://w3id.org/cdisc/cosmos/dss/LB/NICOTINESERPL/LBSTRESN> ;
    rdf:_8 <https://w3id.org/cdisc/cosmos/dss/LB/NICOTINESERPL/LBSTRESU> ;
    rdf:_9 <https://w3id.org/cdisc/cosmos/dss/LB/NICOTINESERPL/LBLOINC> ;
    cosmos_sdtm:biomedicalConceptId NCIT:C147403 ;
    cosmos_sdtm:domain "LB" ;
    cosmos_sdtm:packageDate "2026-05-26"^^xsd:date ;
    cosmos_sdtm:packageType <https://www.cdisc.org/cosmos/sdtm_v1.0/PackageTypeEnum#sdtm> ;
    cosmos_sdtm:sdtmigStartVersion "3-2" ;
    cosmos_sdtm:shortName "Nicotine Concentration in Serum or Plasma" ;
    cosmos_sdtm:source "LB.LBTESTCD" ;
    cosmos_sdtm:variables <https://w3id.org/cdisc/cosmos/dss/LB/NICOTINESERPL/LBCAT>,
        <https://w3id.org/cdisc/cosmos/dss/LB/NICOTINESERPL/LBDTC>,
        <https://w3id.org/cdisc/cosmos/dss/LB/NICOTINESERPL/LBLOINC>,
        <https://w3id.org/cdisc/cosmos/dss/LB/NICOTINESERPL/LBORRES>,
        <https://w3id.org/cdisc/cosmos/dss/LB/NICOTINESERPL/LBORRESU>,
        <https://w3id.org/cdisc/cosmos/dss/LB/NICOTINESERPL/LBSPEC>,
        <https://w3id.org/cdisc/cosmos/dss/LB/NICOTINESERPL/LBSTRESC>,
        <https://w3id.org/cdisc/cosmos/dss/LB/NICOTINESERPL/LBSTRESN>,
        <https://w3id.org/cdisc/cosmos/dss/LB/NICOTINESERPL/LBSTRESU>,
        <https://w3id.org/cdisc/cosmos/dss/LB/NICOTINESERPL/LBTEST>,
        <https://w3id.org/cdisc/cosmos/dss/LB/NICOTINESERPL/LBTESTCD> .

<https://w3id.org/cdisc/cosmos/dss/LB/NICOTINEURIN> a cosmos_sdtm:SDTMGroup ;
    dcterms:identifier "NICOTINEURIN" ;
    rdf:_1 <https://w3id.org/cdisc/cosmos/dss/LB/NICOTINEURIN/LBTESTCD> ;
    rdf:_10 <https://w3id.org/cdisc/cosmos/dss/LB/NICOTINEURIN/LBSPEC> ;
    rdf:_11 <https://w3id.org/cdisc/cosmos/dss/LB/NICOTINEURIN/LBDTC> ;
    rdf:_2 <https://w3id.org/cdisc/cosmos/dss/LB/NICOTINEURIN/LBTEST> ;
    rdf:_3 <https://w3id.org/cdisc/cosmos/dss/LB/NICOTINEURIN/LBCAT> ;
    rdf:_4 <https://w3id.org/cdisc/cosmos/dss/LB/NICOTINEURIN/LBORRES> ;
    rdf:_5 <https://w3id.org/cdisc/cosmos/dss/LB/NICOTINEURIN/LBORRESU> ;
    rdf:_6 <https://w3id.org/cdisc/cosmos/dss/LB/NICOTINEURIN/LBSTRESC> ;
    rdf:_7 <https://w3id.org/cdisc/cosmos/dss/LB/NICOTINEURIN/LBSTRESN> ;
    rdf:_8 <https://w3id.org/cdisc/cosmos/dss/LB/NICOTINEURIN/LBSTRESU> ;
    rdf:_9 <https://w3id.org/cdisc/cosmos/dss/LB/NICOTINEURIN/LBLOINC> ;
    cosmos_sdtm:biomedicalConceptId NCIT:C147403 ;
    cosmos_sdtm:domain "LB" ;
    cosmos_sdtm:packageDate "2026-05-26"^^xsd:date ;
    cosmos_sdtm:packageType <https://www.cdisc.org/cosmos/sdtm_v1.0/PackageTypeEnum#sdtm> ;
    cosmos_sdtm:sdtmigStartVersion "3-2" ;
    cosmos_sdtm:shortName "Nicotine Concentration in Urine" ;
    cosmos_sdtm:source "LB.LBTESTCD" ;
    cosmos_sdtm:variables <https://w3id.org/cdisc/cosmos/dss/LB/NICOTINEURIN/LBCAT>,
        <https://w3id.org/cdisc/cosmos/dss/LB/NICOTINEURIN/LBDTC>,
        <https://w3id.org/cdisc/cosmos/dss/LB/NICOTINEURIN/LBLOINC>,
        <https://w3id.org/cdisc/cosmos/dss/LB/NICOTINEURIN/LBORRES>,
        <https://w3id.org/cdisc/cosmos/dss/LB/NICOTINEURIN/LBORRESU>,
        <https://w3id.org/cdisc/cosmos/dss/LB/NICOTINEURIN/LBSPEC>,
        <https://w3id.org/cdisc/cosmos/dss/LB/NICOTINEURIN/LBSTRESC>,
        <https://w3id.org/cdisc/cosmos/dss/LB/NICOTINEURIN/LBSTRESN>,
        <https://w3id.org/cdisc/cosmos/dss/LB/NICOTINEURIN/LBSTRESU>,
        <https://w3id.org/cdisc/cosmos/dss/LB/NICOTINEURIN/LBTEST>,
        <https://w3id.org/cdisc/cosmos/dss/LB/NICOTINEURIN/LBTESTCD> .

<https://w3id.org/cdisc/cosmos/dss/LB/NITRITEURIN> a cosmos_sdtm:SDTMGroup ;
    dcterms:identifier "NITRITEURIN" ;
    rdf:_1 <https://w3id.org/cdisc/cosmos/dss/LB/NITRITEURIN/LBTESTCD> ;
    rdf:_10 <https://w3id.org/cdisc/cosmos/dss/LB/NITRITEURIN/LBSPEC> ;
    rdf:_11 <https://w3id.org/cdisc/cosmos/dss/LB/NITRITEURIN/LBFAST> ;
    rdf:_12 <https://w3id.org/cdisc/cosmos/dss/LB/NITRITEURIN/LBDTC> ;
    rdf:_2 <https://w3id.org/cdisc/cosmos/dss/LB/NITRITEURIN/LBTEST> ;
    rdf:_3 <https://w3id.org/cdisc/cosmos/dss/LB/NITRITEURIN/LBCAT> ;
    rdf:_4 <https://w3id.org/cdisc/cosmos/dss/LB/NITRITEURIN/LBORRES> ;
    rdf:_5 <https://w3id.org/cdisc/cosmos/dss/LB/NITRITEURIN/LBORRESU> ;
    rdf:_6 <https://w3id.org/cdisc/cosmos/dss/LB/NITRITEURIN/LBSTRESC> ;
    rdf:_7 <https://w3id.org/cdisc/cosmos/dss/LB/NITRITEURIN/LBSTRESN> ;
    rdf:_8 <https://w3id.org/cdisc/cosmos/dss/LB/NITRITEURIN/LBSTRESU> ;
    rdf:_9 <https://w3id.org/cdisc/cosmos/dss/LB/NITRITEURIN/LBLOINC> ;
    cosmos_sdtm:biomedicalConceptId NCIT:C64810 ;
    cosmos_sdtm:domain "LB" ;
    cosmos_sdtm:packageDate "2026-05-26"^^xsd:date ;
    cosmos_sdtm:packageType <https://www.cdisc.org/cosmos/sdtm_v1.0/PackageTypeEnum#sdtm> ;
    cosmos_sdtm:sdtmigStartVersion "3-2" ;
    cosmos_sdtm:shortName "Nitrite Concentration in Urine" ;
    cosmos_sdtm:source "LB.LBTESTCD" ;
    cosmos_sdtm:variables <https://w3id.org/cdisc/cosmos/dss/LB/NITRITEURIN/LBCAT>,
        <https://w3id.org/cdisc/cosmos/dss/LB/NITRITEURIN/LBDTC>,
        <https://w3id.org/cdisc/cosmos/dss/LB/NITRITEURIN/LBFAST>,
        <https://w3id.org/cdisc/cosmos/dss/LB/NITRITEURIN/LBLOINC>,
        <https://w3id.org/cdisc/cosmos/dss/LB/NITRITEURIN/LBORRES>,
        <https://w3id.org/cdisc/cosmos/dss/LB/NITRITEURIN/LBORRESU>,
        <https://w3id.org/cdisc/cosmos/dss/LB/NITRITEURIN/LBSPEC>,
        <https://w3id.org/cdisc/cosmos/dss/LB/NITRITEURIN/LBSTRESC>,
        <https://w3id.org/cdisc/cosmos/dss/LB/NITRITEURIN/LBSTRESN>,
        <https://w3id.org/cdisc/cosmos/dss/LB/NITRITEURIN/LBSTRESU>,
        <https://w3id.org/cdisc/cosmos/dss/LB/NITRITEURIN/LBTEST>,
        <https://w3id.org/cdisc/cosmos/dss/LB/NITRITEURIN/LBTESTCD> .

<https://w3id.org/cdisc/cosmos/dss/LB/NITRITEURINPRES> a cosmos_sdtm:SDTMGroup ;
    dcterms:identifier "NITRITEURINPRES" ;
    rdf:_1 <https://w3id.org/cdisc/cosmos/dss/LB/NITRITEURINPRES/LBTESTCD> ;
    rdf:_2 <https://w3id.org/cdisc/cosmos/dss/LB/NITRITEURINPRES/LBTEST> ;
    rdf:_3 <https://w3id.org/cdisc/cosmos/dss/LB/NITRITEURINPRES/LBCAT> ;
    rdf:_4 <https://w3id.org/cdisc/cosmos/dss/LB/NITRITEURINPRES/LBORRES> ;
    rdf:_5 <https://w3id.org/cdisc/cosmos/dss/LB/NITRITEURINPRES/LBSTRESC> ;
    rdf:_6 <https://w3id.org/cdisc/cosmos/dss/LB/NITRITEURINPRES/LBLOINC> ;
    rdf:_7 <https://w3id.org/cdisc/cosmos/dss/LB/NITRITEURINPRES/LBSPEC> ;
    rdf:_8 <https://w3id.org/cdisc/cosmos/dss/LB/NITRITEURINPRES/LBFAST> ;
    rdf:_9 <https://w3id.org/cdisc/cosmos/dss/LB/NITRITEURINPRES/LBDTC> ;
    cosmos_sdtm:biomedicalConceptId NCIT:C64810 ;
    cosmos_sdtm:domain "LB" ;
    cosmos_sdtm:packageDate "2026-05-26"^^xsd:date ;
    cosmos_sdtm:packageType <https://www.cdisc.org/cosmos/sdtm_v1.0/PackageTypeEnum#sdtm> ;
    cosmos_sdtm:sdtmigStartVersion "3-2" ;
    cosmos_sdtm:shortName "Nitrite Presence in Urine" ;
    cosmos_sdtm:source "LB.LBTESTCD" ;
    cosmos_sdtm:variables <https://w3id.org/cdisc/cosmos/dss/LB/NITRITEURINPRES/LBCAT>,
        <https://w3id.org/cdisc/cosmos/dss/LB/NITRITEURINPRES/LBDTC>,
        <https://w3id.org/cdisc/cosmos/dss/LB/NITRITEURINPRES/LBFAST>,
        <https://w3id.org/cdisc/cosmos/dss/LB/NITRITEURINPRES/LBLOINC>,
        <https://w3id.org/cdisc/cosmos/dss/LB/NITRITEURINPRES/LBORRES>,
        <https://w3id.org/cdisc/cosmos/dss/LB/NITRITEURINPRES/LBSPEC>,
        <https://w3id.org/cdisc/cosmos/dss/LB/NITRITEURINPRES/LBSTRESC>,
        <https://w3id.org/cdisc/cosmos/dss/LB/NITRITEURINPRES/LBTEST>,
        <https://w3id.org/cdisc/cosmos/dss/LB/NITRITEURINPRES/LBTESTCD> .

<https://w3id.org/cdisc/cosmos/dss/LB/NORNCTNURIN> a cosmos_sdtm:SDTMGroup ;
    dcterms:identifier "NORNCTNURIN" ;
    rdf:_1 <https://w3id.org/cdisc/cosmos/dss/LB/NORNCTNURIN/LBTESTCD> ;
    rdf:_10 <https://w3id.org/cdisc/cosmos/dss/LB/NORNCTNURIN/LBSPEC> ;
    rdf:_11 <https://w3id.org/cdisc/cosmos/dss/LB/NORNCTNURIN/LBDTC> ;
    rdf:_2 <https://w3id.org/cdisc/cosmos/dss/LB/NORNCTNURIN/LBTEST> ;
    rdf:_3 <https://w3id.org/cdisc/cosmos/dss/LB/NORNCTNURIN/LBCAT> ;
    rdf:_4 <https://w3id.org/cdisc/cosmos/dss/LB/NORNCTNURIN/LBORRES> ;
    rdf:_5 <https://w3id.org/cdisc/cosmos/dss/LB/NORNCTNURIN/LBORRESU> ;
    rdf:_6 <https://w3id.org/cdisc/cosmos/dss/LB/NORNCTNURIN/LBSTRESC> ;
    rdf:_7 <https://w3id.org/cdisc/cosmos/dss/LB/NORNCTNURIN/LBSTRESN> ;
    rdf:_8 <https://w3id.org/cdisc/cosmos/dss/LB/NORNCTNURIN/LBSTRESU> ;
    rdf:_9 <https://w3id.org/cdisc/cosmos/dss/LB/NORNCTNURIN/LBLOINC> ;
    cosmos_sdtm:biomedicalConceptId NCIT:C147406 ;
    cosmos_sdtm:domain "LB" ;
    cosmos_sdtm:packageDate "2026-05-26"^^xsd:date ;
    cosmos_sdtm:packageType <https://www.cdisc.org/cosmos/sdtm_v1.0/PackageTypeEnum#sdtm> ;
    cosmos_sdtm:sdtmigStartVersion "3-2" ;
    cosmos_sdtm:shortName "Nornicotine Concentration in Urine" ;
    cosmos_sdtm:source "LB.LBTESTCD" ;
    cosmos_sdtm:variables <https://w3id.org/cdisc/cosmos/dss/LB/NORNCTNURIN/LBCAT>,
        <https://w3id.org/cdisc/cosmos/dss/LB/NORNCTNURIN/LBDTC>,
        <https://w3id.org/cdisc/cosmos/dss/LB/NORNCTNURIN/LBLOINC>,
        <https://w3id.org/cdisc/cosmos/dss/LB/NORNCTNURIN/LBORRES>,
        <https://w3id.org/cdisc/cosmos/dss/LB/NORNCTNURIN/LBORRESU>,
        <https://w3id.org/cdisc/cosmos/dss/LB/NORNCTNURIN/LBSPEC>,
        <https://w3id.org/cdisc/cosmos/dss/LB/NORNCTNURIN/LBSTRESC>,
        <https://w3id.org/cdisc/cosmos/dss/LB/NORNCTNURIN/LBSTRESN>,
        <https://w3id.org/cdisc/cosmos/dss/LB/NORNCTNURIN/LBSTRESU>,
        <https://w3id.org/cdisc/cosmos/dss/LB/NORNCTNURIN/LBTEST>,
        <https://w3id.org/cdisc/cosmos/dss/LB/NORNCTNURIN/LBTESTCD> .

<https://w3id.org/cdisc/cosmos/dss/LB/OCCBLDSTOOL> a cosmos_sdtm:SDTMGroup ;
    dcterms:identifier "OCCBLDSTOOL" ;
    rdf:_1 <https://w3id.org/cdisc/cosmos/dss/LB/OCCBLDSTOOL/LBTESTCD> ;
    rdf:_2 <https://w3id.org/cdisc/cosmos/dss/LB/OCCBLDSTOOL/LBTEST> ;
    rdf:_3 <https://w3id.org/cdisc/cosmos/dss/LB/OCCBLDSTOOL/LBCAT> ;
    rdf:_4 <https://w3id.org/cdisc/cosmos/dss/LB/OCCBLDSTOOL/LBORRES> ;
    rdf:_5 <https://w3id.org/cdisc/cosmos/dss/LB/OCCBLDSTOOL/LBSTRESC> ;
    rdf:_6 <https://w3id.org/cdisc/cosmos/dss/LB/OCCBLDSTOOL/LBLOINC> ;
    rdf:_7 <https://w3id.org/cdisc/cosmos/dss/LB/OCCBLDSTOOL/LBSPEC> ;
