@prefix NCIT: <http://purl.obolibrary.org/obo/NCIT_> .
@prefix cosmos_sdtm: <https://www.cdisc.org/cosmos/sdtm_v1.0/> .
@prefix dcterms: <http://purl.org/dc/terms/> .
@prefix owl: <http://www.w3.org/2002/07/owl#> .
@prefix rdf: <http://www.w3.org/1999/02/22-rdf-syntax-ns#> .
@prefix rdfs: <http://www.w3.org/2000/01/rdf-schema#> .
@prefix skos: <http://www.w3.org/2004/02/skos/core#> .
@prefix xsd: <http://www.w3.org/2001/XMLSchema#> .

<https://w3id.org/cdisc/cosmos/dss/SU> a owl:Ontology ;
    rdfs:label "CDISC COSMoS Dataset Specializations, SU (instances)" ;
    dcterms:identifier "2026-07-14" ;
    dcterms:source <https://raw.githubusercontent.com/cdisc-org/COSMoS/031429b1d14823721991cd23ee88a11616686ce3/export/cdisc_sdtm_dataset_specializations_latest.csv> ;
    rdfs:comment "Dataset Specialization instances for domain SU, rendered from the pinned COSMoS export. Variable order is the export's row order, carried as rdf:_n membership beside the variables edges. length and significantDigits are cast from the export's decimal form to integer; packageType is not in the export and is set to the enum's single value. A biomedicalConceptId or dataElementConceptId that resolves to no node is carried as the published string. The concept nodes those edges reach are declared in the Biomedical Concept instance graph, which is not imported. Draft - not a normative CDISC artifact." ;
    owl:imports <https://w3id.org/cdisc/cosmos/sdtm/> ;
    owl:versionIRI <https://w3id.org/cdisc/cosmos/dss/SU/0.4.0> ;
    owl:versionInfo "v0.4.0" .

<https://w3id.org/cdisc/cosmos/dss/SU/ALCOHOLHX> a cosmos_sdtm:SDTMGroup ;
    dcterms:identifier "ALCOHOLHX" ;
    rdf:_1 <https://w3id.org/cdisc/cosmos/dss/SU/ALCOHOLHX/SUTRT> ;
    rdf:_10 <https://w3id.org/cdisc/cosmos/dss/SU/ALCOHOLHX/SUSTDTC> ;
    rdf:_11 <https://w3id.org/cdisc/cosmos/dss/SU/ALCOHOLHX/SUENDTC> ;
    rdf:_12 <https://w3id.org/cdisc/cosmos/dss/SU/ALCOHOLHX/SUSTRF> ;
    rdf:_13 <https://w3id.org/cdisc/cosmos/dss/SU/ALCOHOLHX/SUSTRTPT> ;
    rdf:_14 <https://w3id.org/cdisc/cosmos/dss/SU/ALCOHOLHX/SUSTTPT> ;
    rdf:_15 <https://w3id.org/cdisc/cosmos/dss/SU/ALCOHOLHX/SUENRF> ;
    rdf:_16 <https://w3id.org/cdisc/cosmos/dss/SU/ALCOHOLHX/SUENRTPT> ;
    rdf:_17 <https://w3id.org/cdisc/cosmos/dss/SU/ALCOHOLHX/SUENTPT> ;
    rdf:_2 <https://w3id.org/cdisc/cosmos/dss/SU/ALCOHOLHX/SUCAT> ;
    rdf:_3 <https://w3id.org/cdisc/cosmos/dss/SU/ALCOHOLHX/SUSCAT> ;
    rdf:_4 <https://w3id.org/cdisc/cosmos/dss/SU/ALCOHOLHX/SUPRESP> ;
    rdf:_5 <https://w3id.org/cdisc/cosmos/dss/SU/ALCOHOLHX/SUOCCUR> ;
    rdf:_6 <https://w3id.org/cdisc/cosmos/dss/SU/ALCOHOLHX/SUDOSE> ;
    rdf:_7 <https://w3id.org/cdisc/cosmos/dss/SU/ALCOHOLHX/SUDOSTXT> ;
    rdf:_8 <https://w3id.org/cdisc/cosmos/dss/SU/ALCOHOLHX/SUDOSU> ;
    rdf:_9 <https://w3id.org/cdisc/cosmos/dss/SU/ALCOHOLHX/SUDOSFRQ> ;
    cosmos_sdtm:biomedicalConceptId NCIT:C81229 ;
    cosmos_sdtm:domain "SU" ;
    cosmos_sdtm:packageDate "2025-07-01"^^xsd:date ;
    cosmos_sdtm:packageType <https://www.cdisc.org/cosmos/sdtm_v1.0/PackageTypeEnum#sdtm> ;
    cosmos_sdtm:sdtmigStartVersion "3-2" ;
    cosmos_sdtm:shortName "Alcohol Use History" ;
    cosmos_sdtm:source "SU.SUTRT" ;
    cosmos_sdtm:variables <https://w3id.org/cdisc/cosmos/dss/SU/ALCOHOLHX/SUCAT>,
        <https://w3id.org/cdisc/cosmos/dss/SU/ALCOHOLHX/SUDOSE>,
        <https://w3id.org/cdisc/cosmos/dss/SU/ALCOHOLHX/SUDOSFRQ>,
        <https://w3id.org/cdisc/cosmos/dss/SU/ALCOHOLHX/SUDOSTXT>,
        <https://w3id.org/cdisc/cosmos/dss/SU/ALCOHOLHX/SUDOSU>,
        <https://w3id.org/cdisc/cosmos/dss/SU/ALCOHOLHX/SUENDTC>,
        <https://w3id.org/cdisc/cosmos/dss/SU/ALCOHOLHX/SUENRF>,
        <https://w3id.org/cdisc/cosmos/dss/SU/ALCOHOLHX/SUENRTPT>,
        <https://w3id.org/cdisc/cosmos/dss/SU/ALCOHOLHX/SUENTPT>,
        <https://w3id.org/cdisc/cosmos/dss/SU/ALCOHOLHX/SUOCCUR>,
        <https://w3id.org/cdisc/cosmos/dss/SU/ALCOHOLHX/SUPRESP>,
        <https://w3id.org/cdisc/cosmos/dss/SU/ALCOHOLHX/SUSCAT>,
        <https://w3id.org/cdisc/cosmos/dss/SU/ALCOHOLHX/SUSTDTC>,
        <https://w3id.org/cdisc/cosmos/dss/SU/ALCOHOLHX/SUSTRF>,
        <https://w3id.org/cdisc/cosmos/dss/SU/ALCOHOLHX/SUSTRTPT>,
        <https://w3id.org/cdisc/cosmos/dss/SU/ALCOHOLHX/SUSTTPT>,
        <https://w3id.org/cdisc/cosmos/dss/SU/ALCOHOLHX/SUTRT> .

<https://w3id.org/cdisc/cosmos/dss/SU/BEERHX> a cosmos_sdtm:SDTMGroup ;
    dcterms:identifier "BEERHX" ;
    rdf:_1 <https://w3id.org/cdisc/cosmos/dss/SU/BEERHX/SUTRT> ;
    rdf:_10 <https://w3id.org/cdisc/cosmos/dss/SU/BEERHX/SUSTDTC> ;
    rdf:_11 <https://w3id.org/cdisc/cosmos/dss/SU/BEERHX/SUENDTC> ;
    rdf:_12 <https://w3id.org/cdisc/cosmos/dss/SU/BEERHX/SUSTRF> ;
    rdf:_13 <https://w3id.org/cdisc/cosmos/dss/SU/BEERHX/SUSTRTPT> ;
    rdf:_14 <https://w3id.org/cdisc/cosmos/dss/SU/BEERHX/SUSTTPT> ;
    rdf:_15 <https://w3id.org/cdisc/cosmos/dss/SU/BEERHX/SUENRF> ;
    rdf:_16 <https://w3id.org/cdisc/cosmos/dss/SU/BEERHX/SUENRTPT> ;
    rdf:_17 <https://w3id.org/cdisc/cosmos/dss/SU/BEERHX/SUENTPT> ;
    rdf:_2 <https://w3id.org/cdisc/cosmos/dss/SU/BEERHX/SUCAT> ;
    rdf:_3 <https://w3id.org/cdisc/cosmos/dss/SU/BEERHX/SUSCAT> ;
    rdf:_4 <https://w3id.org/cdisc/cosmos/dss/SU/BEERHX/SUPRESP> ;
    rdf:_5 <https://w3id.org/cdisc/cosmos/dss/SU/BEERHX/SUOCCUR> ;
    rdf:_6 <https://w3id.org/cdisc/cosmos/dss/SU/BEERHX/SUDOSE> ;
    rdf:_7 <https://w3id.org/cdisc/cosmos/dss/SU/BEERHX/SUDOSTXT> ;
    rdf:_8 <https://w3id.org/cdisc/cosmos/dss/SU/BEERHX/SUDOSU> ;
    rdf:_9 <https://w3id.org/cdisc/cosmos/dss/SU/BEERHX/SUDOSFRQ> ;
    cosmos_sdtm:biomedicalConceptId NCIT:C81229 ;
    cosmos_sdtm:domain "SU" ;
    cosmos_sdtm:packageDate "2025-07-01"^^xsd:date ;
    cosmos_sdtm:packageType <https://www.cdisc.org/cosmos/sdtm_v1.0/PackageTypeEnum#sdtm> ;
    cosmos_sdtm:sdtmigStartVersion "3-2" ;
    cosmos_sdtm:shortName "Beer Use History" ;
    cosmos_sdtm:source "SU.SUTRT" ;
    cosmos_sdtm:variables <https://w3id.org/cdisc/cosmos/dss/SU/BEERHX/SUCAT>,
        <https://w3id.org/cdisc/cosmos/dss/SU/BEERHX/SUDOSE>,
        <https://w3id.org/cdisc/cosmos/dss/SU/BEERHX/SUDOSFRQ>,
        <https://w3id.org/cdisc/cosmos/dss/SU/BEERHX/SUDOSTXT>,
        <https://w3id.org/cdisc/cosmos/dss/SU/BEERHX/SUDOSU>,
        <https://w3id.org/cdisc/cosmos/dss/SU/BEERHX/SUENDTC>,
        <https://w3id.org/cdisc/cosmos/dss/SU/BEERHX/SUENRF>,
        <https://w3id.org/cdisc/cosmos/dss/SU/BEERHX/SUENRTPT>,
        <https://w3id.org/cdisc/cosmos/dss/SU/BEERHX/SUENTPT>,
        <https://w3id.org/cdisc/cosmos/dss/SU/BEERHX/SUOCCUR>,
        <https://w3id.org/cdisc/cosmos/dss/SU/BEERHX/SUPRESP>,
        <https://w3id.org/cdisc/cosmos/dss/SU/BEERHX/SUSCAT>,
        <https://w3id.org/cdisc/cosmos/dss/SU/BEERHX/SUSTDTC>,
        <https://w3id.org/cdisc/cosmos/dss/SU/BEERHX/SUSTRF>,
        <https://w3id.org/cdisc/cosmos/dss/SU/BEERHX/SUSTRTPT>,
        <https://w3id.org/cdisc/cosmos/dss/SU/BEERHX/SUSTTPT>,
        <https://w3id.org/cdisc/cosmos/dss/SU/BEERHX/SUTRT> .

<https://w3id.org/cdisc/cosmos/dss/SU/CAFFEINEHX> a cosmos_sdtm:SDTMGroup ;
    dcterms:identifier "CAFFEINEHX" ;
    rdf:_1 <https://w3id.org/cdisc/cosmos/dss/SU/CAFFEINEHX/SUTRT> ;
    rdf:_10 <https://w3id.org/cdisc/cosmos/dss/SU/CAFFEINEHX/SUSTDTC> ;
    rdf:_11 <https://w3id.org/cdisc/cosmos/dss/SU/CAFFEINEHX/SUENDTC> ;
    rdf:_12 <https://w3id.org/cdisc/cosmos/dss/SU/CAFFEINEHX/SUSTRF> ;
    rdf:_13 <https://w3id.org/cdisc/cosmos/dss/SU/CAFFEINEHX/SUSTRTPT> ;
    rdf:_14 <https://w3id.org/cdisc/cosmos/dss/SU/CAFFEINEHX/SUSTTPT> ;
    rdf:_15 <https://w3id.org/cdisc/cosmos/dss/SU/CAFFEINEHX/SUENRF> ;
    rdf:_16 <https://w3id.org/cdisc/cosmos/dss/SU/CAFFEINEHX/SUENRTPT> ;
    rdf:_17 <https://w3id.org/cdisc/cosmos/dss/SU/CAFFEINEHX/SUENTPT> ;
    rdf:_2 <https://w3id.org/cdisc/cosmos/dss/SU/CAFFEINEHX/SUCAT> ;
    rdf:_3 <https://w3id.org/cdisc/cosmos/dss/SU/CAFFEINEHX/SUSCAT> ;
    rdf:_4 <https://w3id.org/cdisc/cosmos/dss/SU/CAFFEINEHX/SUPRESP> ;
    rdf:_5 <https://w3id.org/cdisc/cosmos/dss/SU/CAFFEINEHX/SUOCCUR> ;
    rdf:_6 <https://w3id.org/cdisc/cosmos/dss/SU/CAFFEINEHX/SUDOSE> ;
    rdf:_7 <https://w3id.org/cdisc/cosmos/dss/SU/CAFFEINEHX/SUDOSTXT> ;
    rdf:_8 <https://w3id.org/cdisc/cosmos/dss/SU/CAFFEINEHX/SUDOSU> ;
    rdf:_9 <https://w3id.org/cdisc/cosmos/dss/SU/CAFFEINEHX/SUDOSFRQ> ;
    cosmos_sdtm:biomedicalConceptId NCIT:C201990 ;
    cosmos_sdtm:domain "SU" ;
    cosmos_sdtm:packageDate "2025-07-01"^^xsd:date ;
    cosmos_sdtm:packageType <https://www.cdisc.org/cosmos/sdtm_v1.0/PackageTypeEnum#sdtm> ;
    cosmos_sdtm:sdtmigStartVersion "3-2" ;
    cosmos_sdtm:shortName "Caffeine Use History" ;
    cosmos_sdtm:source "SU.SUTRT" ;
    cosmos_sdtm:variables <https://w3id.org/cdisc/cosmos/dss/SU/CAFFEINEHX/SUCAT>,
        <https://w3id.org/cdisc/cosmos/dss/SU/CAFFEINEHX/SUDOSE>,
        <https://w3id.org/cdisc/cosmos/dss/SU/CAFFEINEHX/SUDOSFRQ>,
        <https://w3id.org/cdisc/cosmos/dss/SU/CAFFEINEHX/SUDOSTXT>,
        <https://w3id.org/cdisc/cosmos/dss/SU/CAFFEINEHX/SUDOSU>,
        <https://w3id.org/cdisc/cosmos/dss/SU/CAFFEINEHX/SUENDTC>,
        <https://w3id.org/cdisc/cosmos/dss/SU/CAFFEINEHX/SUENRF>,
        <https://w3id.org/cdisc/cosmos/dss/SU/CAFFEINEHX/SUENRTPT>,
        <https://w3id.org/cdisc/cosmos/dss/SU/CAFFEINEHX/SUENTPT>,
        <https://w3id.org/cdisc/cosmos/dss/SU/CAFFEINEHX/SUOCCUR>,
        <https://w3id.org/cdisc/cosmos/dss/SU/CAFFEINEHX/SUPRESP>,
        <https://w3id.org/cdisc/cosmos/dss/SU/CAFFEINEHX/SUSCAT>,
        <https://w3id.org/cdisc/cosmos/dss/SU/CAFFEINEHX/SUSTDTC>,
        <https://w3id.org/cdisc/cosmos/dss/SU/CAFFEINEHX/SUSTRF>,
        <https://w3id.org/cdisc/cosmos/dss/SU/CAFFEINEHX/SUSTRTPT>,
        <https://w3id.org/cdisc/cosmos/dss/SU/CAFFEINEHX/SUSTTPT>,
        <https://w3id.org/cdisc/cosmos/dss/SU/CAFFEINEHX/SUTRT> .

<https://w3id.org/cdisc/cosmos/dss/SU/CIGARETTEHX> a cosmos_sdtm:SDTMGroup ;
    dcterms:identifier "CIGARETTEHX" ;
    rdf:_1 <https://w3id.org/cdisc/cosmos/dss/SU/CIGARETTEHX/SUTRT> ;
    rdf:_10 <https://w3id.org/cdisc/cosmos/dss/SU/CIGARETTEHX/SUSTDTC> ;
    rdf:_11 <https://w3id.org/cdisc/cosmos/dss/SU/CIGARETTEHX/SUENDTC> ;
    rdf:_12 <https://w3id.org/cdisc/cosmos/dss/SU/CIGARETTEHX/SUDUR> ;
    rdf:_13 <https://w3id.org/cdisc/cosmos/dss/SU/CIGARETTEHX/SUSTRF> ;
    rdf:_14 <https://w3id.org/cdisc/cosmos/dss/SU/CIGARETTEHX/SUSTRTPT> ;
    rdf:_15 <https://w3id.org/cdisc/cosmos/dss/SU/CIGARETTEHX/SUSTTPT> ;
    rdf:_16 <https://w3id.org/cdisc/cosmos/dss/SU/CIGARETTEHX/SUENRF> ;
    rdf:_17 <https://w3id.org/cdisc/cosmos/dss/SU/CIGARETTEHX/SUENRTPT> ;
    rdf:_18 <https://w3id.org/cdisc/cosmos/dss/SU/CIGARETTEHX/SUENTPT> ;
    rdf:_2 <https://w3id.org/cdisc/cosmos/dss/SU/CIGARETTEHX/SUCAT> ;
    rdf:_3 <https://w3id.org/cdisc/cosmos/dss/SU/CIGARETTEHX/SUSCAT> ;
    rdf:_4 <https://w3id.org/cdisc/cosmos/dss/SU/CIGARETTEHX/SUPRESP> ;
    rdf:_5 <https://w3id.org/cdisc/cosmos/dss/SU/CIGARETTEHX/SUOCCUR> ;
    rdf:_6 <https://w3id.org/cdisc/cosmos/dss/SU/CIGARETTEHX/SUDOSE> ;
    rdf:_7 <https://w3id.org/cdisc/cosmos/dss/SU/CIGARETTEHX/SUDOSTXT> ;
    rdf:_8 <https://w3id.org/cdisc/cosmos/dss/SU/CIGARETTEHX/SUDOSU> ;
    rdf:_9 <https://w3id.org/cdisc/cosmos/dss/SU/CIGARETTEHX/SUDOSFRQ> ;
    cosmos_sdtm:biomedicalConceptId NCIT:C181760 ;
    cosmos_sdtm:domain "SU" ;
    cosmos_sdtm:packageDate "2025-07-01"^^xsd:date ;
    cosmos_sdtm:packageType <https://www.cdisc.org/cosmos/sdtm_v1.0/PackageTypeEnum#sdtm> ;
    cosmos_sdtm:sdtmigStartVersion "3-2" ;
    cosmos_sdtm:shortName "Cigarette History" ;
    cosmos_sdtm:source "SU.SUTRT" ;
    cosmos_sdtm:variables <https://w3id.org/cdisc/cosmos/dss/SU/CIGARETTEHX/SUCAT>,
        <https://w3id.org/cdisc/cosmos/dss/SU/CIGARETTEHX/SUDOSE>,
        <https://w3id.org/cdisc/cosmos/dss/SU/CIGARETTEHX/SUDOSFRQ>,
        <https://w3id.org/cdisc/cosmos/dss/SU/CIGARETTEHX/SUDOSTXT>,
        <https://w3id.org/cdisc/cosmos/dss/SU/CIGARETTEHX/SUDOSU>,
        <https://w3id.org/cdisc/cosmos/dss/SU/CIGARETTEHX/SUDUR>,
        <https://w3id.org/cdisc/cosmos/dss/SU/CIGARETTEHX/SUENDTC>,
        <https://w3id.org/cdisc/cosmos/dss/SU/CIGARETTEHX/SUENRF>,
        <https://w3id.org/cdisc/cosmos/dss/SU/CIGARETTEHX/SUENRTPT>,
        <https://w3id.org/cdisc/cosmos/dss/SU/CIGARETTEHX/SUENTPT>,
        <https://w3id.org/cdisc/cosmos/dss/SU/CIGARETTEHX/SUOCCUR>,
        <https://w3id.org/cdisc/cosmos/dss/SU/CIGARETTEHX/SUPRESP>,
        <https://w3id.org/cdisc/cosmos/dss/SU/CIGARETTEHX/SUSCAT>,
        <https://w3id.org/cdisc/cosmos/dss/SU/CIGARETTEHX/SUSTDTC>,
        <https://w3id.org/cdisc/cosmos/dss/SU/CIGARETTEHX/SUSTRF>,
        <https://w3id.org/cdisc/cosmos/dss/SU/CIGARETTEHX/SUSTRTPT>,
        <https://w3id.org/cdisc/cosmos/dss/SU/CIGARETTEHX/SUSTTPT>,
        <https://w3id.org/cdisc/cosmos/dss/SU/CIGARETTEHX/SUTRT> .

<https://w3id.org/cdisc/cosmos/dss/SU/CIGARHX> a cosmos_sdtm:SDTMGroup ;
    dcterms:identifier "CIGARHX" ;
    rdf:_1 <https://w3id.org/cdisc/cosmos/dss/SU/CIGARHX/SUTRT> ;
    rdf:_10 <https://w3id.org/cdisc/cosmos/dss/SU/CIGARHX/SUSTDTC> ;
    rdf:_11 <https://w3id.org/cdisc/cosmos/dss/SU/CIGARHX/SUENDTC> ;
    rdf:_12 <https://w3id.org/cdisc/cosmos/dss/SU/CIGARHX/SUDUR> ;
    rdf:_13 <https://w3id.org/cdisc/cosmos/dss/SU/CIGARHX/SUSTRF> ;
    rdf:_14 <https://w3id.org/cdisc/cosmos/dss/SU/CIGARHX/SUSTRTPT> ;
    rdf:_15 <https://w3id.org/cdisc/cosmos/dss/SU/CIGARHX/SUSTTPT> ;
    rdf:_16 <https://w3id.org/cdisc/cosmos/dss/SU/CIGARHX/SUENRF> ;
    rdf:_17 <https://w3id.org/cdisc/cosmos/dss/SU/CIGARHX/SUENRTPT> ;
    rdf:_18 <https://w3id.org/cdisc/cosmos/dss/SU/CIGARHX/SUENTPT> ;
    rdf:_2 <https://w3id.org/cdisc/cosmos/dss/SU/CIGARHX/SUCAT> ;
    rdf:_3 <https://w3id.org/cdisc/cosmos/dss/SU/CIGARHX/SUSCAT> ;
    rdf:_4 <https://w3id.org/cdisc/cosmos/dss/SU/CIGARHX/SUPRESP> ;
    rdf:_5 <https://w3id.org/cdisc/cosmos/dss/SU/CIGARHX/SUOCCUR> ;
    rdf:_6 <https://w3id.org/cdisc/cosmos/dss/SU/CIGARHX/SUDOSE> ;
    rdf:_7 <https://w3id.org/cdisc/cosmos/dss/SU/CIGARHX/SUDOSTXT> ;
    rdf:_8 <https://w3id.org/cdisc/cosmos/dss/SU/CIGARHX/SUDOSU> ;
    rdf:_9 <https://w3id.org/cdisc/cosmos/dss/SU/CIGARHX/SUDOSFRQ> ;
    cosmos_sdtm:biomedicalConceptId NCIT:C181760 ;
    cosmos_sdtm:domain "SU" ;
    cosmos_sdtm:packageDate "2025-07-01"^^xsd:date ;
    cosmos_sdtm:packageType <https://www.cdisc.org/cosmos/sdtm_v1.0/PackageTypeEnum#sdtm> ;
    cosmos_sdtm:sdtmigStartVersion "3-2" ;
    cosmos_sdtm:shortName "Cigar History" ;
    cosmos_sdtm:source "SU.SUTRT" ;
    cosmos_sdtm:variables <https://w3id.org/cdisc/cosmos/dss/SU/CIGARHX/SUCAT>,
        <https://w3id.org/cdisc/cosmos/dss/SU/CIGARHX/SUDOSE>,
        <https://w3id.org/cdisc/cosmos/dss/SU/CIGARHX/SUDOSFRQ>,
        <https://w3id.org/cdisc/cosmos/dss/SU/CIGARHX/SUDOSTXT>,
        <https://w3id.org/cdisc/cosmos/dss/SU/CIGARHX/SUDOSU>,
        <https://w3id.org/cdisc/cosmos/dss/SU/CIGARHX/SUDUR>,
        <https://w3id.org/cdisc/cosmos/dss/SU/CIGARHX/SUENDTC>,
        <https://w3id.org/cdisc/cosmos/dss/SU/CIGARHX/SUENRF>,
        <https://w3id.org/cdisc/cosmos/dss/SU/CIGARHX/SUENRTPT>,
        <https://w3id.org/cdisc/cosmos/dss/SU/CIGARHX/SUENTPT>,
        <https://w3id.org/cdisc/cosmos/dss/SU/CIGARHX/SUOCCUR>,
        <https://w3id.org/cdisc/cosmos/dss/SU/CIGARHX/SUPRESP>,
        <https://w3id.org/cdisc/cosmos/dss/SU/CIGARHX/SUSCAT>,
        <https://w3id.org/cdisc/cosmos/dss/SU/CIGARHX/SUSTDTC>,
        <https://w3id.org/cdisc/cosmos/dss/SU/CIGARHX/SUSTRF>,
        <https://w3id.org/cdisc/cosmos/dss/SU/CIGARHX/SUSTRTPT>,
        <https://w3id.org/cdisc/cosmos/dss/SU/CIGARHX/SUSTTPT>,
        <https://w3id.org/cdisc/cosmos/dss/SU/CIGARHX/SUTRT> .

<https://w3id.org/cdisc/cosmos/dss/SU/COFFEEHX> a cosmos_sdtm:SDTMGroup ;
    dcterms:identifier "COFFEEHX" ;
    rdf:_1 <https://w3id.org/cdisc/cosmos/dss/SU/COFFEEHX/SUTRT> ;
    rdf:_10 <https://w3id.org/cdisc/cosmos/dss/SU/COFFEEHX/SUSTDTC> ;
    rdf:_11 <https://w3id.org/cdisc/cosmos/dss/SU/COFFEEHX/SUENDTC> ;
    rdf:_12 <https://w3id.org/cdisc/cosmos/dss/SU/COFFEEHX/SUSTRF> ;
    rdf:_13 <https://w3id.org/cdisc/cosmos/dss/SU/COFFEEHX/SUSTRTPT> ;
    rdf:_14 <https://w3id.org/cdisc/cosmos/dss/SU/COFFEEHX/SUSTTPT> ;
    rdf:_15 <https://w3id.org/cdisc/cosmos/dss/SU/COFFEEHX/SUENRF> ;
    rdf:_16 <https://w3id.org/cdisc/cosmos/dss/SU/COFFEEHX/SUENRTPT> ;
    rdf:_17 <https://w3id.org/cdisc/cosmos/dss/SU/COFFEEHX/SUENTPT> ;
    rdf:_2 <https://w3id.org/cdisc/cosmos/dss/SU/COFFEEHX/SUCAT> ;
    rdf:_3 <https://w3id.org/cdisc/cosmos/dss/SU/COFFEEHX/SUSCAT> ;
    rdf:_4 <https://w3id.org/cdisc/cosmos/dss/SU/COFFEEHX/SUPRESP> ;
    rdf:_5 <https://w3id.org/cdisc/cosmos/dss/SU/COFFEEHX/SUOCCUR> ;
    rdf:_6 <https://w3id.org/cdisc/cosmos/dss/SU/COFFEEHX/SUDOSE> ;
    rdf:_7 <https://w3id.org/cdisc/cosmos/dss/SU/COFFEEHX/SUDOSTXT> ;
    rdf:_8 <https://w3id.org/cdisc/cosmos/dss/SU/COFFEEHX/SUDOSU> ;
    rdf:_9 <https://w3id.org/cdisc/cosmos/dss/SU/COFFEEHX/SUDOSFRQ> ;
    cosmos_sdtm:biomedicalConceptId NCIT:C201990 ;
    cosmos_sdtm:domain "SU" ;
    cosmos_sdtm:packageDate "2025-07-01"^^xsd:date ;
    cosmos_sdtm:packageType <https://www.cdisc.org/cosmos/sdtm_v1.0/PackageTypeEnum#sdtm> ;
    cosmos_sdtm:sdtmigStartVersion "3-2" ;
    cosmos_sdtm:shortName "Coffee Use History" ;
    cosmos_sdtm:source "SU.SUTRT" ;
    cosmos_sdtm:variables <https://w3id.org/cdisc/cosmos/dss/SU/COFFEEHX/SUCAT>,
        <https://w3id.org/cdisc/cosmos/dss/SU/COFFEEHX/SUDOSE>,
        <https://w3id.org/cdisc/cosmos/dss/SU/COFFEEHX/SUDOSFRQ>,
        <https://w3id.org/cdisc/cosmos/dss/SU/COFFEEHX/SUDOSTXT>,
        <https://w3id.org/cdisc/cosmos/dss/SU/COFFEEHX/SUDOSU>,
        <https://w3id.org/cdisc/cosmos/dss/SU/COFFEEHX/SUENDTC>,
        <https://w3id.org/cdisc/cosmos/dss/SU/COFFEEHX/SUENRF>,
        <https://w3id.org/cdisc/cosmos/dss/SU/COFFEEHX/SUENRTPT>,
        <https://w3id.org/cdisc/cosmos/dss/SU/COFFEEHX/SUENTPT>,
        <https://w3id.org/cdisc/cosmos/dss/SU/COFFEEHX/SUOCCUR>,
        <https://w3id.org/cdisc/cosmos/dss/SU/COFFEEHX/SUPRESP>,
        <https://w3id.org/cdisc/cosmos/dss/SU/COFFEEHX/SUSCAT>,
        <https://w3id.org/cdisc/cosmos/dss/SU/COFFEEHX/SUSTDTC>,
        <https://w3id.org/cdisc/cosmos/dss/SU/COFFEEHX/SUSTRF>,
        <https://w3id.org/cdisc/cosmos/dss/SU/COFFEEHX/SUSTRTPT>,
        <https://w3id.org/cdisc/cosmos/dss/SU/COFFEEHX/SUSTTPT>,
        <https://w3id.org/cdisc/cosmos/dss/SU/COFFEEHX/SUTRT> .

<https://w3id.org/cdisc/cosmos/dss/SU/COLAHX> a cosmos_sdtm:SDTMGroup ;
    dcterms:identifier "COLAHX" ;
    rdf:_1 <https://w3id.org/cdisc/cosmos/dss/SU/COLAHX/SUTRT> ;
    rdf:_10 <https://w3id.org/cdisc/cosmos/dss/SU/COLAHX/SUSTDTC> ;
    rdf:_11 <https://w3id.org/cdisc/cosmos/dss/SU/COLAHX/SUENDTC> ;
    rdf:_12 <https://w3id.org/cdisc/cosmos/dss/SU/COLAHX/SUSTRF> ;
    rdf:_13 <https://w3id.org/cdisc/cosmos/dss/SU/COLAHX/SUSTRTPT> ;
    rdf:_14 <https://w3id.org/cdisc/cosmos/dss/SU/COLAHX/SUSTTPT> ;
    rdf:_15 <https://w3id.org/cdisc/cosmos/dss/SU/COLAHX/SUENRF> ;
    rdf:_16 <https://w3id.org/cdisc/cosmos/dss/SU/COLAHX/SUENRTPT> ;
    rdf:_17 <https://w3id.org/cdisc/cosmos/dss/SU/COLAHX/SUENTPT> ;
    rdf:_2 <https://w3id.org/cdisc/cosmos/dss/SU/COLAHX/SUCAT> ;
    rdf:_3 <https://w3id.org/cdisc/cosmos/dss/SU/COLAHX/SUSCAT> ;
    rdf:_4 <https://w3id.org/cdisc/cosmos/dss/SU/COLAHX/SUPRESP> ;
    rdf:_5 <https://w3id.org/cdisc/cosmos/dss/SU/COLAHX/SUOCCUR> ;
    rdf:_6 <https://w3id.org/cdisc/cosmos/dss/SU/COLAHX/SUDOSE> ;
    rdf:_7 <https://w3id.org/cdisc/cosmos/dss/SU/COLAHX/SUDOSTXT> ;
    rdf:_8 <https://w3id.org/cdisc/cosmos/dss/SU/COLAHX/SUDOSU> ;
    rdf:_9 <https://w3id.org/cdisc/cosmos/dss/SU/COLAHX/SUDOSFRQ> ;
    cosmos_sdtm:biomedicalConceptId NCIT:C201990 ;
    cosmos_sdtm:domain "SU" ;
    cosmos_sdtm:packageDate "2025-07-01"^^xsd:date ;
    cosmos_sdtm:packageType <https://www.cdisc.org/cosmos/sdtm_v1.0/PackageTypeEnum#sdtm> ;
    cosmos_sdtm:sdtmigStartVersion "3-2" ;
    cosmos_sdtm:shortName "Cola Use History" ;
    cosmos_sdtm:source "SU.SUTRT" ;
    cosmos_sdtm:variables <https://w3id.org/cdisc/cosmos/dss/SU/COLAHX/SUCAT>,
        <https://w3id.org/cdisc/cosmos/dss/SU/COLAHX/SUDOSE>,
        <https://w3id.org/cdisc/cosmos/dss/SU/COLAHX/SUDOSFRQ>,
        <https://w3id.org/cdisc/cosmos/dss/SU/COLAHX/SUDOSTXT>,
        <https://w3id.org/cdisc/cosmos/dss/SU/COLAHX/SUDOSU>,
        <https://w3id.org/cdisc/cosmos/dss/SU/COLAHX/SUENDTC>,
        <https://w3id.org/cdisc/cosmos/dss/SU/COLAHX/SUENRF>,
        <https://w3id.org/cdisc/cosmos/dss/SU/COLAHX/SUENRTPT>,
        <https://w3id.org/cdisc/cosmos/dss/SU/COLAHX/SUENTPT>,
        <https://w3id.org/cdisc/cosmos/dss/SU/COLAHX/SUOCCUR>,
        <https://w3id.org/cdisc/cosmos/dss/SU/COLAHX/SUPRESP>,
        <https://w3id.org/cdisc/cosmos/dss/SU/COLAHX/SUSCAT>,
        <https://w3id.org/cdisc/cosmos/dss/SU/COLAHX/SUSTDTC>,
        <https://w3id.org/cdisc/cosmos/dss/SU/COLAHX/SUSTRF>,
        <https://w3id.org/cdisc/cosmos/dss/SU/COLAHX/SUSTRTPT>,
        <https://w3id.org/cdisc/cosmos/dss/SU/COLAHX/SUSTTPT>,
        <https://w3id.org/cdisc/cosmos/dss/SU/COLAHX/SUTRT> .

<https://w3id.org/cdisc/cosmos/dss/SU/DISTILLEDSPIRITSHX> a cosmos_sdtm:SDTMGroup ;
    dcterms:identifier "DISTILLEDSPIRITSHX" ;
    rdf:_1 <https://w3id.org/cdisc/cosmos/dss/SU/DISTILLEDSPIRITSHX/SUTRT> ;
    rdf:_10 <https://w3id.org/cdisc/cosmos/dss/SU/DISTILLEDSPIRITSHX/SUSTDTC> ;
    rdf:_11 <https://w3id.org/cdisc/cosmos/dss/SU/DISTILLEDSPIRITSHX/SUENDTC> ;
    rdf:_12 <https://w3id.org/cdisc/cosmos/dss/SU/DISTILLEDSPIRITSHX/SUSTRF> ;
    rdf:_13 <https://w3id.org/cdisc/cosmos/dss/SU/DISTILLEDSPIRITSHX/SUSTRTPT> ;
    rdf:_14 <https://w3id.org/cdisc/cosmos/dss/SU/DISTILLEDSPIRITSHX/SUSTTPT> ;
    rdf:_15 <https://w3id.org/cdisc/cosmos/dss/SU/DISTILLEDSPIRITSHX/SUENRF> ;
    rdf:_16 <https://w3id.org/cdisc/cosmos/dss/SU/DISTILLEDSPIRITSHX/SUENRTPT> ;
    rdf:_17 <https://w3id.org/cdisc/cosmos/dss/SU/DISTILLEDSPIRITSHX/SUENTPT> ;
    rdf:_2 <https://w3id.org/cdisc/cosmos/dss/SU/DISTILLEDSPIRITSHX/SUCAT> ;
    rdf:_3 <https://w3id.org/cdisc/cosmos/dss/SU/DISTILLEDSPIRITSHX/SUSCAT> ;
    rdf:_4 <https://w3id.org/cdisc/cosmos/dss/SU/DISTILLEDSPIRITSHX/SUPRESP> ;
    rdf:_5 <https://w3id.org/cdisc/cosmos/dss/SU/DISTILLEDSPIRITSHX/SUOCCUR> ;
    rdf:_6 <https://w3id.org/cdisc/cosmos/dss/SU/DISTILLEDSPIRITSHX/SUDOSE> ;
    rdf:_7 <https://w3id.org/cdisc/cosmos/dss/SU/DISTILLEDSPIRITSHX/SUDOSTXT> ;
    rdf:_8 <https://w3id.org/cdisc/cosmos/dss/SU/DISTILLEDSPIRITSHX/SUDOSU> ;
    rdf:_9 <https://w3id.org/cdisc/cosmos/dss/SU/DISTILLEDSPIRITSHX/SUDOSFRQ> ;
    cosmos_sdtm:biomedicalConceptId NCIT:C81229 ;
    cosmos_sdtm:domain "SU" ;
    cosmos_sdtm:packageDate "2025-07-01"^^xsd:date ;
    cosmos_sdtm:packageType <https://www.cdisc.org/cosmos/sdtm_v1.0/PackageTypeEnum#sdtm> ;
    cosmos_sdtm:sdtmigStartVersion "3-2" ;
    cosmos_sdtm:shortName "Distilled Spirits Use History" ;
    cosmos_sdtm:source "SU.SUTRT" ;
    cosmos_sdtm:variables <https://w3id.org/cdisc/cosmos/dss/SU/DISTILLEDSPIRITSHX/SUCAT>,
        <https://w3id.org/cdisc/cosmos/dss/SU/DISTILLEDSPIRITSHX/SUDOSE>,
        <https://w3id.org/cdisc/cosmos/dss/SU/DISTILLEDSPIRITSHX/SUDOSFRQ>,
        <https://w3id.org/cdisc/cosmos/dss/SU/DISTILLEDSPIRITSHX/SUDOSTXT>,
        <https://w3id.org/cdisc/cosmos/dss/SU/DISTILLEDSPIRITSHX/SUDOSU>,
        <https://w3id.org/cdisc/cosmos/dss/SU/DISTILLEDSPIRITSHX/SUENDTC>,
        <https://w3id.org/cdisc/cosmos/dss/SU/DISTILLEDSPIRITSHX/SUENRF>,
        <https://w3id.org/cdisc/cosmos/dss/SU/DISTILLEDSPIRITSHX/SUENRTPT>,
        <https://w3id.org/cdisc/cosmos/dss/SU/DISTILLEDSPIRITSHX/SUENTPT>,
        <https://w3id.org/cdisc/cosmos/dss/SU/DISTILLEDSPIRITSHX/SUOCCUR>,
        <https://w3id.org/cdisc/cosmos/dss/SU/DISTILLEDSPIRITSHX/SUPRESP>,
        <https://w3id.org/cdisc/cosmos/dss/SU/DISTILLEDSPIRITSHX/SUSCAT>,
        <https://w3id.org/cdisc/cosmos/dss/SU/DISTILLEDSPIRITSHX/SUSTDTC>,
        <https://w3id.org/cdisc/cosmos/dss/SU/DISTILLEDSPIRITSHX/SUSTRF>,
        <https://w3id.org/cdisc/cosmos/dss/SU/DISTILLEDSPIRITSHX/SUSTRTPT>,
        <https://w3id.org/cdisc/cosmos/dss/SU/DISTILLEDSPIRITSHX/SUSTTPT>,
        <https://w3id.org/cdisc/cosmos/dss/SU/DISTILLEDSPIRITSHX/SUTRT> .

<https://w3id.org/cdisc/cosmos/dss/SU/PIPEHX> a cosmos_sdtm:SDTMGroup ;
    dcterms:identifier "PIPEHX" ;
    rdf:_1 <https://w3id.org/cdisc/cosmos/dss/SU/PIPEHX/SUTRT> ;
    rdf:_10 <https://w3id.org/cdisc/cosmos/dss/SU/PIPEHX/SUSTDTC> ;
    rdf:_11 <https://w3id.org/cdisc/cosmos/dss/SU/PIPEHX/SUENDTC> ;
    rdf:_12 <https://w3id.org/cdisc/cosmos/dss/SU/PIPEHX/SUDUR> ;
    rdf:_13 <https://w3id.org/cdisc/cosmos/dss/SU/PIPEHX/SUSTRF> ;
    rdf:_14 <https://w3id.org/cdisc/cosmos/dss/SU/PIPEHX/SUSTRTPT> ;
    rdf:_15 <https://w3id.org/cdisc/cosmos/dss/SU/PIPEHX/SUSTTPT> ;
    rdf:_16 <https://w3id.org/cdisc/cosmos/dss/SU/PIPEHX/SUENRF> ;
    rdf:_17 <https://w3id.org/cdisc/cosmos/dss/SU/PIPEHX/SUENRTPT> ;
    rdf:_18 <https://w3id.org/cdisc/cosmos/dss/SU/PIPEHX/SUENTPT> ;
    rdf:_2 <https://w3id.org/cdisc/cosmos/dss/SU/PIPEHX/SUCAT> ;
    rdf:_3 <https://w3id.org/cdisc/cosmos/dss/SU/PIPEHX/SUSCAT> ;
    rdf:_4 <https://w3id.org/cdisc/cosmos/dss/SU/PIPEHX/SUPRESP> ;
    rdf:_5 <https://w3id.org/cdisc/cosmos/dss/SU/PIPEHX/SUOCCUR> ;
    rdf:_6 <https://w3id.org/cdisc/cosmos/dss/SU/PIPEHX/SUDOSE> ;
    rdf:_7 <https://w3id.org/cdisc/cosmos/dss/SU/PIPEHX/SUDOSTXT> ;
    rdf:_8 <https://w3id.org/cdisc/cosmos/dss/SU/PIPEHX/SUDOSU> ;
    rdf:_9 <https://w3id.org/cdisc/cosmos/dss/SU/PIPEHX/SUDOSFRQ> ;
    cosmos_sdtm:biomedicalConceptId NCIT:C181760 ;
    cosmos_sdtm:domain "SU" ;
    cosmos_sdtm:packageDate "2025-07-01"^^xsd:date ;
    cosmos_sdtm:packageType <https://www.cdisc.org/cosmos/sdtm_v1.0/PackageTypeEnum#sdtm> ;
    cosmos_sdtm:sdtmigStartVersion "3-2" ;
    cosmos_sdtm:shortName "Pipe History" ;
    cosmos_sdtm:source "SU.SUTRT" ;
    cosmos_sdtm:variables <https://w3id.org/cdisc/cosmos/dss/SU/PIPEHX/SUCAT>,
        <https://w3id.org/cdisc/cosmos/dss/SU/PIPEHX/SUDOSE>,
        <https://w3id.org/cdisc/cosmos/dss/SU/PIPEHX/SUDOSFRQ>,
        <https://w3id.org/cdisc/cosmos/dss/SU/PIPEHX/SUDOSTXT>,
        <https://w3id.org/cdisc/cosmos/dss/SU/PIPEHX/SUDOSU>,
        <https://w3id.org/cdisc/cosmos/dss/SU/PIPEHX/SUDUR>,
        <https://w3id.org/cdisc/cosmos/dss/SU/PIPEHX/SUENDTC>,
        <https://w3id.org/cdisc/cosmos/dss/SU/PIPEHX/SUENRF>,
        <https://w3id.org/cdisc/cosmos/dss/SU/PIPEHX/SUENRTPT>,
        <https://w3id.org/cdisc/cosmos/dss/SU/PIPEHX/SUENTPT>,
        <https://w3id.org/cdisc/cosmos/dss/SU/PIPEHX/SUOCCUR>,
        <https://w3id.org/cdisc/cosmos/dss/SU/PIPEHX/SUPRESP>,
        <https://w3id.org/cdisc/cosmos/dss/SU/PIPEHX/SUSCAT>,
        <https://w3id.org/cdisc/cosmos/dss/SU/PIPEHX/SUSTDTC>,
        <https://w3id.org/cdisc/cosmos/dss/SU/PIPEHX/SUSTRF>,
        <https://w3id.org/cdisc/cosmos/dss/SU/PIPEHX/SUSTRTPT>,
        <https://w3id.org/cdisc/cosmos/dss/SU/PIPEHX/SUSTTPT>,
        <https://w3id.org/cdisc/cosmos/dss/SU/PIPEHX/SUTRT> .

<https://w3id.org/cdisc/cosmos/dss/SU/TEAHIX> a cosmos_sdtm:SDTMGroup ;
    dcterms:identifier "TEAHIX" ;
    rdf:_1 <https://w3id.org/cdisc/cosmos/dss/SU/TEAHIX/SUTRT> ;
    rdf:_10 <https://w3id.org/cdisc/cosmos/dss/SU/TEAHIX/SUSTDTC> ;
    rdf:_11 <https://w3id.org/cdisc/cosmos/dss/SU/TEAHIX/SUENDTC> ;
    rdf:_12 <https://w3id.org/cdisc/cosmos/dss/SU/TEAHIX/SUSTRF> ;
    rdf:_13 <https://w3id.org/cdisc/cosmos/dss/SU/TEAHIX/SUSTRTPT> ;
    rdf:_14 <https://w3id.org/cdisc/cosmos/dss/SU/TEAHIX/SUSTTPT> ;
    rdf:_15 <https://w3id.org/cdisc/cosmos/dss/SU/TEAHIX/SUENRF> ;
    rdf:_16 <https://w3id.org/cdisc/cosmos/dss/SU/TEAHIX/SUENRTPT> ;
    rdf:_17 <https://w3id.org/cdisc/cosmos/dss/SU/TEAHIX/SUENTPT> ;
    rdf:_2 <https://w3id.org/cdisc/cosmos/dss/SU/TEAHIX/SUCAT> ;
    rdf:_3 <https://w3id.org/cdisc/cosmos/dss/SU/TEAHIX/SUSCAT> ;
    rdf:_4 <https://w3id.org/cdisc/cosmos/dss/SU/TEAHIX/SUPRESP> ;
    rdf:_5 <https://w3id.org/cdisc/cosmos/dss/SU/TEAHIX/SUOCCUR> ;
    rdf:_6 <https://w3id.org/cdisc/cosmos/dss/SU/TEAHIX/SUDOSE> ;
    rdf:_7 <https://w3id.org/cdisc/cosmos/dss/SU/TEAHIX/SUDOSTXT> ;
    rdf:_8 <https://w3id.org/cdisc/cosmos/dss/SU/TEAHIX/SUDOSU> ;
    rdf:_9 <https://w3id.org/cdisc/cosmos/dss/SU/TEAHIX/SUDOSFRQ> ;
    cosmos_sdtm:biomedicalConceptId NCIT:C201990 ;
    cosmos_sdtm:domain "SU" ;
    cosmos_sdtm:packageDate "2025-07-01"^^xsd:date ;
    cosmos_sdtm:packageType <https://www.cdisc.org/cosmos/sdtm_v1.0/PackageTypeEnum#sdtm> ;
    cosmos_sdtm:sdtmigStartVersion "3-2" ;
    cosmos_sdtm:shortName "Tea Use History" ;
    cosmos_sdtm:source "SU.SUTRT" ;
    cosmos_sdtm:variables <https://w3id.org/cdisc/cosmos/dss/SU/TEAHIX/SUCAT>,
        <https://w3id.org/cdisc/cosmos/dss/SU/TEAHIX/SUDOSE>,
        <https://w3id.org/cdisc/cosmos/dss/SU/TEAHIX/SUDOSFRQ>,
        <https://w3id.org/cdisc/cosmos/dss/SU/TEAHIX/SUDOSTXT>,
        <https://w3id.org/cdisc/cosmos/dss/SU/TEAHIX/SUDOSU>,
        <https://w3id.org/cdisc/cosmos/dss/SU/TEAHIX/SUENDTC>,
        <https://w3id.org/cdisc/cosmos/dss/SU/TEAHIX/SUENRF>,
        <https://w3id.org/cdisc/cosmos/dss/SU/TEAHIX/SUENRTPT>,
        <https://w3id.org/cdisc/cosmos/dss/SU/TEAHIX/SUENTPT>,
        <https://w3id.org/cdisc/cosmos/dss/SU/TEAHIX/SUOCCUR>,
        <https://w3id.org/cdisc/cosmos/dss/SU/TEAHIX/SUPRESP>,
        <https://w3id.org/cdisc/cosmos/dss/SU/TEAHIX/SUSCAT>,
        <https://w3id.org/cdisc/cosmos/dss/SU/TEAHIX/SUSTDTC>,
        <https://w3id.org/cdisc/cosmos/dss/SU/TEAHIX/SUSTRF>,
        <https://w3id.org/cdisc/cosmos/dss/SU/TEAHIX/SUSTRTPT>,
        <https://w3id.org/cdisc/cosmos/dss/SU/TEAHIX/SUSTTPT>,
        <https://w3id.org/cdisc/cosmos/dss/SU/TEAHIX/SUTRT> .

<https://w3id.org/cdisc/cosmos/dss/SU/TOBACCOHX> a cosmos_sdtm:SDTMGroup ;
    dcterms:identifier "TOBACCOHX" ;
    rdf:_1 <https://w3id.org/cdisc/cosmos/dss/SU/TOBACCOHX/SUTRT> ;
    rdf:_10 <https://w3id.org/cdisc/cosmos/dss/SU/TOBACCOHX/SUSTDTC> ;
    rdf:_11 <https://w3id.org/cdisc/cosmos/dss/SU/TOBACCOHX/SUENDTC> ;
    rdf:_12 <https://w3id.org/cdisc/cosmos/dss/SU/TOBACCOHX/SUDUR> ;
    rdf:_13 <https://w3id.org/cdisc/cosmos/dss/SU/TOBACCOHX/SUSTRF> ;
    rdf:_14 <https://w3id.org/cdisc/cosmos/dss/SU/TOBACCOHX/SUSTRTPT> ;
    rdf:_15 <https://w3id.org/cdisc/cosmos/dss/SU/TOBACCOHX/SUSTTPT> ;
    rdf:_16 <https://w3id.org/cdisc/cosmos/dss/SU/TOBACCOHX/SUENRF> ;
    rdf:_17 <https://w3id.org/cdisc/cosmos/dss/SU/TOBACCOHX/SUENRTPT> ;
    rdf:_18 <https://w3id.org/cdisc/cosmos/dss/SU/TOBACCOHX/SUENTPT> ;
    rdf:_2 <https://w3id.org/cdisc/cosmos/dss/SU/TOBACCOHX/SUCAT> ;
    rdf:_3 <https://w3id.org/cdisc/cosmos/dss/SU/TOBACCOHX/SUSCAT> ;
    rdf:_4 <https://w3id.org/cdisc/cosmos/dss/SU/TOBACCOHX/SUPRESP> ;
    rdf:_5 <https://w3id.org/cdisc/cosmos/dss/SU/TOBACCOHX/SUOCCUR> ;
    rdf:_6 <https://w3id.org/cdisc/cosmos/dss/SU/TOBACCOHX/SUDOSE> ;
    rdf:_7 <https://w3id.org/cdisc/cosmos/dss/SU/TOBACCOHX/SUDOSTXT> ;
    rdf:_8 <https://w3id.org/cdisc/cosmos/dss/SU/TOBACCOHX/SUDOSU> ;
    rdf:_9 <https://w3id.org/cdisc/cosmos/dss/SU/TOBACCOHX/SUDOSFRQ> ;
    cosmos_sdtm:biomedicalConceptId NCIT:C181760 ;
    cosmos_sdtm:domain "SU" ;
    cosmos_sdtm:packageDate "2025-07-01"^^xsd:date ;
    cosmos_sdtm:packageType <https://www.cdisc.org/cosmos/sdtm_v1.0/PackageTypeEnum#sdtm> ;
    cosmos_sdtm:sdtmigStartVersion "3-2" ;
    cosmos_sdtm:shortName "Tobacco History" ;
    cosmos_sdtm:source "SU.SUTRT" ;
    cosmos_sdtm:variables <https://w3id.org/cdisc/cosmos/dss/SU/TOBACCOHX/SUCAT>,
        <https://w3id.org/cdisc/cosmos/dss/SU/TOBACCOHX/SUDOSE>,
        <https://w3id.org/cdisc/cosmos/dss/SU/TOBACCOHX/SUDOSFRQ>,
        <https://w3id.org/cdisc/cosmos/dss/SU/TOBACCOHX/SUDOSTXT>,
        <https://w3id.org/cdisc/cosmos/dss/SU/TOBACCOHX/SUDOSU>,
        <https://w3id.org/cdisc/cosmos/dss/SU/TOBACCOHX/SUDUR>,
        <https://w3id.org/cdisc/cosmos/dss/SU/TOBACCOHX/SUENDTC>,
        <https://w3id.org/cdisc/cosmos/dss/SU/TOBACCOHX/SUENRF>,
        <https://w3id.org/cdisc/cosmos/dss/SU/TOBACCOHX/SUENRTPT>,
        <https://w3id.org/cdisc/cosmos/dss/SU/TOBACCOHX/SUENTPT>,
        <https://w3id.org/cdisc/cosmos/dss/SU/TOBACCOHX/SUOCCUR>,
        <https://w3id.org/cdisc/cosmos/dss/SU/TOBACCOHX/SUPRESP>,
        <https://w3id.org/cdisc/cosmos/dss/SU/TOBACCOHX/SUSCAT>,
        <https://w3id.org/cdisc/cosmos/dss/SU/TOBACCOHX/SUSTDTC>,
        <https://w3id.org/cdisc/cosmos/dss/SU/TOBACCOHX/SUSTRF>,
        <https://w3id.org/cdisc/cosmos/dss/SU/TOBACCOHX/SUSTRTPT>,
        <https://w3id.org/cdisc/cosmos/dss/SU/TOBACCOHX/SUSTTPT>,
        <https://w3id.org/cdisc/cosmos/dss/SU/TOBACCOHX/SUTRT> .

<https://w3id.org/cdisc/cosmos/dss/SU/WINEHX> a cosmos_sdtm:SDTMGroup ;
    dcterms:identifier "WINEHX" ;
    rdf:_1 <https://w3id.org/cdisc/cosmos/dss/SU/WINEHX/SUTRT> ;
    rdf:_10 <https://w3id.org/cdisc/cosmos/dss/SU/WINEHX/SUSTDTC> ;
    rdf:_11 <https://w3id.org/cdisc/cosmos/dss/SU/WINEHX/SUENDTC> ;
    rdf:_12 <https://w3id.org/cdisc/cosmos/dss/SU/WINEHX/SUSTRF> ;
    rdf:_13 <https://w3id.org/cdisc/cosmos/dss/SU/WINEHX/SUSTRTPT> ;
    rdf:_14 <https://w3id.org/cdisc/cosmos/dss/SU/WINEHX/SUSTTPT> ;
    rdf:_15 <https://w3id.org/cdisc/cosmos/dss/SU/WINEHX/SUENRF> ;
    rdf:_16 <https://w3id.org/cdisc/cosmos/dss/SU/WINEHX/SUENRTPT> ;
    rdf:_17 <https://w3id.org/cdisc/cosmos/dss/SU/WINEHX/SUENTPT> ;
    rdf:_2 <https://w3id.org/cdisc/cosmos/dss/SU/WINEHX/SUCAT> ;
    rdf:_3 <https://w3id.org/cdisc/cosmos/dss/SU/WINEHX/SUSCAT> ;
    rdf:_4 <https://w3id.org/cdisc/cosmos/dss/SU/WINEHX/SUPRESP> ;
    rdf:_5 <https://w3id.org/cdisc/cosmos/dss/SU/WINEHX/SUOCCUR> ;
    rdf:_6 <https://w3id.org/cdisc/cosmos/dss/SU/WINEHX/SUDOSE> ;
    rdf:_7 <https://w3id.org/cdisc/cosmos/dss/SU/WINEHX/SUDOSTXT> ;
    rdf:_8 <https://w3id.org/cdisc/cosmos/dss/SU/WINEHX/SUDOSU> ;
    rdf:_9 <https://w3id.org/cdisc/cosmos/dss/SU/WINEHX/SUDOSFRQ> ;
    cosmos_sdtm:biomedicalConceptId NCIT:C81229 ;
    cosmos_sdtm:domain "SU" ;
    cosmos_sdtm:packageDate "2025-07-01"^^xsd:date ;
    cosmos_sdtm:packageType <https://www.cdisc.org/cosmos/sdtm_v1.0/PackageTypeEnum#sdtm> ;
    cosmos_sdtm:sdtmigStartVersion "3-2" ;
    cosmos_sdtm:shortName "Wine Use History" ;
    cosmos_sdtm:source "SU.SUTRT" ;
    cosmos_sdtm:variables <https://w3id.org/cdisc/cosmos/dss/SU/WINEHX/SUCAT>,
        <https://w3id.org/cdisc/cosmos/dss/SU/WINEHX/SUDOSE>,
        <https://w3id.org/cdisc/cosmos/dss/SU/WINEHX/SUDOSFRQ>,
        <https://w3id.org/cdisc/cosmos/dss/SU/WINEHX/SUDOSTXT>,
        <https://w3id.org/cdisc/cosmos/dss/SU/WINEHX/SUDOSU>,
        <https://w3id.org/cdisc/cosmos/dss/SU/WINEHX/SUENDTC>,
        <https://w3id.org/cdisc/cosmos/dss/SU/WINEHX/SUENRF>,
        <https://w3id.org/cdisc/cosmos/dss/SU/WINEHX/SUENRTPT>,
        <https://w3id.org/cdisc/cosmos/dss/SU/WINEHX/SUENTPT>,
        <https://w3id.org/cdisc/cosmos/dss/SU/WINEHX/SUOCCUR>,
        <https://w3id.org/cdisc/cosmos/dss/SU/WINEHX/SUPRESP>,
        <https://w3id.org/cdisc/cosmos/dss/SU/WINEHX/SUSCAT>,
        <https://w3id.org/cdisc/cosmos/dss/SU/WINEHX/SUSTDTC>,
        <https://w3id.org/cdisc/cosmos/dss/SU/WINEHX/SUSTRF>,
        <https://w3id.org/cdisc/cosmos/dss/SU/WINEHX/SUSTRTPT>,
        <https://w3id.org/cdisc/cosmos/dss/SU/WINEHX/SUSTTPT>,
        <https://w3id.org/cdisc/cosmos/dss/SU/WINEHX/SUTRT> .

<https://w3id.org/cdisc/cosmos/dss/SU/ALCOHOLHX/SUCAT/assignedTerm> a cosmos_sdtm:AssignedTerm ;
    cosmos_sdtm:value "ALCOHOL" .

<https://w3id.org/cdisc/cosmos/dss/SU/ALCOHOLHX/SUDOSE/relationship> a cosmos_sdtm:RelationShip ;
    cosmos_sdtm:linkingPhrase <https://www.cdisc.org/cosmos/sdtm_v1.0/LinkingPhraseEnum#is%20the%20administered%20amount%20of%20the%20treatment%20in> ;
    cosmos_sdtm:object "SUTRT" ;
    cosmos_sdtm:predicateTerm <https://www.cdisc.org/cosmos/sdtm_v1.0/PredicateTermEnum#IS_ATTRIBUTE_FOR> ;
    cosmos_sdtm:subject "SUDOSE" .

<https://w3id.org/cdisc/cosmos/dss/SU/ALCOHOLHX/SUDOSFRQ/relationship> a cosmos_sdtm:RelationShip ;
    cosmos_sdtm:linkingPhrase <https://www.cdisc.org/cosmos/sdtm_v1.0/LinkingPhraseEnum#is%20the%20frequency%20of%20administration%20of%20the%20amount%20in> ;
    cosmos_sdtm:object "SUTRT" ;
    cosmos_sdtm:predicateTerm <https://www.cdisc.org/cosmos/sdtm_v1.0/PredicateTermEnum#SPECIFIES> ;
    cosmos_sdtm:subject "SUDOSFRQ" .

<https://w3id.org/cdisc/cosmos/dss/SU/ALCOHOLHX/SUDOSTXT/relationship> a cosmos_sdtm:RelationShip ;
    cosmos_sdtm:linkingPhrase <https://www.cdisc.org/cosmos/sdtm_v1.0/LinkingPhraseEnum#is%20the%20administered%20amount%20of%20the%20treatment%20in> ;
    cosmos_sdtm:object "SUTRT" ;
    cosmos_sdtm:predicateTerm <https://www.cdisc.org/cosmos/sdtm_v1.0/PredicateTermEnum#IS_ATTRIBUTE_FOR> ;
    cosmos_sdtm:subject "SUDOSTXT" .

<https://w3id.org/cdisc/cosmos/dss/SU/ALCOHOLHX/SUDOSU/relationship> a cosmos_sdtm:RelationShip ;
    cosmos_sdtm:linkingPhrase <https://www.cdisc.org/cosmos/sdtm_v1.0/LinkingPhraseEnum#is%20the%20unit%20for> ;
    cosmos_sdtm:object "SUTRT" ;
    cosmos_sdtm:predicateTerm <https://www.cdisc.org/cosmos/sdtm_v1.0/PredicateTermEnum#IS_UNIT_FOR> ;
    cosmos_sdtm:subject "SUDOSU" .

<https://w3id.org/cdisc/cosmos/dss/SU/ALCOHOLHX/SUENDTC/relationship> a cosmos_sdtm:RelationShip ;
    cosmos_sdtm:linkingPhrase <https://www.cdisc.org/cosmos/sdtm_v1.0/LinkingPhraseEnum#is%20the%20end%20date%20for> ;
    cosmos_sdtm:object "SUTRT" ;
    cosmos_sdtm:predicateTerm <https://www.cdisc.org/cosmos/sdtm_v1.0/PredicateTermEnum#IS_TIMING_FOR> ;
    cosmos_sdtm:subject "SUENDTC" .

<https://w3id.org/cdisc/cosmos/dss/SU/ALCOHOLHX/SUOCCUR/relationship> a cosmos_sdtm:RelationShip ;
    cosmos_sdtm:linkingPhrase <https://www.cdisc.org/cosmos/sdtm_v1.0/LinkingPhraseEnum#indicates%20occurrence%20of%20the%20value%20in> ;
    cosmos_sdtm:object "SUTRT" ;
    cosmos_sdtm:predicateTerm <https://www.cdisc.org/cosmos/sdtm_v1.0/PredicateTermEnum#IS_INDICATOR_FOR> ;
    cosmos_sdtm:subject "SUOCCUR" .

<https://w3id.org/cdisc/cosmos/dss/SU/ALCOHOLHX/SUPRESP/relationship> a cosmos_sdtm:RelationShip ;
    cosmos_sdtm:linkingPhrase <https://www.cdisc.org/cosmos/sdtm_v1.0/LinkingPhraseEnum#indicates%20pre-specification%20of%20the%20value%20in> ;
    cosmos_sdtm:object "SUTRT" ;
    cosmos_sdtm:predicateTerm <https://www.cdisc.org/cosmos/sdtm_v1.0/PredicateTermEnum#IS_INDICATOR_FOR> ;
    cosmos_sdtm:subject "SUPRESP" .

<https://w3id.org/cdisc/cosmos/dss/SU/ALCOHOLHX/SUSTDTC/relationship> a cosmos_sdtm:RelationShip ;
    cosmos_sdtm:linkingPhrase <https://www.cdisc.org/cosmos/sdtm_v1.0/LinkingPhraseEnum#is%20the%20start%20date%20for> ;
    cosmos_sdtm:object "SUTRT" ;
    cosmos_sdtm:predicateTerm <https://www.cdisc.org/cosmos/sdtm_v1.0/PredicateTermEnum#IS_TIMING_FOR> ;
    cosmos_sdtm:subject "SUSTDTC" .

<https://w3id.org/cdisc/cosmos/dss/SU/ALCOHOLHX/SUTRT/assignedTerm> a cosmos_sdtm:AssignedTerm ;
    cosmos_sdtm:value "ALCOHOLIC BEVERAGE" .

<https://w3id.org/cdisc/cosmos/dss/SU/ALCOHOLHX/SUTRT/relationship> a cosmos_sdtm:RelationShip ;
    cosmos_sdtm:linkingPhrase <https://www.cdisc.org/cosmos/sdtm_v1.0/LinkingPhraseEnum#is%20original%20text%20for> ;
    cosmos_sdtm:object "SUDECOD" ;
    cosmos_sdtm:predicateTerm <https://www.cdisc.org/cosmos/sdtm_v1.0/PredicateTermEnum#IS_ORIGINAL_TEXT_FOR> ;
    cosmos_sdtm:subject "SUTRT" .

<https://w3id.org/cdisc/cosmos/dss/SU/BEERHX/SUCAT/assignedTerm> a cosmos_sdtm:AssignedTerm ;
    cosmos_sdtm:value "ALCOHOL" .

<https://w3id.org/cdisc/cosmos/dss/SU/BEERHX/SUDOSE/relationship> a cosmos_sdtm:RelationShip ;
    cosmos_sdtm:linkingPhrase <https://www.cdisc.org/cosmos/sdtm_v1.0/LinkingPhraseEnum#is%20the%20administered%20amount%20of%20the%20treatment%20in> ;
    cosmos_sdtm:object "SUTRT" ;
    cosmos_sdtm:predicateTerm <https://www.cdisc.org/cosmos/sdtm_v1.0/PredicateTermEnum#IS_ATTRIBUTE_FOR> ;
    cosmos_sdtm:subject "SUDOSE" .

<https://w3id.org/cdisc/cosmos/dss/SU/BEERHX/SUDOSFRQ/relationship> a cosmos_sdtm:RelationShip ;
    cosmos_sdtm:linkingPhrase <https://www.cdisc.org/cosmos/sdtm_v1.0/LinkingPhraseEnum#is%20the%20frequency%20of%20administration%20of%20the%20amount%20in> ;
    cosmos_sdtm:object "SUTRT" ;
    cosmos_sdtm:predicateTerm <https://www.cdisc.org/cosmos/sdtm_v1.0/PredicateTermEnum#SPECIFIES> ;
    cosmos_sdtm:subject "SUDOSFRQ" .

<https://w3id.org/cdisc/cosmos/dss/SU/BEERHX/SUDOSTXT/relationship> a cosmos_sdtm:RelationShip ;
    cosmos_sdtm:linkingPhrase <https://www.cdisc.org/cosmos/sdtm_v1.0/LinkingPhraseEnum#is%20the%20administered%20amount%20of%20the%20treatment%20in> ;
    cosmos_sdtm:object "SUTRT" ;
    cosmos_sdtm:predicateTerm <https://www.cdisc.org/cosmos/sdtm_v1.0/PredicateTermEnum#IS_ATTRIBUTE_FOR> ;
    cosmos_sdtm:subject "SUDOSTXT" .

<https://w3id.org/cdisc/cosmos/dss/SU/BEERHX/SUDOSU/relationship> a cosmos_sdtm:RelationShip ;
    cosmos_sdtm:linkingPhrase <https://www.cdisc.org/cosmos/sdtm_v1.0/LinkingPhraseEnum#is%20the%20unit%20for> ;
    cosmos_sdtm:object "SUTRT" ;
    cosmos_sdtm:predicateTerm <https://www.cdisc.org/cosmos/sdtm_v1.0/PredicateTermEnum#IS_UNIT_FOR> ;
    cosmos_sdtm:subject "SUDOSU" .

<https://w3id.org/cdisc/cosmos/dss/SU/BEERHX/SUENDTC/relationship> a cosmos_sdtm:RelationShip ;
    cosmos_sdtm:linkingPhrase <https://www.cdisc.org/cosmos/sdtm_v1.0/LinkingPhraseEnum#is%20the%20end%20date%20for> ;
    cosmos_sdtm:object "SUTRT" ;
    cosmos_sdtm:predicateTerm <https://www.cdisc.org/cosmos/sdtm_v1.0/PredicateTermEnum#IS_TIMING_FOR> ;
    cosmos_sdtm:subject "SUENDTC" .

<https://w3id.org/cdisc/cosmos/dss/SU/BEERHX/SUOCCUR/relationship> a cosmos_sdtm:RelationShip ;
    cosmos_sdtm:linkingPhrase <https://www.cdisc.org/cosmos/sdtm_v1.0/LinkingPhraseEnum#indicates%20occurrence%20of%20the%20value%20in> ;
    cosmos_sdtm:object "SUTRT" ;
    cosmos_sdtm:predicateTerm <https://www.cdisc.org/cosmos/sdtm_v1.0/PredicateTermEnum#IS_INDICATOR_FOR> ;
    cosmos_sdtm:subject "SUOCCUR" .

<https://w3id.org/cdisc/cosmos/dss/SU/BEERHX/SUPRESP/relationship> a cosmos_sdtm:RelationShip ;
    cosmos_sdtm:linkingPhrase <https://www.cdisc.org/cosmos/sdtm_v1.0/LinkingPhraseEnum#indicates%20pre-specification%20of%20the%20value%20in> ;
    cosmos_sdtm:object "SUTRT" ;
    cosmos_sdtm:predicateTerm <https://www.cdisc.org/cosmos/sdtm_v1.0/PredicateTermEnum#IS_INDICATOR_FOR> ;
    cosmos_sdtm:subject "SUPRESP" .

<https://w3id.org/cdisc/cosmos/dss/SU/BEERHX/SUSTDTC/relationship> a cosmos_sdtm:RelationShip ;
    cosmos_sdtm:linkingPhrase <https://www.cdisc.org/cosmos/sdtm_v1.0/LinkingPhraseEnum#is%20the%20start%20date%20for> ;
    cosmos_sdtm:object "SUTRT" ;
    cosmos_sdtm:predicateTerm <https://www.cdisc.org/cosmos/sdtm_v1.0/PredicateTermEnum#IS_TIMING_FOR> ;
    cosmos_sdtm:subject "SUSTDTC" .

<https://w3id.org/cdisc/cosmos/dss/SU/BEERHX/SUTRT/assignedTerm> a cosmos_sdtm:AssignedTerm ;
    cosmos_sdtm:value "BEER" .

<https://w3id.org/cdisc/cosmos/dss/SU/BEERHX/SUTRT/relationship> a cosmos_sdtm:RelationShip ;
    cosmos_sdtm:linkingPhrase <https://www.cdisc.org/cosmos/sdtm_v1.0/LinkingPhraseEnum#is%20original%20text%20for> ;
    cosmos_sdtm:object "SUDECOD" ;
    cosmos_sdtm:predicateTerm <https://www.cdisc.org/cosmos/sdtm_v1.0/PredicateTermEnum#IS_ORIGINAL_TEXT_FOR> ;
    cosmos_sdtm:subject "SUTRT" .

<https://w3id.org/cdisc/cosmos/dss/SU/CAFFEINEHX/SUCAT/assignedTerm> a cosmos_sdtm:AssignedTerm ;
    cosmos_sdtm:value "CAFFEINE" .

<https://w3id.org/cdisc/cosmos/dss/SU/CAFFEINEHX/SUDOSE/relationship> a cosmos_sdtm:RelationShip ;
    cosmos_sdtm:linkingPhrase <https://www.cdisc.org/cosmos/sdtm_v1.0/LinkingPhraseEnum#is%20the%20administered%20amount%20of%20the%20treatment%20in> ;
    cosmos_sdtm:object "SUTRT" ;
    cosmos_sdtm:predicateTerm <https://www.cdisc.org/cosmos/sdtm_v1.0/PredicateTermEnum#IS_ATTRIBUTE_FOR> ;
    cosmos_sdtm:subject "SUDOSE" .

<https://w3id.org/cdisc/cosmos/dss/SU/CAFFEINEHX/SUDOSFRQ/relationship> a cosmos_sdtm:RelationShip ;
    cosmos_sdtm:linkingPhrase <https://www.cdisc.org/cosmos/sdtm_v1.0/LinkingPhraseEnum#is%20the%20frequency%20of%20administration%20of%20the%20amount%20in> ;
    cosmos_sdtm:object "SUTRT" ;
    cosmos_sdtm:predicateTerm <https://www.cdisc.org/cosmos/sdtm_v1.0/PredicateTermEnum#SPECIFIES> ;
    cosmos_sdtm:subject "SUDOSFRQ" .

<https://w3id.org/cdisc/cosmos/dss/SU/CAFFEINEHX/SUDOSTXT/relationship> a cosmos_sdtm:RelationShip ;
    cosmos_sdtm:linkingPhrase <https://www.cdisc.org/cosmos/sdtm_v1.0/LinkingPhraseEnum#is%20the%20administered%20amount%20of%20the%20treatment%20in> ;
    cosmos_sdtm:object "SUTRT" ;
    cosmos_sdtm:predicateTerm <https://www.cdisc.org/cosmos/sdtm_v1.0/PredicateTermEnum#IS_ATTRIBUTE_FOR> ;
    cosmos_sdtm:subject "SUDOSTXT" .

<https://w3id.org/cdisc/cosmos/dss/SU/CAFFEINEHX/SUDOSU/relationship> a cosmos_sdtm:RelationShip ;
    cosmos_sdtm:linkingPhrase <https://www.cdisc.org/cosmos/sdtm_v1.0/LinkingPhraseEnum#is%20the%20unit%20for> ;
    cosmos_sdtm:object "SUTRT" ;
    cosmos_sdtm:predicateTerm <https://www.cdisc.org/cosmos/sdtm_v1.0/PredicateTermEnum#IS_UNIT_FOR> ;
    cosmos_sdtm:subject "SUDOSU" .

<https://w3id.org/cdisc/cosmos/dss/SU/CAFFEINEHX/SUENDTC/relationship> a cosmos_sdtm:RelationShip ;
    cosmos_sdtm:linkingPhrase <https://www.cdisc.org/cosmos/sdtm_v1.0/LinkingPhraseEnum#is%20the%20end%20date%20for> ;
    cosmos_sdtm:object "SUTRT" ;
    cosmos_sdtm:predicateTerm <https://www.cdisc.org/cosmos/sdtm_v1.0/PredicateTermEnum#IS_TIMING_FOR> ;
    cosmos_sdtm:subject "SUENDTC" .

<https://w3id.org/cdisc/cosmos/dss/SU/CAFFEINEHX/SUOCCUR/relationship> a cosmos_sdtm:RelationShip ;
    cosmos_sdtm:linkingPhrase <https://www.cdisc.org/cosmos/sdtm_v1.0/LinkingPhraseEnum#indicates%20occurrence%20of%20the%20value%20in> ;
    cosmos_sdtm:object "SUTRT" ;
    cosmos_sdtm:predicateTerm <https://www.cdisc.org/cosmos/sdtm_v1.0/PredicateTermEnum#IS_INDICATOR_FOR> ;
    cosmos_sdtm:subject "SUOCCUR" .

<https://w3id.org/cdisc/cosmos/dss/SU/CAFFEINEHX/SUPRESP/relationship> a cosmos_sdtm:RelationShip ;
    cosmos_sdtm:linkingPhrase <https://www.cdisc.org/cosmos/sdtm_v1.0/LinkingPhraseEnum#indicates%20pre-specification%20of%20the%20value%20in> ;
    cosmos_sdtm:object "SUTRT" ;
    cosmos_sdtm:predicateTerm <https://www.cdisc.org/cosmos/sdtm_v1.0/PredicateTermEnum#IS_INDICATOR_FOR> ;
    cosmos_sdtm:subject "SUPRESP" .

<https://w3id.org/cdisc/cosmos/dss/SU/CAFFEINEHX/SUSTDTC/relationship> a cosmos_sdtm:RelationShip ;
    cosmos_sdtm:linkingPhrase <https://www.cdisc.org/cosmos/sdtm_v1.0/LinkingPhraseEnum#is%20the%20start%20date%20for> ;
    cosmos_sdtm:object "SUTRT" ;
    cosmos_sdtm:predicateTerm <https://www.cdisc.org/cosmos/sdtm_v1.0/PredicateTermEnum#IS_TIMING_FOR> ;
    cosmos_sdtm:subject "SUSTDTC" .

<https://w3id.org/cdisc/cosmos/dss/SU/CAFFEINEHX/SUTRT/assignedTerm> a cosmos_sdtm:AssignedTerm ;
    cosmos_sdtm:value "CAFFEINATED BEVERAGE" .

<https://w3id.org/cdisc/cosmos/dss/SU/CAFFEINEHX/SUTRT/relationship> a cosmos_sdtm:RelationShip ;
    cosmos_sdtm:linkingPhrase <https://www.cdisc.org/cosmos/sdtm_v1.0/LinkingPhraseEnum#is%20original%20text%20for> ;
    cosmos_sdtm:object "SUDECOD" ;
    cosmos_sdtm:predicateTerm <https://www.cdisc.org/cosmos/sdtm_v1.0/PredicateTermEnum#IS_ORIGINAL_TEXT_FOR> ;
    cosmos_sdtm:subject "SUTRT" .

<https://w3id.org/cdisc/cosmos/dss/SU/CIGARETTEHX/SUCAT/assignedTerm> a cosmos_sdtm:AssignedTerm ;
    cosmos_sdtm:value "TOBACCO" .

<https://w3id.org/cdisc/cosmos/dss/SU/CIGARETTEHX/SUDOSE/relationship> a cosmos_sdtm:RelationShip ;
    cosmos_sdtm:linkingPhrase <https://www.cdisc.org/cosmos/sdtm_v1.0/LinkingPhraseEnum#is%20the%20administered%20amount%20of%20the%20treatment%20in> ;
    cosmos_sdtm:object "SUTRT" ;
    cosmos_sdtm:predicateTerm <https://www.cdisc.org/cosmos/sdtm_v1.0/PredicateTermEnum#IS_ATTRIBUTE_FOR> ;
    cosmos_sdtm:subject "SUDOSE" .

<https://w3id.org/cdisc/cosmos/dss/SU/CIGARETTEHX/SUDOSFRQ/relationship> a cosmos_sdtm:RelationShip ;
    cosmos_sdtm:linkingPhrase <https://www.cdisc.org/cosmos/sdtm_v1.0/LinkingPhraseEnum#is%20the%20frequency%20of%20administration%20of%20the%20amount%20in> ;
    cosmos_sdtm:object "SUTRT" ;
    cosmos_sdtm:predicateTerm <https://www.cdisc.org/cosmos/sdtm_v1.0/PredicateTermEnum#SPECIFIES> ;
    cosmos_sdtm:subject "SUDOSFRQ" .

<https://w3id.org/cdisc/cosmos/dss/SU/CIGARETTEHX/SUDOSTXT/relationship> a cosmos_sdtm:RelationShip ;
    cosmos_sdtm:linkingPhrase <https://www.cdisc.org/cosmos/sdtm_v1.0/LinkingPhraseEnum#is%20the%20administered%20amount%20of%20the%20treatment%20in> ;
    cosmos_sdtm:object "SUTRT" ;
    cosmos_sdtm:predicateTerm <https://www.cdisc.org/cosmos/sdtm_v1.0/PredicateTermEnum#IS_ATTRIBUTE_FOR> ;
    cosmos_sdtm:subject "SUDOSTXT" .

<https://w3id.org/cdisc/cosmos/dss/SU/CIGARETTEHX/SUDOSU/relationship> a cosmos_sdtm:RelationShip ;
    cosmos_sdtm:linkingPhrase <https://www.cdisc.org/cosmos/sdtm_v1.0/LinkingPhraseEnum#is%20the%20unit%20for> ;
    cosmos_sdtm:object "SUTRT" ;
    cosmos_sdtm:predicateTerm <https://www.cdisc.org/cosmos/sdtm_v1.0/PredicateTermEnum#IS_UNIT_FOR> ;
    cosmos_sdtm:subject "SUDOSU" .

<https://w3id.org/cdisc/cosmos/dss/SU/CIGARETTEHX/SUDUR/relationship> a cosmos_sdtm:RelationShip ;
    cosmos_sdtm:linkingPhrase <https://www.cdisc.org/cosmos/sdtm_v1.0/LinkingPhraseEnum#is%20the%20duration%20for> ;
    cosmos_sdtm:object "SUTRT" ;
    cosmos_sdtm:predicateTerm <https://www.cdisc.org/cosmos/sdtm_v1.0/PredicateTermEnum#IS_TIMING_FOR> ;
    cosmos_sdtm:subject "SUDUR" .

<https://w3id.org/cdisc/cosmos/dss/SU/CIGARETTEHX/SUENDTC/relationship> a cosmos_sdtm:RelationShip ;
    cosmos_sdtm:linkingPhrase <https://www.cdisc.org/cosmos/sdtm_v1.0/LinkingPhraseEnum#is%20the%20end%20date%20for> ;
    cosmos_sdtm:object "SUTRT" ;
    cosmos_sdtm:predicateTerm <https://www.cdisc.org/cosmos/sdtm_v1.0/PredicateTermEnum#IS_TIMING_FOR> ;
    cosmos_sdtm:subject "SUENDTC" .

<https://w3id.org/cdisc/cosmos/dss/SU/CIGARETTEHX/SUOCCUR/relationship> a cosmos_sdtm:RelationShip ;
    cosmos_sdtm:linkingPhrase <https://www.cdisc.org/cosmos/sdtm_v1.0/LinkingPhraseEnum#indicates%20occurrence%20of%20the%20value%20in> ;
    cosmos_sdtm:object "SUTRT" ;
    cosmos_sdtm:predicateTerm <https://www.cdisc.org/cosmos/sdtm_v1.0/PredicateTermEnum#IS_INDICATOR_FOR> ;
    cosmos_sdtm:subject "SUOCCUR" .

<https://w3id.org/cdisc/cosmos/dss/SU/CIGARETTEHX/SUPRESP/relationship> a cosmos_sdtm:RelationShip ;
    cosmos_sdtm:linkingPhrase <https://www.cdisc.org/cosmos/sdtm_v1.0/LinkingPhraseEnum#indicates%20pre-specification%20of%20the%20value%20in> ;
    cosmos_sdtm:object "SUTRT" ;
    cosmos_sdtm:predicateTerm <https://www.cdisc.org/cosmos/sdtm_v1.0/PredicateTermEnum#IS_INDICATOR_FOR> ;
    cosmos_sdtm:subject "SUPRESP" .

<https://w3id.org/cdisc/cosmos/dss/SU/CIGARETTEHX/SUSTDTC/relationship> a cosmos_sdtm:RelationShip ;
    cosmos_sdtm:linkingPhrase <https://www.cdisc.org/cosmos/sdtm_v1.0/LinkingPhraseEnum#is%20the%20start%20date%20for> ;
    cosmos_sdtm:object "SUTRT" ;
    cosmos_sdtm:predicateTerm <https://www.cdisc.org/cosmos/sdtm_v1.0/PredicateTermEnum#IS_TIMING_FOR> ;
    cosmos_sdtm:subject "SUSTDTC" .

<https://w3id.org/cdisc/cosmos/dss/SU/CIGARETTEHX/SUTRT/assignedTerm> a cosmos_sdtm:AssignedTerm ;
    cosmos_sdtm:value "CIGARETTE" .

<https://w3id.org/cdisc/cosmos/dss/SU/CIGARETTEHX/SUTRT/relationship> a cosmos_sdtm:RelationShip ;
    cosmos_sdtm:linkingPhrase <https://www.cdisc.org/cosmos/sdtm_v1.0/LinkingPhraseEnum#is%20original%20text%20for> ;
    cosmos_sdtm:object "SUDECOD" ;
    cosmos_sdtm:predicateTerm <https://www.cdisc.org/cosmos/sdtm_v1.0/PredicateTermEnum#IS_ORIGINAL_TEXT_FOR> ;
    cosmos_sdtm:subject "SUTRT" .

<https://w3id.org/cdisc/cosmos/dss/SU/CIGARHX/SUCAT/assignedTerm> a cosmos_sdtm:AssignedTerm ;
    cosmos_sdtm:value "TOBACCO" .

<https://w3id.org/cdisc/cosmos/dss/SU/CIGARHX/SUDOSE/relationship> a cosmos_sdtm:RelationShip ;
    cosmos_sdtm:linkingPhrase <https://www.cdisc.org/cosmos/sdtm_v1.0/LinkingPhraseEnum#is%20the%20administered%20amount%20of%20the%20treatment%20in> ;
    cosmos_sdtm:object "SUTRT" ;
    cosmos_sdtm:predicateTerm <https://www.cdisc.org/cosmos/sdtm_v1.0/PredicateTermEnum#IS_ATTRIBUTE_FOR> ;
    cosmos_sdtm:subject "SUDOSE" .

<https://w3id.org/cdisc/cosmos/dss/SU/CIGARHX/SUDOSFRQ/relationship> a cosmos_sdtm:RelationShip ;
    cosmos_sdtm:linkingPhrase <https://www.cdisc.org/cosmos/sdtm_v1.0/LinkingPhraseEnum#is%20the%20frequency%20of%20administration%20of%20the%20amount%20in> ;
    cosmos_sdtm:object "SUTRT" ;
    cosmos_sdtm:predicateTerm <https://www.cdisc.org/cosmos/sdtm_v1.0/PredicateTermEnum#SPECIFIES> ;
    cosmos_sdtm:subject "SUDOSFRQ" .

<https://w3id.org/cdisc/cosmos/dss/SU/CIGARHX/SUDOSTXT/relationship> a cosmos_sdtm:RelationShip ;
    cosmos_sdtm:linkingPhrase <https://www.cdisc.org/cosmos/sdtm_v1.0/LinkingPhraseEnum#is%20the%20administered%20amount%20of%20the%20treatment%20in> ;
    cosmos_sdtm:object "SUTRT" ;
    cosmos_sdtm:predicateTerm <https://www.cdisc.org/cosmos/sdtm_v1.0/PredicateTermEnum#IS_ATTRIBUTE_FOR> ;
    cosmos_sdtm:subject "SUDOSTXT" .

<https://w3id.org/cdisc/cosmos/dss/SU/CIGARHX/SUDOSU/relationship> a cosmos_sdtm:RelationShip ;
    cosmos_sdtm:linkingPhrase <https://www.cdisc.org/cosmos/sdtm_v1.0/LinkingPhraseEnum#is%20the%20unit%20for> ;
    cosmos_sdtm:object "SUTRT" ;
    cosmos_sdtm:predicateTerm <https://www.cdisc.org/cosmos/sdtm_v1.0/PredicateTermEnum#IS_UNIT_FOR> ;
    cosmos_sdtm:subject "SUDOSU" .

<https://w3id.org/cdisc/cosmos/dss/SU/CIGARHX/SUDUR/relationship> a cosmos_sdtm:RelationShip ;
    cosmos_sdtm:linkingPhrase <https://www.cdisc.org/cosmos/sdtm_v1.0/LinkingPhraseEnum#is%20the%20duration%20for> ;
    cosmos_sdtm:object "SUTRT" ;
    cosmos_sdtm:predicateTerm <https://www.cdisc.org/cosmos/sdtm_v1.0/PredicateTermEnum#IS_TIMING_FOR> ;
    cosmos_sdtm:subject "SUDUR" .

<https://w3id.org/cdisc/cosmos/dss/SU/CIGARHX/SUENDTC/relationship> a cosmos_sdtm:RelationShip ;
    cosmos_sdtm:linkingPhrase <https://www.cdisc.org/cosmos/sdtm_v1.0/LinkingPhraseEnum#is%20the%20end%20date%20for> ;
    cosmos_sdtm:object "SUTRT" ;
    cosmos_sdtm:predicateTerm <https://www.cdisc.org/cosmos/sdtm_v1.0/PredicateTermEnum#IS_TIMING_FOR> ;
    cosmos_sdtm:subject "SUENDTC" .

<https://w3id.org/cdisc/cosmos/dss/SU/CIGARHX/SUOCCUR/relationship> a cosmos_sdtm:RelationShip ;
    cosmos_sdtm:linkingPhrase <https://www.cdisc.org/cosmos/sdtm_v1.0/LinkingPhraseEnum#indicates%20occurrence%20of%20the%20value%20in> ;
    cosmos_sdtm:object "SUTRT" ;
    cosmos_sdtm:predicateTerm <https://www.cdisc.org/cosmos/sdtm_v1.0/PredicateTermEnum#IS_INDICATOR_FOR> ;
    cosmos_sdtm:subject "SUOCCUR" .

<https://w3id.org/cdisc/cosmos/dss/SU/CIGARHX/SUPRESP/relationship> a cosmos_sdtm:RelationShip ;
    cosmos_sdtm:linkingPhrase <https://www.cdisc.org/cosmos/sdtm_v1.0/LinkingPhraseEnum#indicates%20pre-specification%20of%20the%20value%20in> ;
    cosmos_sdtm:object "SUTRT" ;
    cosmos_sdtm:predicateTerm <https://www.cdisc.org/cosmos/sdtm_v1.0/PredicateTermEnum#IS_INDICATOR_FOR> ;
    cosmos_sdtm:subject "SUPRESP" .

<https://w3id.org/cdisc/cosmos/dss/SU/CIGARHX/SUSTDTC/relationship> a cosmos_sdtm:RelationShip ;
    cosmos_sdtm:linkingPhrase <https://www.cdisc.org/cosmos/sdtm_v1.0/LinkingPhraseEnum#is%20the%20start%20date%20for> ;
    cosmos_sdtm:object "SUTRT" ;
    cosmos_sdtm:predicateTerm <https://www.cdisc.org/cosmos/sdtm_v1.0/PredicateTermEnum#IS_TIMING_FOR> ;
    cosmos_sdtm:subject "SUSTDTC" .

<https://w3id.org/cdisc/cosmos/dss/SU/CIGARHX/SUTRT/assignedTerm> a cosmos_sdtm:AssignedTerm ;
    cosmos_sdtm:value "CIGAR" .

<https://w3id.org/cdisc/cosmos/dss/SU/CIGARHX/SUTRT/relationship> a cosmos_sdtm:RelationShip ;
    cosmos_sdtm:linkingPhrase <https://www.cdisc.org/cosmos/sdtm_v1.0/LinkingPhraseEnum#is%20original%20text%20for> ;
    cosmos_sdtm:object "SUDECOD" ;
    cosmos_sdtm:predicateTerm <https://www.cdisc.org/cosmos/sdtm_v1.0/PredicateTermEnum#IS_ORIGINAL_TEXT_FOR> ;
    cosmos_sdtm:subject "SUTRT" .

<https://w3id.org/cdisc/cosmos/dss/SU/COFFEEHX/SUCAT/assignedTerm> a cosmos_sdtm:AssignedTerm ;
    cosmos_sdtm:value "CAFFEINE" .

<https://w3id.org/cdisc/cosmos/dss/SU/COFFEEHX/SUDOSE/relationship> a cosmos_sdtm:RelationShip ;
    cosmos_sdtm:linkingPhrase <https://www.cdisc.org/cosmos/sdtm_v1.0/LinkingPhraseEnum#is%20the%20administered%20amount%20of%20the%20treatment%20in> ;
    cosmos_sdtm:object "SUTRT" ;
    cosmos_sdtm:predicateTerm <https://www.cdisc.org/cosmos/sdtm_v1.0/PredicateTermEnum#IS_ATTRIBUTE_FOR> ;
    cosmos_sdtm:subject "SUDOSE" .

<https://w3id.org/cdisc/cosmos/dss/SU/COFFEEHX/SUDOSFRQ/relationship> a cosmos_sdtm:RelationShip ;
    cosmos_sdtm:linkingPhrase <https://www.cdisc.org/cosmos/sdtm_v1.0/LinkingPhraseEnum#is%20the%20frequency%20of%20administration%20of%20the%20amount%20in> ;
    cosmos_sdtm:object "SUTRT" ;
    cosmos_sdtm:predicateTerm <https://www.cdisc.org/cosmos/sdtm_v1.0/PredicateTermEnum#SPECIFIES> ;
    cosmos_sdtm:subject "SUDOSFRQ" .

<https://w3id.org/cdisc/cosmos/dss/SU/COFFEEHX/SUDOSTXT/relationship> a cosmos_sdtm:RelationShip ;
    cosmos_sdtm:linkingPhrase <https://www.cdisc.org/cosmos/sdtm_v1.0/LinkingPhraseEnum#is%20the%20administered%20amount%20of%20the%20treatment%20in> ;
    cosmos_sdtm:object "SUTRT" ;
    cosmos_sdtm:predicateTerm <https://www.cdisc.org/cosmos/sdtm_v1.0/PredicateTermEnum#IS_ATTRIBUTE_FOR> ;
    cosmos_sdtm:subject "SUDOSTXT" .

<https://w3id.org/cdisc/cosmos/dss/SU/COFFEEHX/SUDOSU/relationship> a cosmos_sdtm:RelationShip ;
    cosmos_sdtm:linkingPhrase <https://www.cdisc.org/cosmos/sdtm_v1.0/LinkingPhraseEnum#is%20the%20unit%20for> ;
    cosmos_sdtm:object "SUTRT" ;
    cosmos_sdtm:predicateTerm <https://www.cdisc.org/cosmos/sdtm_v1.0/PredicateTermEnum#IS_UNIT_FOR> ;
    cosmos_sdtm:subject "SUDOSU" .

<https://w3id.org/cdisc/cosmos/dss/SU/COFFEEHX/SUENDTC/relationship> a cosmos_sdtm:RelationShip ;
    cosmos_sdtm:linkingPhrase <https://www.cdisc.org/cosmos/sdtm_v1.0/LinkingPhraseEnum#is%20the%20end%20date%20for> ;
    cosmos_sdtm:object "SUTRT" ;
    cosmos_sdtm:predicateTerm <https://www.cdisc.org/cosmos/sdtm_v1.0/PredicateTermEnum#IS_TIMING_FOR> ;
    cosmos_sdtm:subject "SUENDTC" .

<https://w3id.org/cdisc/cosmos/dss/SU/COFFEEHX/SUOCCUR/relationship> a cosmos_sdtm:RelationShip ;
    cosmos_sdtm:linkingPhrase <https://www.cdisc.org/cosmos/sdtm_v1.0/LinkingPhraseEnum#indicates%20occurrence%20of%20the%20value%20in> ;
    cosmos_sdtm:object "SUTRT" ;
    cosmos_sdtm:predicateTerm <https://www.cdisc.org/cosmos/sdtm_v1.0/PredicateTermEnum#IS_INDICATOR_FOR> ;
    cosmos_sdtm:subject "SUOCCUR" .

<https://w3id.org/cdisc/cosmos/dss/SU/COFFEEHX/SUPRESP/relationship> a cosmos_sdtm:RelationShip ;
    cosmos_sdtm:linkingPhrase <https://www.cdisc.org/cosmos/sdtm_v1.0/LinkingPhraseEnum#indicates%20pre-specification%20of%20the%20value%20in> ;
    cosmos_sdtm:object "SUTRT" ;
    cosmos_sdtm:predicateTerm <https://www.cdisc.org/cosmos/sdtm_v1.0/PredicateTermEnum#IS_INDICATOR_FOR> ;
    cosmos_sdtm:subject "SUPRESP" .

<https://w3id.org/cdisc/cosmos/dss/SU/COFFEEHX/SUSTDTC/relationship> a cosmos_sdtm:RelationShip ;
    cosmos_sdtm:linkingPhrase <https://www.cdisc.org/cosmos/sdtm_v1.0/LinkingPhraseEnum#is%20the%20start%20date%20for> ;
    cosmos_sdtm:object "SUTRT" ;
    cosmos_sdtm:predicateTerm <https://www.cdisc.org/cosmos/sdtm_v1.0/PredicateTermEnum#IS_TIMING_FOR> ;
    cosmos_sdtm:subject "SUSTDTC" .

<https://w3id.org/cdisc/cosmos/dss/SU/COFFEEHX/SUTRT/assignedTerm> a cosmos_sdtm:AssignedTerm ;
    cosmos_sdtm:value "COFFEE" .

<https://w3id.org/cdisc/cosmos/dss/SU/COFFEEHX/SUTRT/relationship> a cosmos_sdtm:RelationShip ;
    cosmos_sdtm:linkingPhrase <https://www.cdisc.org/cosmos/sdtm_v1.0/LinkingPhraseEnum#is%20original%20text%20for> ;
    cosmos_sdtm:object "SUDECOD" ;
    cosmos_sdtm:predicateTerm <https://www.cdisc.org/cosmos/sdtm_v1.0/PredicateTermEnum#IS_ORIGINAL_TEXT_FOR> ;
    cosmos_sdtm:subject "SUTRT" .

<https://w3id.org/cdisc/cosmos/dss/SU/COLAHX/SUCAT/assignedTerm> a cosmos_sdtm:AssignedTerm ;
    cosmos_sdtm:value "CAFFEINE" .

<https://w3id.org/cdisc/cosmos/dss/SU/COLAHX/SUDOSE/relationship> a cosmos_sdtm:RelationShip ;
    cosmos_sdtm:linkingPhrase <https://www.cdisc.org/cosmos/sdtm_v1.0/LinkingPhraseEnum#is%20the%20administered%20amount%20of%20the%20treatment%20in> ;
    cosmos_sdtm:object "SUTRT" ;
    cosmos_sdtm:predicateTerm <https://www.cdisc.org/cosmos/sdtm_v1.0/PredicateTermEnum#IS_ATTRIBUTE_FOR> ;
    cosmos_sdtm:subject "SUDOSE" .

<https://w3id.org/cdisc/cosmos/dss/SU/COLAHX/SUDOSFRQ/relationship> a cosmos_sdtm:RelationShip ;
    cosmos_sdtm:linkingPhrase <https://www.cdisc.org/cosmos/sdtm_v1.0/LinkingPhraseEnum#is%20the%20frequency%20of%20administration%20of%20the%20amount%20in> ;
    cosmos_sdtm:object "SUTRT" ;
    cosmos_sdtm:predicateTerm <https://www.cdisc.org/cosmos/sdtm_v1.0/PredicateTermEnum#SPECIFIES> ;
    cosmos_sdtm:subject "SUDOSFRQ" .

<https://w3id.org/cdisc/cosmos/dss/SU/COLAHX/SUDOSTXT/relationship> a cosmos_sdtm:RelationShip ;
    cosmos_sdtm:linkingPhrase <https://www.cdisc.org/cosmos/sdtm_v1.0/LinkingPhraseEnum#is%20the%20administered%20amount%20of%20the%20treatment%20in> ;
    cosmos_sdtm:object "SUTRT" ;
    cosmos_sdtm:predicateTerm <https://www.cdisc.org/cosmos/sdtm_v1.0/PredicateTermEnum#IS_ATTRIBUTE_FOR> ;
    cosmos_sdtm:subject "SUDOSTXT" .

<https://w3id.org/cdisc/cosmos/dss/SU/COLAHX/SUDOSU/relationship> a cosmos_sdtm:RelationShip ;
    cosmos_sdtm:linkingPhrase <https://www.cdisc.org/cosmos/sdtm_v1.0/LinkingPhraseEnum#is%20the%20unit%20for> ;
    cosmos_sdtm:object "SUTRT" ;
    cosmos_sdtm:predicateTerm <https://www.cdisc.org/cosmos/sdtm_v1.0/PredicateTermEnum#IS_UNIT_FOR> ;
    cosmos_sdtm:subject "SUDOSU" .

<https://w3id.org/cdisc/cosmos/dss/SU/COLAHX/SUENDTC/relationship> a cosmos_sdtm:RelationShip ;
    cosmos_sdtm:linkingPhrase <https://www.cdisc.org/cosmos/sdtm_v1.0/LinkingPhraseEnum#is%20the%20end%20date%20for> ;
    cosmos_sdtm:object "SUTRT" ;
    cosmos_sdtm:predicateTerm <https://www.cdisc.org/cosmos/sdtm_v1.0/PredicateTermEnum#IS_TIMING_FOR> ;
    cosmos_sdtm:subject "SUENDTC" .

<https://w3id.org/cdisc/cosmos/dss/SU/COLAHX/SUOCCUR/relationship> a cosmos_sdtm:RelationShip ;
    cosmos_sdtm:linkingPhrase <https://www.cdisc.org/cosmos/sdtm_v1.0/LinkingPhraseEnum#indicates%20occurrence%20of%20the%20value%20in> ;
    cosmos_sdtm:object "SUTRT" ;
    cosmos_sdtm:predicateTerm <https://www.cdisc.org/cosmos/sdtm_v1.0/PredicateTermEnum#IS_INDICATOR_FOR> ;
    cosmos_sdtm:subject "SUOCCUR" .

<https://w3id.org/cdisc/cosmos/dss/SU/COLAHX/SUPRESP/relationship> a cosmos_sdtm:RelationShip ;
    cosmos_sdtm:linkingPhrase <https://www.cdisc.org/cosmos/sdtm_v1.0/LinkingPhraseEnum#indicates%20pre-specification%20of%20the%20value%20in> ;
    cosmos_sdtm:object "SUTRT" ;
    cosmos_sdtm:predicateTerm <https://www.cdisc.org/cosmos/sdtm_v1.0/PredicateTermEnum#IS_INDICATOR_FOR> ;
    cosmos_sdtm:subject "SUPRESP" .

<https://w3id.org/cdisc/cosmos/dss/SU/COLAHX/SUSTDTC/relationship> a cosmos_sdtm:RelationShip ;
    cosmos_sdtm:linkingPhrase <https://www.cdisc.org/cosmos/sdtm_v1.0/LinkingPhraseEnum#is%20the%20start%20date%20for> ;
    cosmos_sdtm:object "SUTRT" ;
    cosmos_sdtm:predicateTerm <https://www.cdisc.org/cosmos/sdtm_v1.0/PredicateTermEnum#IS_TIMING_FOR> ;
    cosmos_sdtm:subject "SUSTDTC" .

<https://w3id.org/cdisc/cosmos/dss/SU/COLAHX/SUTRT/assignedTerm> a cosmos_sdtm:AssignedTerm ;
    cosmos_sdtm:value "COLA" .

<https://w3id.org/cdisc/cosmos/dss/SU/COLAHX/SUTRT/relationship> a cosmos_sdtm:RelationShip ;
    cosmos_sdtm:linkingPhrase <https://www.cdisc.org/cosmos/sdtm_v1.0/LinkingPhraseEnum#is%20original%20text%20for> ;
    cosmos_sdtm:object "SUDECOD" ;
    cosmos_sdtm:predicateTerm <https://www.cdisc.org/cosmos/sdtm_v1.0/PredicateTermEnum#IS_ORIGINAL_TEXT_FOR> ;
    cosmos_sdtm:subject "SUTRT" .

<https://w3id.org/cdisc/cosmos/dss/SU/DISTILLEDSPIRITSHX/SUCAT/assignedTerm> a cosmos_sdtm:AssignedTerm ;
    cosmos_sdtm:value "ALCOHOL" .

<https://w3id.org/cdisc/cosmos/dss/SU/DISTILLEDSPIRITSHX/SUDOSE/relationship> a cosmos_sdtm:RelationShip ;
    cosmos_sdtm:linkingPhrase <https://www.cdisc.org/cosmos/sdtm_v1.0/LinkingPhraseEnum#is%20the%20administered%20amount%20of%20the%20treatment%20in> ;
    cosmos_sdtm:object "SUTRT" ;
    cosmos_sdtm:predicateTerm <https://www.cdisc.org/cosmos/sdtm_v1.0/PredicateTermEnum#IS_ATTRIBUTE_FOR> ;
    cosmos_sdtm:subject "SUDOSE" .

<https://w3id.org/cdisc/cosmos/dss/SU/DISTILLEDSPIRITSHX/SUDOSFRQ/relationship> a cosmos_sdtm:RelationShip ;
    cosmos_sdtm:linkingPhrase <https://www.cdisc.org/cosmos/sdtm_v1.0/LinkingPhraseEnum#is%20the%20frequency%20of%20administration%20of%20the%20amount%20in> ;
    cosmos_sdtm:object "SUTRT" ;
    cosmos_sdtm:predicateTerm <https://www.cdisc.org/cosmos/sdtm_v1.0/PredicateTermEnum#SPECIFIES> ;
    cosmos_sdtm:subject "SUDOSFRQ" .

<https://w3id.org/cdisc/cosmos/dss/SU/DISTILLEDSPIRITSHX/SUDOSTXT/relationship> a cosmos_sdtm:RelationShip ;
    cosmos_sdtm:linkingPhrase <https://www.cdisc.org/cosmos/sdtm_v1.0/LinkingPhraseEnum#is%20the%20administered%20amount%20of%20the%20treatment%20in> ;
    cosmos_sdtm:object "SUTRT" ;
    cosmos_sdtm:predicateTerm <https://www.cdisc.org/cosmos/sdtm_v1.0/PredicateTermEnum#IS_ATTRIBUTE_FOR> ;
    cosmos_sdtm:subject "SUDOSTXT" .

<https://w3id.org/cdisc/cosmos/dss/SU/DISTILLEDSPIRITSHX/SUDOSU/relationship> a cosmos_sdtm:RelationShip ;
    cosmos_sdtm:linkingPhrase <https://www.cdisc.org/cosmos/sdtm_v1.0/LinkingPhraseEnum#is%20the%20unit%20for> ;
    cosmos_sdtm:object "SUTRT" ;
    cosmos_sdtm:predicateTerm <https://www.cdisc.org/cosmos/sdtm_v1.0/PredicateTermEnum#IS_UNIT_FOR> ;
    cosmos_sdtm:subject "SUDOSU" .

<https://w3id.org/cdisc/cosmos/dss/SU/DISTILLEDSPIRITSHX/SUENDTC/relationship> a cosmos_sdtm:RelationShip ;
    cosmos_sdtm:linkingPhrase <https://www.cdisc.org/cosmos/sdtm_v1.0/LinkingPhraseEnum#is%20the%20end%20date%20for> ;
    cosmos_sdtm:object "SUTRT" ;
    cosmos_sdtm:predicateTerm <https://www.cdisc.org/cosmos/sdtm_v1.0/PredicateTermEnum#IS_TIMING_FOR> ;
    cosmos_sdtm:subject "SUENDTC" .

<https://w3id.org/cdisc/cosmos/dss/SU/DISTILLEDSPIRITSHX/SUOCCUR/relationship> a cosmos_sdtm:RelationShip ;
    cosmos_sdtm:linkingPhrase <https://www.cdisc.org/cosmos/sdtm_v1.0/LinkingPhraseEnum#indicates%20occurrence%20of%20the%20value%20in> ;
    cosmos_sdtm:object "SUTRT" ;
    cosmos_sdtm:predicateTerm <https://www.cdisc.org/cosmos/sdtm_v1.0/PredicateTermEnum#IS_INDICATOR_FOR> ;
    cosmos_sdtm:subject "SUOCCUR" .

<https://w3id.org/cdisc/cosmos/dss/SU/DISTILLEDSPIRITSHX/SUPRESP/relationship> a cosmos_sdtm:RelationShip ;
    cosmos_sdtm:linkingPhrase <https://www.cdisc.org/cosmos/sdtm_v1.0/LinkingPhraseEnum#indicates%20pre-specification%20of%20the%20value%20in> ;
    cosmos_sdtm:object "SUTRT" ;
    cosmos_sdtm:predicateTerm <https://www.cdisc.org/cosmos/sdtm_v1.0/PredicateTermEnum#IS_INDICATOR_FOR> ;
    cosmos_sdtm:subject "SUPRESP" .

<https://w3id.org/cdisc/cosmos/dss/SU/DISTILLEDSPIRITSHX/SUSTDTC/relationship> a cosmos_sdtm:RelationShip ;
    cosmos_sdtm:linkingPhrase <https://www.cdisc.org/cosmos/sdtm_v1.0/LinkingPhraseEnum#is%20the%20start%20date%20for> ;
    cosmos_sdtm:object "SUTRT" ;
    cosmos_sdtm:predicateTerm <https://www.cdisc.org/cosmos/sdtm_v1.0/PredicateTermEnum#IS_TIMING_FOR> ;
    cosmos_sdtm:subject "SUSTDTC" .

<https://w3id.org/cdisc/cosmos/dss/SU/DISTILLEDSPIRITSHX/SUTRT/assignedTerm> a cosmos_sdtm:AssignedTerm ;
    cosmos_sdtm:value "DISTILLED SPIRITS" .

<https://w3id.org/cdisc/cosmos/dss/SU/DISTILLEDSPIRITSHX/SUTRT/relationship> a cosmos_sdtm:RelationShip ;
    cosmos_sdtm:linkingPhrase <https://www.cdisc.org/cosmos/sdtm_v1.0/LinkingPhraseEnum#is%20original%20text%20for> ;
    cosmos_sdtm:object "SUDECOD" ;
    cosmos_sdtm:predicateTerm <https://www.cdisc.org/cosmos/sdtm_v1.0/PredicateTermEnum#IS_ORIGINAL_TEXT_FOR> ;
    cosmos_sdtm:subject "SUTRT" .

<https://w3id.org/cdisc/cosmos/dss/SU/PIPEHX/SUCAT/assignedTerm> a cosmos_sdtm:AssignedTerm ;
    cosmos_sdtm:value "TOBACCO" .

<https://w3id.org/cdisc/cosmos/dss/SU/PIPEHX/SUDOSE/relationship> a cosmos_sdtm:RelationShip ;
    cosmos_sdtm:linkingPhrase <https://www.cdisc.org/cosmos/sdtm_v1.0/LinkingPhraseEnum#is%20the%20administered%20amount%20of%20the%20treatment%20in> ;
    cosmos_sdtm:object "SUTRT" ;
    cosmos_sdtm:predicateTerm <https://www.cdisc.org/cosmos/sdtm_v1.0/PredicateTermEnum#IS_ATTRIBUTE_FOR> ;
    cosmos_sdtm:subject "SUDOSE" .

<https://w3id.org/cdisc/cosmos/dss/SU/PIPEHX/SUDOSFRQ/relationship> a cosmos_sdtm:RelationShip ;
    cosmos_sdtm:linkingPhrase <https://www.cdisc.org/cosmos/sdtm_v1.0/LinkingPhraseEnum#is%20the%20frequency%20of%20administration%20of%20the%20amount%20in> ;
    cosmos_sdtm:object "SUTRT" ;
    cosmos_sdtm:predicateTerm <https://www.cdisc.org/cosmos/sdtm_v1.0/PredicateTermEnum#SPECIFIES> ;
    cosmos_sdtm:subject "SUDOSFRQ" .

<https://w3id.org/cdisc/cosmos/dss/SU/PIPEHX/SUDOSTXT/relationship> a cosmos_sdtm:RelationShip ;
    cosmos_sdtm:linkingPhrase <https://www.cdisc.org/cosmos/sdtm_v1.0/LinkingPhraseEnum#is%20the%20administered%20amount%20of%20the%20treatment%20in> ;
    cosmos_sdtm:object "SUTRT" ;
    cosmos_sdtm:predicateTerm <https://www.cdisc.org/cosmos/sdtm_v1.0/PredicateTermEnum#IS_ATTRIBUTE_FOR> ;
    cosmos_sdtm:subject "SUDOSTXT" .

<https://w3id.org/cdisc/cosmos/dss/SU/PIPEHX/SUDOSU/relationship> a cosmos_sdtm:RelationShip ;
    cosmos_sdtm:linkingPhrase <https://www.cdisc.org/cosmos/sdtm_v1.0/LinkingPhraseEnum#is%20the%20unit%20for> ;
    cosmos_sdtm:object "SUTRT" ;
    cosmos_sdtm:predicateTerm <https://www.cdisc.org/cosmos/sdtm_v1.0/PredicateTermEnum#IS_UNIT_FOR> ;
    cosmos_sdtm:subject "SUDOSU" .

<https://w3id.org/cdisc/cosmos/dss/SU/PIPEHX/SUDUR/relationship> a cosmos_sdtm:RelationShip ;
    cosmos_sdtm:linkingPhrase <https://www.cdisc.org/cosmos/sdtm_v1.0/LinkingPhraseEnum#is%20the%20duration%20for> ;
    cosmos_sdtm:object "SUTRT" ;
    cosmos_sdtm:predicateTerm <https://www.cdisc.org/cosmos/sdtm_v1.0/PredicateTermEnum#IS_TIMING_FOR> ;
    cosmos_sdtm:subject "SUDUR" .

<https://w3id.org/cdisc/cosmos/dss/SU/PIPEHX/SUENDTC/relationship> a cosmos_sdtm:RelationShip ;
    cosmos_sdtm:linkingPhrase <https://www.cdisc.org/cosmos/sdtm_v1.0/LinkingPhraseEnum#is%20the%20end%20date%20for> ;
    cosmos_sdtm:object "SUTRT" ;
    cosmos_sdtm:predicateTerm <https://www.cdisc.org/cosmos/sdtm_v1.0/PredicateTermEnum#IS_TIMING_FOR> ;
    cosmos_sdtm:subject "SUENDTC" .

<https://w3id.org/cdisc/cosmos/dss/SU/PIPEHX/SUOCCUR/relationship> a cosmos_sdtm:RelationShip ;
    cosmos_sdtm:linkingPhrase <https://www.cdisc.org/cosmos/sdtm_v1.0/LinkingPhraseEnum#indicates%20occurrence%20of%20the%20value%20in> ;
    cosmos_sdtm:object "SUTRT" ;
    cosmos_sdtm:predicateTerm <https://www.cdisc.org/cosmos/sdtm_v1.0/PredicateTermEnum#IS_INDICATOR_FOR> ;
    cosmos_sdtm:subject "SUOCCUR" .

<https://w3id.org/cdisc/cosmos/dss/SU/PIPEHX/SUPRESP/relationship> a cosmos_sdtm:RelationShip ;
    cosmos_sdtm:linkingPhrase <https://www.cdisc.org/cosmos/sdtm_v1.0/LinkingPhraseEnum#indicates%20pre-specification%20of%20the%20value%20in> ;
    cosmos_sdtm:object "SUTRT" ;
    cosmos_sdtm:predicateTerm <https://www.cdisc.org/cosmos/sdtm_v1.0/PredicateTermEnum#IS_INDICATOR_FOR> ;
    cosmos_sdtm:subject "SUPRESP" .

<https://w3id.org/cdisc/cosmos/dss/SU/PIPEHX/SUSTDTC/relationship> a cosmos_sdtm:RelationShip ;
    cosmos_sdtm:linkingPhrase <https://www.cdisc.org/cosmos/sdtm_v1.0/LinkingPhraseEnum#is%20the%20start%20date%20for> ;
    cosmos_sdtm:object "SUTRT" ;
    cosmos_sdtm:predicateTerm <https://www.cdisc.org/cosmos/sdtm_v1.0/PredicateTermEnum#IS_TIMING_FOR> ;
    cosmos_sdtm:subject "SUSTDTC" .

<https://w3id.org/cdisc/cosmos/dss/SU/PIPEHX/SUTRT/assignedTerm> a cosmos_sdtm:AssignedTerm ;
    cosmos_sdtm:value "PIPE" .

<https://w3id.org/cdisc/cosmos/dss/SU/PIPEHX/SUTRT/relationship> a cosmos_sdtm:RelationShip ;
    cosmos_sdtm:linkingPhrase <https://www.cdisc.org/cosmos/sdtm_v1.0/LinkingPhraseEnum#is%20original%20text%20for> ;
    cosmos_sdtm:object "SUDECOD" ;
    cosmos_sdtm:predicateTerm <https://www.cdisc.org/cosmos/sdtm_v1.0/PredicateTermEnum#IS_ORIGINAL_TEXT_FOR> ;
    cosmos_sdtm:subject "SUTRT" .

<https://w3id.org/cdisc/cosmos/dss/SU/TEAHIX/SUCAT/assignedTerm> a cosmos_sdtm:AssignedTerm ;
    cosmos_sdtm:value "CAFFEINE" .

<https://w3id.org/cdisc/cosmos/dss/SU/TEAHIX/SUDOSE/relationship> a cosmos_sdtm:RelationShip ;
    cosmos_sdtm:linkingPhrase <https://www.cdisc.org/cosmos/sdtm_v1.0/LinkingPhraseEnum#is%20the%20administered%20amount%20of%20the%20treatment%20in> ;
    cosmos_sdtm:object "SUTRT" ;
    cosmos_sdtm:predicateTerm <https://www.cdisc.org/cosmos/sdtm_v1.0/PredicateTermEnum#IS_ATTRIBUTE_FOR> ;
    cosmos_sdtm:subject "SUDOSE" .

<https://w3id.org/cdisc/cosmos/dss/SU/TEAHIX/SUDOSFRQ/relationship> a cosmos_sdtm:RelationShip ;
    cosmos_sdtm:linkingPhrase <https://www.cdisc.org/cosmos/sdtm_v1.0/LinkingPhraseEnum#is%20the%20frequency%20of%20administration%20of%20the%20amount%20in> ;
    cosmos_sdtm:object "SUTRT" ;
    cosmos_sdtm:predicateTerm <https://www.cdisc.org/cosmos/sdtm_v1.0/PredicateTermEnum#SPECIFIES> ;
    cosmos_sdtm:subject "SUDOSFRQ" .

<https://w3id.org/cdisc/cosmos/dss/SU/TEAHIX/SUDOSTXT/relationship> a cosmos_sdtm:RelationShip ;
    cosmos_sdtm:linkingPhrase <https://www.cdisc.org/cosmos/sdtm_v1.0/LinkingPhraseEnum#is%20the%20administered%20amount%20of%20the%20treatment%20in> ;
    cosmos_sdtm:object "SUTRT" ;
    cosmos_sdtm:predicateTerm <https://www.cdisc.org/cosmos/sdtm_v1.0/PredicateTermEnum#IS_ATTRIBUTE_FOR> ;
    cosmos_sdtm:subject "SUDOSTXT" .

<https://w3id.org/cdisc/cosmos/dss/SU/TEAHIX/SUDOSU/relationship> a cosmos_sdtm:RelationShip ;
    cosmos_sdtm:linkingPhrase <https://www.cdisc.org/cosmos/sdtm_v1.0/LinkingPhraseEnum#is%20the%20unit%20for> ;
    cosmos_sdtm:object "SUTRT" ;
    cosmos_sdtm:predicateTerm <https://www.cdisc.org/cosmos/sdtm_v1.0/PredicateTermEnum#IS_UNIT_FOR> ;
    cosmos_sdtm:subject "SUDOSU" .

<https://w3id.org/cdisc/cosmos/dss/SU/TEAHIX/SUENDTC/relationship> a cosmos_sdtm:RelationShip ;
    cosmos_sdtm:linkingPhrase <https://www.cdisc.org/cosmos/sdtm_v1.0/LinkingPhraseEnum#is%20the%20end%20date%20for> ;
    cosmos_sdtm:object "SUTRT" ;
    cosmos_sdtm:predicateTerm <https://www.cdisc.org/cosmos/sdtm_v1.0/PredicateTermEnum#IS_TIMING_FOR> ;
    cosmos_sdtm:subject "SUENDTC" .

<https://w3id.org/cdisc/cosmos/dss/SU/TEAHIX/SUOCCUR/relationship> a cosmos_sdtm:RelationShip ;
    cosmos_sdtm:linkingPhrase <https://www.cdisc.org/cosmos/sdtm_v1.0/LinkingPhraseEnum#indicates%20occurrence%20of%20the%20value%20in> ;
    cosmos_sdtm:object "SUTRT" ;
    cosmos_sdtm:predicateTerm <https://www.cdisc.org/cosmos/sdtm_v1.0/PredicateTermEnum#IS_INDICATOR_FOR> ;
    cosmos_sdtm:subject "SUOCCUR" .

<https://w3id.org/cdisc/cosmos/dss/SU/TEAHIX/SUPRESP/relationship> a cosmos_sdtm:RelationShip ;
    cosmos_sdtm:linkingPhrase <https://www.cdisc.org/cosmos/sdtm_v1.0/LinkingPhraseEnum#indicates%20pre-specification%20of%20the%20value%20in> ;
    cosmos_sdtm:object "SUTRT" ;
    cosmos_sdtm:predicateTerm <https://www.cdisc.org/cosmos/sdtm_v1.0/PredicateTermEnum#IS_INDICATOR_FOR> ;
    cosmos_sdtm:subject "SUPRESP" .

<https://w3id.org/cdisc/cosmos/dss/SU/TEAHIX/SUSTDTC/relationship> a cosmos_sdtm:RelationShip ;
    cosmos_sdtm:linkingPhrase <https://www.cdisc.org/cosmos/sdtm_v1.0/LinkingPhraseEnum#is%20the%20start%20date%20for> ;
    cosmos_sdtm:object "SUTRT" ;
    cosmos_sdtm:predicateTerm <https://www.cdisc.org/cosmos/sdtm_v1.0/PredicateTermEnum#IS_TIMING_FOR> ;
    cosmos_sdtm:subject "SUSTDTC" .

<https://w3id.org/cdisc/cosmos/dss/SU/TEAHIX/SUTRT/assignedTerm> a cosmos_sdtm:AssignedTerm ;
    cosmos_sdtm:value "TEA" .

<https://w3id.org/cdisc/cosmos/dss/SU/TEAHIX/SUTRT/relationship> a cosmos_sdtm:RelationShip ;
    cosmos_sdtm:linkingPhrase <https://www.cdisc.org/cosmos/sdtm_v1.0/LinkingPhraseEnum#is%20original%20text%20for> ;
    cosmos_sdtm:object "SUDECOD" ;
    cosmos_sdtm:predicateTerm <https://www.cdisc.org/cosmos/sdtm_v1.0/PredicateTermEnum#IS_ORIGINAL_TEXT_FOR> ;
    cosmos_sdtm:subject "SUTRT" .

<https://w3id.org/cdisc/cosmos/dss/SU/TOBACCOHX/SUCAT/assignedTerm> a cosmos_sdtm:AssignedTerm ;
    cosmos_sdtm:value "TOBACCO" .

<https://w3id.org/cdisc/cosmos/dss/SU/TOBACCOHX/SUDOSE/relationship> a cosmos_sdtm:RelationShip ;
    cosmos_sdtm:linkingPhrase <https://www.cdisc.org/cosmos/sdtm_v1.0/LinkingPhraseEnum#is%20the%20administered%20amount%20of%20the%20treatment%20in> ;
    cosmos_sdtm:object "SUTRT" ;
    cosmos_sdtm:predicateTerm <https://www.cdisc.org/cosmos/sdtm_v1.0/PredicateTermEnum#IS_ATTRIBUTE_FOR> ;
    cosmos_sdtm:subject "SUDOSE" .

<https://w3id.org/cdisc/cosmos/dss/SU/TOBACCOHX/SUDOSFRQ/relationship> a cosmos_sdtm:RelationShip ;
    cosmos_sdtm:linkingPhrase <https://www.cdisc.org/cosmos/sdtm_v1.0/LinkingPhraseEnum#is%20the%20frequency%20of%20administration%20of%20the%20amount%20in> ;
    cosmos_sdtm:object "SUTRT" ;
    cosmos_sdtm:predicateTerm <https://www.cdisc.org/cosmos/sdtm_v1.0/PredicateTermEnum#SPECIFIES> ;
    cosmos_sdtm:subject "SUDOSFRQ" .

<https://w3id.org/cdisc/cosmos/dss/SU/TOBACCOHX/SUDOSTXT/relationship> a cosmos_sdtm:RelationShip ;
    cosmos_sdtm:linkingPhrase <https://www.cdisc.org/cosmos/sdtm_v1.0/LinkingPhraseEnum#is%20the%20administered%20amount%20of%20the%20treatment%20in> ;
    cosmos_sdtm:object "SUTRT" ;
    cosmos_sdtm:predicateTerm <https://www.cdisc.org/cosmos/sdtm_v1.0/PredicateTermEnum#IS_ATTRIBUTE_FOR> ;
    cosmos_sdtm:subject "SUDOSTXT" .

<https://w3id.org/cdisc/cosmos/dss/SU/TOBACCOHX/SUDOSU/relationship> a cosmos_sdtm:RelationShip ;
    cosmos_sdtm:linkingPhrase <https://www.cdisc.org/cosmos/sdtm_v1.0/LinkingPhraseEnum#is%20the%20unit%20for> ;
    cosmos_sdtm:object "SUTRT" ;
    cosmos_sdtm:predicateTerm <https://www.cdisc.org/cosmos/sdtm_v1.0/PredicateTermEnum#IS_UNIT_FOR> ;
    cosmos_sdtm:subject "SUDOSU" .

<https://w3id.org/cdisc/cosmos/dss/SU/TOBACCOHX/SUDUR/relationship> a cosmos_sdtm:RelationShip ;
    cosmos_sdtm:linkingPhrase <https://www.cdisc.org/cosmos/sdtm_v1.0/LinkingPhraseEnum#is%20the%20duration%20for> ;
    cosmos_sdtm:object "SUTRT" ;
    cosmos_sdtm:predicateTerm <https://www.cdisc.org/cosmos/sdtm_v1.0/PredicateTermEnum#IS_TIMING_FOR> ;
    cosmos_sdtm:subject "SUDUR" .

<https://w3id.org/cdisc/cosmos/dss/SU/TOBACCOHX/SUENDTC/relationship> a cosmos_sdtm:RelationShip ;
    cosmos_sdtm:linkingPhrase <https://www.cdisc.org/cosmos/sdtm_v1.0/LinkingPhraseEnum#is%20the%20end%20date%20for> ;
    cosmos_sdtm:object "SUTRT" ;
    cosmos_sdtm:predicateTerm <https://www.cdisc.org/cosmos/sdtm_v1.0/PredicateTermEnum#IS_TIMING_FOR> ;
    cosmos_sdtm:subject "SUENDTC" .

<https://w3id.org/cdisc/cosmos/dss/SU/TOBACCOHX/SUOCCUR/relationship> a cosmos_sdtm:RelationShip ;
    cosmos_sdtm:linkingPhrase <https://www.cdisc.org/cosmos/sdtm_v1.0/LinkingPhraseEnum#indicates%20occurrence%20of%20the%20value%20in> ;
    cosmos_sdtm:object "SUTRT" ;
    cosmos_sdtm:predicateTerm <https://www.cdisc.org/cosmos/sdtm_v1.0/PredicateTermEnum#IS_INDICATOR_FOR> ;
    cosmos_sdtm:subject "SUOCCUR" .

<https://w3id.org/cdisc/cosmos/dss/SU/TOBACCOHX/SUPRESP/relationship> a cosmos_sdtm:RelationShip ;
    cosmos_sdtm:linkingPhrase <https://www.cdisc.org/cosmos/sdtm_v1.0/LinkingPhraseEnum#indicates%20pre-specification%20of%20the%20value%20in> ;
    cosmos_sdtm:object "SUTRT" ;
    cosmos_sdtm:predicateTerm <https://www.cdisc.org/cosmos/sdtm_v1.0/PredicateTermEnum#IS_INDICATOR_FOR> ;
    cosmos_sdtm:subject "SUPRESP" .

<https://w3id.org/cdisc/cosmos/dss/SU/TOBACCOHX/SUSTDTC/relationship> a cosmos_sdtm:RelationShip ;
    cosmos_sdtm:linkingPhrase <https://www.cdisc.org/cosmos/sdtm_v1.0/LinkingPhraseEnum#is%20the%20start%20date%20for> ;
    cosmos_sdtm:object "SUTRT" ;
    cosmos_sdtm:predicateTerm <https://www.cdisc.org/cosmos/sdtm_v1.0/PredicateTermEnum#IS_TIMING_FOR> ;
    cosmos_sdtm:subject "SUSTDTC" .

<https://w3id.org/cdisc/cosmos/dss/SU/TOBACCOHX/SUTRT/assignedTerm> a cosmos_sdtm:AssignedTerm ;
    cosmos_sdtm:value "TOBACCO PRODUCT" .

<https://w3id.org/cdisc/cosmos/dss/SU/TOBACCOHX/SUTRT/relationship> a cosmos_sdtm:RelationShip ;
    cosmos_sdtm:linkingPhrase <https://www.cdisc.org/cosmos/sdtm_v1.0/LinkingPhraseEnum#is%20original%20text%20for> ;
    cosmos_sdtm:object "SUDECOD" ;
    cosmos_sdtm:predicateTerm <https://www.cdisc.org/cosmos/sdtm_v1.0/PredicateTermEnum#IS_ORIGINAL_TEXT_FOR> ;
    cosmos_sdtm:subject "SUTRT" .

<https://w3id.org/cdisc/cosmos/dss/SU/WINEHX/SUCAT/assignedTerm> a cosmos_sdtm:AssignedTerm ;
    cosmos_sdtm:value "ALCOHOL" .

<https://w3id.org/cdisc/cosmos/dss/SU/WINEHX/SUDOSE/relationship> a cosmos_sdtm:RelationShip ;
    cosmos_sdtm:linkingPhrase <https://www.cdisc.org/cosmos/sdtm_v1.0/LinkingPhraseEnum#is%20the%20administered%20amount%20of%20the%20treatment%20in> ;
    cosmos_sdtm:object "SUTRT" ;
    cosmos_sdtm:predicateTerm <https://www.cdisc.org/cosmos/sdtm_v1.0/PredicateTermEnum#IS_ATTRIBUTE_FOR> ;
    cosmos_sdtm:subject "SUDOSE" .

<https://w3id.org/cdisc/cosmos/dss/SU/WINEHX/SUDOSFRQ/relationship> a cosmos_sdtm:RelationShip ;
    cosmos_sdtm:linkingPhrase <https://www.cdisc.org/cosmos/sdtm_v1.0/LinkingPhraseEnum#is%20the%20frequency%20of%20administration%20of%20the%20amount%20in> ;
    cosmos_sdtm:object "SUTRT" ;
    cosmos_sdtm:predicateTerm <https://www.cdisc.org/cosmos/sdtm_v1.0/PredicateTermEnum#SPECIFIES> ;
    cosmos_sdtm:subject "SUDOSFRQ" .

<https://w3id.org/cdisc/cosmos/dss/SU/WINEHX/SUDOSTXT/relationship> a cosmos_sdtm:RelationShip ;
    cosmos_sdtm:linkingPhrase <https://www.cdisc.org/cosmos/sdtm_v1.0/LinkingPhraseEnum#is%20the%20administered%20amount%20of%20the%20treatment%20in> ;
    cosmos_sdtm:object "SUTRT" ;
    cosmos_sdtm:predicateTerm <https://www.cdisc.org/cosmos/sdtm_v1.0/PredicateTermEnum#IS_ATTRIBUTE_FOR> ;
    cosmos_sdtm:subject "SUDOSTXT" .

<https://w3id.org/cdisc/cosmos/dss/SU/WINEHX/SUDOSU/relationship> a cosmos_sdtm:RelationShip ;
    cosmos_sdtm:linkingPhrase <https://www.cdisc.org/cosmos/sdtm_v1.0/LinkingPhraseEnum#is%20the%20unit%20for> ;
    cosmos_sdtm:object "SUTRT" ;
    cosmos_sdtm:predicateTerm <https://www.cdisc.org/cosmos/sdtm_v1.0/PredicateTermEnum#IS_UNIT_FOR> ;
    cosmos_sdtm:subject "SUDOSU" .

<https://w3id.org/cdisc/cosmos/dss/SU/WINEHX/SUENDTC/relationship> a cosmos_sdtm:RelationShip ;
    cosmos_sdtm:linkingPhrase <https://www.cdisc.org/cosmos/sdtm_v1.0/LinkingPhraseEnum#is%20the%20end%20date%20for> ;
    cosmos_sdtm:object "SUTRT" ;
    cosmos_sdtm:predicateTerm <https://www.cdisc.org/cosmos/sdtm_v1.0/PredicateTermEnum#IS_TIMING_FOR> ;
    cosmos_sdtm:subject "SUENDTC" .

<https://w3id.org/cdisc/cosmos/dss/SU/WINEHX/SUOCCUR/relationship> a cosmos_sdtm:RelationShip ;
    cosmos_sdtm:linkingPhrase <https://www.cdisc.org/cosmos/sdtm_v1.0/LinkingPhraseEnum#indicates%20occurrence%20of%20the%20value%20in> ;
    cosmos_sdtm:object "SUTRT" ;
    cosmos_sdtm:predicateTerm <https://www.cdisc.org/cosmos/sdtm_v1.0/PredicateTermEnum#IS_INDICATOR_FOR> ;
    cosmos_sdtm:subject "SUOCCUR" .

<https://w3id.org/cdisc/cosmos/dss/SU/WINEHX/SUPRESP/relationship> a cosmos_sdtm:RelationShip ;
    cosmos_sdtm:linkingPhrase <https://www.cdisc.org/cosmos/sdtm_v1.0/LinkingPhraseEnum#indicates%20pre-specification%20of%20the%20value%20in> ;
    cosmos_sdtm:object "SUTRT" ;
    cosmos_sdtm:predicateTerm <https://www.cdisc.org/cosmos/sdtm_v1.0/PredicateTermEnum#IS_INDICATOR_FOR> ;
    cosmos_sdtm:subject "SUPRESP" .

<https://w3id.org/cdisc/cosmos/dss/SU/WINEHX/SUSTDTC/relationship> a cosmos_sdtm:RelationShip ;
    cosmos_sdtm:linkingPhrase <https://www.cdisc.org/cosmos/sdtm_v1.0/LinkingPhraseEnum#is%20the%20start%20date%20for> ;
    cosmos_sdtm:object "SUTRT" ;
    cosmos_sdtm:predicateTerm <https://www.cdisc.org/cosmos/sdtm_v1.0/PredicateTermEnum#IS_TIMING_FOR> ;
    cosmos_sdtm:subject "SUSTDTC" .

<https://w3id.org/cdisc/cosmos/dss/SU/WINEHX/SUTRT/assignedTerm> a cosmos_sdtm:AssignedTerm ;
    cosmos_sdtm:value "WINE" .

<https://w3id.org/cdisc/cosmos/dss/SU/WINEHX/SUTRT/relationship> a cosmos_sdtm:RelationShip ;
    cosmos_sdtm:linkingPhrase <https://www.cdisc.org/cosmos/sdtm_v1.0/LinkingPhraseEnum#is%20original%20text%20for> ;
    cosmos_sdtm:object "SUDECOD" ;
    cosmos_sdtm:predicateTerm <https://www.cdisc.org/cosmos/sdtm_v1.0/PredicateTermEnum#IS_ORIGINAL_TEXT_FOR> ;
    cosmos_sdtm:subject "SUTRT" .

<https://w3id.org/cdisc/cosmos/dss/SU/ALCOHOLHX/SUCAT> a cosmos_sdtm:SDTMVariable ;
    cosmos_sdtm:assignedTerm <https://w3id.org/cdisc/cosmos/dss/SU/ALCOHOLHX/SUCAT/assignedTerm> ;
    cosmos_sdtm:dataElementConceptId NCIT:C25372 ;
    cosmos_sdtm:dataType <https://www.cdisc.org/cosmos/sdtm_v1.0/SDTMVariableDataTypeEnum#text> ;
    cosmos_sdtm:isNonStandard false ;
    cosmos_sdtm:length 200 ;
    cosmos_sdtm:mandatoryValue false ;
    cosmos_sdtm:mandatoryVariable false ;
    cosmos_sdtm:name "SUCAT" ;
    cosmos_sdtm:originSource NCIT:C70793 ;
    cosmos_sdtm:originType NCIT:C170547 ;
    cosmos_sdtm:role <https://www.cdisc.org/cosmos/sdtm_v1.0/RoleEnum#Qualifier> .

<https://w3id.org/cdisc/cosmos/dss/SU/ALCOHOLHX/SUDOSE> a cosmos_sdtm:SDTMVariable ;
    cosmos_sdtm:dataElementConceptId NCIT:C83416 ;
    cosmos_sdtm:dataType <https://www.cdisc.org/cosmos/sdtm_v1.0/SDTMVariableDataTypeEnum#float> ;
    cosmos_sdtm:format "12.4" ;
    cosmos_sdtm:isNonStandard false ;
    cosmos_sdtm:length 12 ;
    cosmos_sdtm:mandatoryValue false ;
    cosmos_sdtm:mandatoryVariable false ;
    cosmos_sdtm:name "SUDOSE" ;
    cosmos_sdtm:originSource NCIT:C25936 ;
    cosmos_sdtm:originType NCIT:C170548 ;
    cosmos_sdtm:relationship <https://w3id.org/cdisc/cosmos/dss/SU/ALCOHOLHX/SUDOSE/relationship> ;
    cosmos_sdtm:role <https://www.cdisc.org/cosmos/sdtm_v1.0/RoleEnum#Qualifier> ;
    cosmos_sdtm:significantDigits 4 .

<https://w3id.org/cdisc/cosmos/dss/SU/ALCOHOLHX/SUDOSFRQ> a cosmos_sdtm:SDTMVariable ;
    cosmos_sdtm:codelist NCIT:C71113 ;
    cosmos_sdtm:dataElementConceptId NCIT:C83044 ;
    cosmos_sdtm:dataType <https://www.cdisc.org/cosmos/sdtm_v1.0/SDTMVariableDataTypeEnum#text> ;
    cosmos_sdtm:isNonStandard false ;
    cosmos_sdtm:length 40 ;
    cosmos_sdtm:mandatoryValue false ;
    cosmos_sdtm:mandatoryVariable false ;
    cosmos_sdtm:name "SUDOSFRQ" ;
    cosmos_sdtm:originSource NCIT:C25936 ;
    cosmos_sdtm:originType NCIT:C170548 ;
    cosmos_sdtm:relationship <https://w3id.org/cdisc/cosmos/dss/SU/ALCOHOLHX/SUDOSFRQ/relationship> ;
    cosmos_sdtm:role <https://www.cdisc.org/cosmos/sdtm_v1.0/RoleEnum#Qualifier> ;
    cosmos_sdtm:valueList "Q7D",
        "QD" .

<https://w3id.org/cdisc/cosmos/dss/SU/ALCOHOLHX/SUDOSTXT> a cosmos_sdtm:SDTMVariable ;
    cosmos_sdtm:dataElementConceptId NCIT:C83041 ;
    cosmos_sdtm:dataType <https://www.cdisc.org/cosmos/sdtm_v1.0/SDTMVariableDataTypeEnum#text> ;
    cosmos_sdtm:isNonStandard false ;
    cosmos_sdtm:length 40 ;
    cosmos_sdtm:mandatoryValue false ;
    cosmos_sdtm:mandatoryVariable false ;
    cosmos_sdtm:name "SUDOSTXT" ;
    cosmos_sdtm:originSource NCIT:C25936 ;
    cosmos_sdtm:originType NCIT:C170548 ;
    cosmos_sdtm:relationship <https://w3id.org/cdisc/cosmos/dss/SU/ALCOHOLHX/SUDOSTXT/relationship> ;
    cosmos_sdtm:role <https://www.cdisc.org/cosmos/sdtm_v1.0/RoleEnum#Qualifier> .

<https://w3id.org/cdisc/cosmos/dss/SU/ALCOHOLHX/SUDOSU> a cosmos_sdtm:SDTMVariable ;
    cosmos_sdtm:codelist NCIT:C71620 ;
    cosmos_sdtm:dataElementConceptId NCIT:C83038 ;
    cosmos_sdtm:dataType <https://www.cdisc.org/cosmos/sdtm_v1.0/SDTMVariableDataTypeEnum#text> ;
    cosmos_sdtm:isNonStandard false ;
    cosmos_sdtm:length 40 ;
    cosmos_sdtm:mandatoryValue false ;
    cosmos_sdtm:mandatoryVariable false ;
    cosmos_sdtm:name "SUDOSU" ;
    cosmos_sdtm:originSource NCIT:C25936 ;
    cosmos_sdtm:originType NCIT:C170548 ;
    cosmos_sdtm:relationship <https://w3id.org/cdisc/cosmos/dss/SU/ALCOHOLHX/SUDOSU/relationship> ;
    cosmos_sdtm:role <https://www.cdisc.org/cosmos/sdtm_v1.0/RoleEnum#Qualifier> ;
    cosmos_sdtm:valueList "DRINK",
        "GLASS",
        "L",
        "mL",
        "oz" .

<https://w3id.org/cdisc/cosmos/dss/SU/ALCOHOLHX/SUENDTC> a cosmos_sdtm:SDTMVariable ;
    cosmos_sdtm:dataElementConceptId NCIT:C83419 ;
    cosmos_sdtm:dataType <https://www.cdisc.org/cosmos/sdtm_v1.0/SDTMVariableDataTypeEnum#datetime> ;
    cosmos_sdtm:isNonStandard false ;
    cosmos_sdtm:mandatoryValue false ;
    cosmos_sdtm:mandatoryVariable false ;
    cosmos_sdtm:name "SUENDTC" ;
    cosmos_sdtm:originSource NCIT:C25936 ;
    cosmos_sdtm:originType NCIT:C170548 ;
    cosmos_sdtm:relationship <https://w3id.org/cdisc/cosmos/dss/SU/ALCOHOLHX/SUENDTC/relationship> ;
    cosmos_sdtm:role <https://www.cdisc.org/cosmos/sdtm_v1.0/RoleEnum#Timing> .

<https://w3id.org/cdisc/cosmos/dss/SU/ALCOHOLHX/SUENRF> a cosmos_sdtm:SDTMVariable ;
    cosmos_sdtm:codelist NCIT:C66728 ;
    cosmos_sdtm:dataElementConceptId NCIT:C82557 ;
    cosmos_sdtm:dataType <https://www.cdisc.org/cosmos/sdtm_v1.0/SDTMVariableDataTypeEnum#text> ;
    cosmos_sdtm:isNonStandard false ;
    cosmos_sdtm:length 20 ;
    cosmos_sdtm:mandatoryValue false ;
    cosmos_sdtm:mandatoryVariable false ;
    cosmos_sdtm:name "SUENRF" ;
    cosmos_sdtm:originSource NCIT:C70793 ;
    cosmos_sdtm:originType NCIT:C170547 ;
    cosmos_sdtm:role <https://www.cdisc.org/cosmos/sdtm_v1.0/RoleEnum#Timing> ;
    cosmos_sdtm:valueList "AFTER",
        "BEFORE",
        "DURING",
        "DURING/AFTER",
        "UNKNOWN" .

<https://w3id.org/cdisc/cosmos/dss/SU/ALCOHOLHX/SUENRTPT> a cosmos_sdtm:SDTMVariable ;
    cosmos_sdtm:codelist NCIT:C66728 ;
    cosmos_sdtm:dataElementConceptId NCIT:C82558 ;
    cosmos_sdtm:dataType <https://www.cdisc.org/cosmos/sdtm_v1.0/SDTMVariableDataTypeEnum#text> ;
    cosmos_sdtm:isNonStandard false ;
    cosmos_sdtm:length 20 ;
    cosmos_sdtm:mandatoryValue false ;
    cosmos_sdtm:mandatoryVariable false ;
    cosmos_sdtm:name "SUENRTPT" ;
    cosmos_sdtm:originSource NCIT:C70793 ;
    cosmos_sdtm:originType NCIT:C170547 ;
    cosmos_sdtm:role <https://www.cdisc.org/cosmos/sdtm_v1.0/RoleEnum#Timing> ;
    cosmos_sdtm:valueList "AFTER",
        "BEFORE",
        "COINCIDENT",
        "ONGOING",
        "UNKNOWN" .

<https://w3id.org/cdisc/cosmos/dss/SU/ALCOHOLHX/SUENTPT> a cosmos_sdtm:SDTMVariable ;
    cosmos_sdtm:dataElementConceptId NCIT:C82574 ;
    cosmos_sdtm:dataType <https://www.cdisc.org/cosmos/sdtm_v1.0/SDTMVariableDataTypeEnum#text> ;
    cosmos_sdtm:isNonStandard false ;
    cosmos_sdtm:length 20 ;
    cosmos_sdtm:mandatoryValue false ;
    cosmos_sdtm:mandatoryVariable false ;
    cosmos_sdtm:name "SUENTPT" ;
    cosmos_sdtm:originSource NCIT:C70793 ;
    cosmos_sdtm:originType NCIT:C170547 ;
    cosmos_sdtm:role <https://www.cdisc.org/cosmos/sdtm_v1.0/RoleEnum#Timing> .

<https://w3id.org/cdisc/cosmos/dss/SU/ALCOHOLHX/SUOCCUR> a cosmos_sdtm:SDTMVariable ;
    cosmos_sdtm:codelist NCIT:C66742 ;
    cosmos_sdtm:dataElementConceptId NCIT:C127786 ;
    cosmos_sdtm:dataType <https://www.cdisc.org/cosmos/sdtm_v1.0/SDTMVariableDataTypeEnum#text> ;
    cosmos_sdtm:isNonStandard false ;
    cosmos_sdtm:length 1 ;
    cosmos_sdtm:mandatoryValue false ;
    cosmos_sdtm:mandatoryVariable false ;
    cosmos_sdtm:name "SUOCCUR" ;
    cosmos_sdtm:originSource NCIT:C25936 ;
    cosmos_sdtm:originType NCIT:C170548 ;
    cosmos_sdtm:relationship <https://w3id.org/cdisc/cosmos/dss/SU/ALCOHOLHX/SUOCCUR/relationship> ;
    cosmos_sdtm:role <https://www.cdisc.org/cosmos/sdtm_v1.0/RoleEnum#Qualifier> ;
    cosmos_sdtm:subsetCodelist "NY_NY" ;
    cosmos_sdtm:valueList "N",
        "Y" .

<https://w3id.org/cdisc/cosmos/dss/SU/ALCOHOLHX/SUPRESP> a cosmos_sdtm:SDTMVariable ;
    cosmos_sdtm:codelist NCIT:C66742 ;
    cosmos_sdtm:dataElementConceptId NCIT:C171000 ;
    cosmos_sdtm:dataType <https://www.cdisc.org/cosmos/sdtm_v1.0/SDTMVariableDataTypeEnum#text> ;
    cosmos_sdtm:isNonStandard false ;
    cosmos_sdtm:length 1 ;
    cosmos_sdtm:mandatoryValue false ;
    cosmos_sdtm:mandatoryVariable false ;
    cosmos_sdtm:name "SUPRESP" ;
    cosmos_sdtm:originSource NCIT:C70793 ;
    cosmos_sdtm:originType NCIT:C170547 ;
    cosmos_sdtm:relationship <https://w3id.org/cdisc/cosmos/dss/SU/ALCOHOLHX/SUPRESP/relationship> ;
    cosmos_sdtm:role <https://www.cdisc.org/cosmos/sdtm_v1.0/RoleEnum#Qualifier> ;
    cosmos_sdtm:subsetCodelist "NY_Y" ;
    cosmos_sdtm:valueList "Y" .

<https://w3id.org/cdisc/cosmos/dss/SU/ALCOHOLHX/SUSCAT> a cosmos_sdtm:SDTMVariable ;
    cosmos_sdtm:dataElementConceptId NCIT:C25692 ;
    cosmos_sdtm:dataType <https://www.cdisc.org/cosmos/sdtm_v1.0/SDTMVariableDataTypeEnum#text> ;
    cosmos_sdtm:isNonStandard false ;
    cosmos_sdtm:length 200 ;
    cosmos_sdtm:mandatoryValue false ;
    cosmos_sdtm:mandatoryVariable false ;
    cosmos_sdtm:name "SUSCAT" ;
    cosmos_sdtm:originSource NCIT:C70793 ;
    cosmos_sdtm:originType NCIT:C170547 ;
    cosmos_sdtm:role <https://www.cdisc.org/cosmos/sdtm_v1.0/RoleEnum#Qualifier> ;
    cosmos_sdtm:valueList "BEER",
        "DISTILLED SPIRITS",
        "WINE" .

<https://w3id.org/cdisc/cosmos/dss/SU/ALCOHOLHX/SUSTDTC> a cosmos_sdtm:SDTMVariable ;
    cosmos_sdtm:dataElementConceptId NCIT:C83431 ;
    cosmos_sdtm:dataType <https://www.cdisc.org/cosmos/sdtm_v1.0/SDTMVariableDataTypeEnum#datetime> ;
    cosmos_sdtm:isNonStandard false ;
    cosmos_sdtm:mandatoryValue false ;
    cosmos_sdtm:mandatoryVariable false ;
    cosmos_sdtm:name "SUSTDTC" ;
    cosmos_sdtm:originSource NCIT:C25936 ;
    cosmos_sdtm:originType NCIT:C170548 ;
    cosmos_sdtm:relationship <https://w3id.org/cdisc/cosmos/dss/SU/ALCOHOLHX/SUSTDTC/relationship> ;
    cosmos_sdtm:role <https://www.cdisc.org/cosmos/sdtm_v1.0/RoleEnum#Timing> .

<https://w3id.org/cdisc/cosmos/dss/SU/ALCOHOLHX/SUSTRF> a cosmos_sdtm:SDTMVariable ;
    cosmos_sdtm:codelist NCIT:C66728 ;
    cosmos_sdtm:dataElementConceptId NCIT:C82559 ;
    cosmos_sdtm:dataType <https://www.cdisc.org/cosmos/sdtm_v1.0/SDTMVariableDataTypeEnum#text> ;
    cosmos_sdtm:isNonStandard false ;
    cosmos_sdtm:length 20 ;
    cosmos_sdtm:mandatoryValue false ;
    cosmos_sdtm:mandatoryVariable false ;
    cosmos_sdtm:name "SUSTRF" ;
    cosmos_sdtm:originSource NCIT:C70793 ;
    cosmos_sdtm:originType NCIT:C170547 ;
    cosmos_sdtm:role <https://www.cdisc.org/cosmos/sdtm_v1.0/RoleEnum#Timing> ;
    cosmos_sdtm:valueList "AFTER",
        "BEFORE",
        "DURING",
        "DURING/AFTER",
        "UNKNOWN" .

<https://w3id.org/cdisc/cosmos/dss/SU/ALCOHOLHX/SUSTRTPT> a cosmos_sdtm:SDTMVariable ;
    cosmos_sdtm:codelist NCIT:C66728 ;
    cosmos_sdtm:dataElementConceptId NCIT:C82560 ;
    cosmos_sdtm:dataType <https://www.cdisc.org/cosmos/sdtm_v1.0/SDTMVariableDataTypeEnum#text> ;
    cosmos_sdtm:isNonStandard false ;
    cosmos_sdtm:length 20 ;
    cosmos_sdtm:mandatoryValue false ;
    cosmos_sdtm:mandatoryVariable false ;
    cosmos_sdtm:name "SUSTRTPT" ;
    cosmos_sdtm:originSource NCIT:C70793 ;
    cosmos_sdtm:originType NCIT:C170547 ;
    cosmos_sdtm:role <https://www.cdisc.org/cosmos/sdtm_v1.0/RoleEnum#Timing> ;
    cosmos_sdtm:valueList "AFTER",
        "BEFORE",
        "COINCIDENT",
        "ONGOING",
        "UNKNOWN" .

<https://w3id.org/cdisc/cosmos/dss/SU/ALCOHOLHX/SUSTTPT> a cosmos_sdtm:SDTMVariable ;
    cosmos_sdtm:dataElementConceptId NCIT:C82575 ;
    cosmos_sdtm:dataType <https://www.cdisc.org/cosmos/sdtm_v1.0/SDTMVariableDataTypeEnum#text> ;
    cosmos_sdtm:isNonStandard false ;
    cosmos_sdtm:length 20 ;
    cosmos_sdtm:mandatoryValue false ;
    cosmos_sdtm:mandatoryVariable false ;
    cosmos_sdtm:name "SUSTTPT" ;
    cosmos_sdtm:originSource NCIT:C70793 ;
    cosmos_sdtm:originType NCIT:C170547 ;
    cosmos_sdtm:role <https://www.cdisc.org/cosmos/sdtm_v1.0/RoleEnum#Timing> .

<https://w3id.org/cdisc/cosmos/dss/SU/ALCOHOLHX/SUTRT> a cosmos_sdtm:SDTMVariable ;
    cosmos_sdtm:assignedTerm <https://w3id.org/cdisc/cosmos/dss/SU/ALCOHOLHX/SUTRT/assignedTerm> ;
    cosmos_sdtm:dataElementConceptId NCIT:C83092 ;
    cosmos_sdtm:dataType <https://www.cdisc.org/cosmos/sdtm_v1.0/SDTMVariableDataTypeEnum#text> ;
    cosmos_sdtm:isNonStandard false ;
    cosmos_sdtm:length 200 ;
    cosmos_sdtm:mandatoryValue true ;
    cosmos_sdtm:mandatoryVariable true ;
    cosmos_sdtm:name "SUTRT" ;
    cosmos_sdtm:originSource NCIT:C25936 ;
    cosmos_sdtm:originType NCIT:C170548 ;
    cosmos_sdtm:relationship <https://w3id.org/cdisc/cosmos/dss/SU/ALCOHOLHX/SUTRT/relationship> ;
    cosmos_sdtm:role <https://www.cdisc.org/cosmos/sdtm_v1.0/RoleEnum#Topic> .

<https://w3id.org/cdisc/cosmos/dss/SU/BEERHX/SUCAT> a cosmos_sdtm:SDTMVariable ;
    cosmos_sdtm:assignedTerm <https://w3id.org/cdisc/cosmos/dss/SU/BEERHX/SUCAT/assignedTerm> ;
    cosmos_sdtm:dataElementConceptId NCIT:C25372 ;
    cosmos_sdtm:dataType <https://www.cdisc.org/cosmos/sdtm_v1.0/SDTMVariableDataTypeEnum#text> ;
    cosmos_sdtm:isNonStandard false ;
    cosmos_sdtm:length 200 ;
    cosmos_sdtm:mandatoryValue false ;
    cosmos_sdtm:mandatoryVariable false ;
    cosmos_sdtm:name "SUCAT" ;
    cosmos_sdtm:originSource NCIT:C70793 ;
    cosmos_sdtm:originType NCIT:C170547 ;
    cosmos_sdtm:role <https://www.cdisc.org/cosmos/sdtm_v1.0/RoleEnum#Qualifier> .

<https://w3id.org/cdisc/cosmos/dss/SU/BEERHX/SUDOSE> a cosmos_sdtm:SDTMVariable ;
    cosmos_sdtm:dataElementConceptId NCIT:C83416 ;
    cosmos_sdtm:dataType <https://www.cdisc.org/cosmos/sdtm_v1.0/SDTMVariableDataTypeEnum#float> ;
    cosmos_sdtm:format "12.4" ;
    cosmos_sdtm:isNonStandard false ;
    cosmos_sdtm:length 12 ;
    cosmos_sdtm:mandatoryValue false ;
    cosmos_sdtm:mandatoryVariable false ;
    cosmos_sdtm:name "SUDOSE" ;
    cosmos_sdtm:originSource NCIT:C25936 ;
    cosmos_sdtm:originType NCIT:C170548 ;
    cosmos_sdtm:relationship <https://w3id.org/cdisc/cosmos/dss/SU/BEERHX/SUDOSE/relationship> ;
    cosmos_sdtm:role <https://www.cdisc.org/cosmos/sdtm_v1.0/RoleEnum#Qualifier> ;
    cosmos_sdtm:significantDigits 4 .

<https://w3id.org/cdisc/cosmos/dss/SU/BEERHX/SUDOSFRQ> a cosmos_sdtm:SDTMVariable ;
    cosmos_sdtm:codelist NCIT:C71113 ;
    cosmos_sdtm:dataElementConceptId NCIT:C83044 ;
    cosmos_sdtm:dataType <https://www.cdisc.org/cosmos/sdtm_v1.0/SDTMVariableDataTypeEnum#text> ;
    cosmos_sdtm:isNonStandard false ;
    cosmos_sdtm:length 40 ;
    cosmos_sdtm:mandatoryValue false ;
    cosmos_sdtm:mandatoryVariable false ;
    cosmos_sdtm:name "SUDOSFRQ" ;
    cosmos_sdtm:originSource NCIT:C25936 ;
    cosmos_sdtm:originType NCIT:C170548 ;
    cosmos_sdtm:relationship <https://w3id.org/cdisc/cosmos/dss/SU/BEERHX/SUDOSFRQ/relationship> ;
    cosmos_sdtm:role <https://www.cdisc.org/cosmos/sdtm_v1.0/RoleEnum#Qualifier> ;
    cosmos_sdtm:valueList "Q7D",
        "QD" .

<https://w3id.org/cdisc/cosmos/dss/SU/BEERHX/SUDOSTXT> a cosmos_sdtm:SDTMVariable ;
    cosmos_sdtm:dataElementConceptId NCIT:C83041 ;
    cosmos_sdtm:dataType <https://www.cdisc.org/cosmos/sdtm_v1.0/SDTMVariableDataTypeEnum#text> ;
    cosmos_sdtm:isNonStandard false ;
    cosmos_sdtm:length 40 ;
    cosmos_sdtm:mandatoryValue false ;
    cosmos_sdtm:mandatoryVariable false ;
    cosmos_sdtm:name "SUDOSTXT" ;
    cosmos_sdtm:originSource NCIT:C25936 ;
    cosmos_sdtm:originType NCIT:C170548 ;
    cosmos_sdtm:relationship <https://w3id.org/cdisc/cosmos/dss/SU/BEERHX/SUDOSTXT/relationship> ;
    cosmos_sdtm:role <https://www.cdisc.org/cosmos/sdtm_v1.0/RoleEnum#Qualifier> .

<https://w3id.org/cdisc/cosmos/dss/SU/BEERHX/SUDOSU> a cosmos_sdtm:SDTMVariable ;
    cosmos_sdtm:codelist NCIT:C71620 ;
    cosmos_sdtm:dataElementConceptId NCIT:C83038 ;
    cosmos_sdtm:dataType <https://www.cdisc.org/cosmos/sdtm_v1.0/SDTMVariableDataTypeEnum#text> ;
    cosmos_sdtm:isNonStandard false ;
    cosmos_sdtm:length 40 ;
    cosmos_sdtm:mandatoryValue false ;
    cosmos_sdtm:mandatoryVariable false ;
    cosmos_sdtm:name "SUDOSU" ;
    cosmos_sdtm:originSource NCIT:C25936 ;
    cosmos_sdtm:originType NCIT:C170548 ;
    cosmos_sdtm:relationship <https://w3id.org/cdisc/cosmos/dss/SU/BEERHX/SUDOSU/relationship> ;
    cosmos_sdtm:role <https://www.cdisc.org/cosmos/sdtm_v1.0/RoleEnum#Qualifier> ;
    cosmos_sdtm:valueList "DRINK",
        "GLASS",
        "L",
        "mL",
        "oz" .

<https://w3id.org/cdisc/cosmos/dss/SU/BEERHX/SUENDTC> a cosmos_sdtm:SDTMVariable ;
    cosmos_sdtm:dataElementConceptId NCIT:C83419 ;
    cosmos_sdtm:dataType <https://www.cdisc.org/cosmos/sdtm_v1.0/SDTMVariableDataTypeEnum#datetime> ;
    cosmos_sdtm:isNonStandard false ;
    cosmos_sdtm:mandatoryValue false ;
    cosmos_sdtm:mandatoryVariable false ;
    cosmos_sdtm:name "SUENDTC" ;
    cosmos_sdtm:originSource NCIT:C25936 ;
    cosmos_sdtm:originType NCIT:C170548 ;
    cosmos_sdtm:relationship <https://w3id.org/cdisc/cosmos/dss/SU/BEERHX/SUENDTC/relationship> ;
    cosmos_sdtm:role <https://www.cdisc.org/cosmos/sdtm_v1.0/RoleEnum#Timing> .

<https://w3id.org/cdisc/cosmos/dss/SU/BEERHX/SUENRF> a cosmos_sdtm:SDTMVariable ;
    cosmos_sdtm:codelist NCIT:C66728 ;
    cosmos_sdtm:dataElementConceptId NCIT:C82557 ;
    cosmos_sdtm:dataType <https://www.cdisc.org/cosmos/sdtm_v1.0/SDTMVariableDataTypeEnum#text> ;
    cosmos_sdtm:isNonStandard false ;
    cosmos_sdtm:length 20 ;
    cosmos_sdtm:mandatoryValue false ;
    cosmos_sdtm:mandatoryVariable false ;
    cosmos_sdtm:name "SUENRF" ;
    cosmos_sdtm:originSource NCIT:C70793 ;
    cosmos_sdtm:originType NCIT:C170547 ;
    cosmos_sdtm:role <https://www.cdisc.org/cosmos/sdtm_v1.0/RoleEnum#Timing> ;
    cosmos_sdtm:valueList "AFTER",
        "BEFORE",
        "DURING",
        "DURING/AFTER",
        "UNKNOWN" .

<https://w3id.org/cdisc/cosmos/dss/SU/BEERHX/SUENRTPT> a cosmos_sdtm:SDTMVariable ;
    cosmos_sdtm:codelist NCIT:C66728 ;
    cosmos_sdtm:dataElementConceptId NCIT:C82558 ;
    cosmos_sdtm:dataType <https://www.cdisc.org/cosmos/sdtm_v1.0/SDTMVariableDataTypeEnum#text> ;
    cosmos_sdtm:isNonStandard false ;
    cosmos_sdtm:length 20 ;
    cosmos_sdtm:mandatoryValue false ;
    cosmos_sdtm:mandatoryVariable false ;
    cosmos_sdtm:name "SUENRTPT" ;
    cosmos_sdtm:originSource NCIT:C70793 ;
    cosmos_sdtm:originType NCIT:C170547 ;
    cosmos_sdtm:role <https://www.cdisc.org/cosmos/sdtm_v1.0/RoleEnum#Timing> ;
    cosmos_sdtm:valueList "AFTER",
        "BEFORE",
        "COINCIDENT",
        "ONGOING",
        "UNKNOWN" .

<https://w3id.org/cdisc/cosmos/dss/SU/BEERHX/SUENTPT> a cosmos_sdtm:SDTMVariable ;
    cosmos_sdtm:dataElementConceptId NCIT:C82574 ;
    cosmos_sdtm:dataType <https://www.cdisc.org/cosmos/sdtm_v1.0/SDTMVariableDataTypeEnum#text> ;
    cosmos_sdtm:isNonStandard false ;
    cosmos_sdtm:length 20 ;
    cosmos_sdtm:mandatoryValue false ;
    cosmos_sdtm:mandatoryVariable false ;
    cosmos_sdtm:name "SUENTPT" ;
    cosmos_sdtm:originSource NCIT:C70793 ;
    cosmos_sdtm:originType NCIT:C170547 ;
    cosmos_sdtm:role <https://www.cdisc.org/cosmos/sdtm_v1.0/RoleEnum#Timing> .

<https://w3id.org/cdisc/cosmos/dss/SU/BEERHX/SUOCCUR> a cosmos_sdtm:SDTMVariable ;
    cosmos_sdtm:codelist NCIT:C66742 ;
    cosmos_sdtm:dataElementConceptId NCIT:C127786 ;
    cosmos_sdtm:dataType <https://www.cdisc.org/cosmos/sdtm_v1.0/SDTMVariableDataTypeEnum#text> ;
    cosmos_sdtm:isNonStandard false ;
    cosmos_sdtm:length 1 ;
    cosmos_sdtm:mandatoryValue false ;
    cosmos_sdtm:mandatoryVariable false ;
    cosmos_sdtm:name "SUOCCUR" ;
    cosmos_sdtm:originSource NCIT:C25936 ;
    cosmos_sdtm:originType NCIT:C170548 ;
    cosmos_sdtm:relationship <https://w3id.org/cdisc/cosmos/dss/SU/BEERHX/SUOCCUR/relationship> ;
    cosmos_sdtm:role <https://www.cdisc.org/cosmos/sdtm_v1.0/RoleEnum#Qualifier> ;
    cosmos_sdtm:subsetCodelist "NY_NY" ;
    cosmos_sdtm:valueList "N",
        "Y" .

<https://w3id.org/cdisc/cosmos/dss/SU/BEERHX/SUPRESP> a cosmos_sdtm:SDTMVariable ;
    cosmos_sdtm:codelist NCIT:C66742 ;
    cosmos_sdtm:dataElementConceptId NCIT:C171000 ;
    cosmos_sdtm:dataType <https://www.cdisc.org/cosmos/sdtm_v1.0/SDTMVariableDataTypeEnum#text> ;
    cosmos_sdtm:isNonStandard false ;
    cosmos_sdtm:length 1 ;
    cosmos_sdtm:mandatoryValue false ;
    cosmos_sdtm:mandatoryVariable false ;
    cosmos_sdtm:name "SUPRESP" ;
    cosmos_sdtm:originSource NCIT:C70793 ;
    cosmos_sdtm:originType NCIT:C170547 ;
    cosmos_sdtm:relationship <https://w3id.org/cdisc/cosmos/dss/SU/BEERHX/SUPRESP/relationship> ;
    cosmos_sdtm:role <https://www.cdisc.org/cosmos/sdtm_v1.0/RoleEnum#Qualifier> ;
    cosmos_sdtm:subsetCodelist "NY_Y" ;
    cosmos_sdtm:valueList "Y" .

<https://w3id.org/cdisc/cosmos/dss/SU/BEERHX/SUSCAT> a cosmos_sdtm:SDTMVariable ;
    cosmos_sdtm:dataElementConceptId NCIT:C25692 ;
    cosmos_sdtm:dataType <https://www.cdisc.org/cosmos/sdtm_v1.0/SDTMVariableDataTypeEnum#text> ;
    cosmos_sdtm:isNonStandard false ;
    cosmos_sdtm:length 200 ;
    cosmos_sdtm:mandatoryValue false ;
    cosmos_sdtm:mandatoryVariable false ;
    cosmos_sdtm:name "SUSCAT" ;
    cosmos_sdtm:originSource NCIT:C70793 ;
    cosmos_sdtm:originType NCIT:C170547 ;
    cosmos_sdtm:role <https://www.cdisc.org/cosmos/sdtm_v1.0/RoleEnum#Qualifier> .

<https://w3id.org/cdisc/cosmos/dss/SU/BEERHX/SUSTDTC> a cosmos_sdtm:SDTMVariable ;
    cosmos_sdtm:dataElementConceptId NCIT:C83431 ;
    cosmos_sdtm:dataType <https://www.cdisc.org/cosmos/sdtm_v1.0/SDTMVariableDataTypeEnum#datetime> ;
    cosmos_sdtm:isNonStandard false ;
    cosmos_sdtm:mandatoryValue false ;
    cosmos_sdtm:mandatoryVariable false ;
    cosmos_sdtm:name "SUSTDTC" ;
    cosmos_sdtm:originSource NCIT:C25936 ;
    cosmos_sdtm:originType NCIT:C170548 ;
    cosmos_sdtm:relationship <https://w3id.org/cdisc/cosmos/dss/SU/BEERHX/SUSTDTC/relationship> ;
    cosmos_sdtm:role <https://www.cdisc.org/cosmos/sdtm_v1.0/RoleEnum#Timing> .

<https://w3id.org/cdisc/cosmos/dss/SU/BEERHX/SUSTRF> a cosmos_sdtm:SDTMVariable ;
    cosmos_sdtm:codelist NCIT:C66728 ;
    cosmos_sdtm:dataElementConceptId NCIT:C82559 ;
    cosmos_sdtm:dataType <https://www.cdisc.org/cosmos/sdtm_v1.0/SDTMVariableDataTypeEnum#text> ;
    cosmos_sdtm:isNonStandard false ;
    cosmos_sdtm:length 20 ;
    cosmos_sdtm:mandatoryValue false ;
    cosmos_sdtm:mandatoryVariable false ;
    cosmos_sdtm:name "SUSTRF" ;
    cosmos_sdtm:originSource NCIT:C70793 ;
    cosmos_sdtm:originType NCIT:C170547 ;
    cosmos_sdtm:role <https://www.cdisc.org/cosmos/sdtm_v1.0/RoleEnum#Timing> ;
    cosmos_sdtm:valueList "AFTER",
        "BEFORE",
        "DURING",
        "DURING/AFTER",
        "UNKNOWN" .

<https://w3id.org/cdisc/cosmos/dss/SU/BEERHX/SUSTRTPT> a cosmos_sdtm:SDTMVariable ;
    cosmos_sdtm:codelist NCIT:C66728 ;
    cosmos_sdtm:dataElementConceptId NCIT:C82560 ;
    cosmos_sdtm:dataType <https://www.cdisc.org/cosmos/sdtm_v1.0/SDTMVariableDataTypeEnum#text> ;
    cosmos_sdtm:isNonStandard false ;
    cosmos_sdtm:length 20 ;
    cosmos_sdtm:mandatoryValue false ;
    cosmos_sdtm:mandatoryVariable false ;
    cosmos_sdtm:name "SUSTRTPT" ;
    cosmos_sdtm:originSource NCIT:C70793 ;
    cosmos_sdtm:originType NCIT:C170547 ;
    cosmos_sdtm:role <https://www.cdisc.org/cosmos/sdtm_v1.0/RoleEnum#Timing> ;
    cosmos_sdtm:valueList "AFTER",
        "BEFORE",
        "COINCIDENT",
        "ONGOING",
        "UNKNOWN" .

<https://w3id.org/cdisc/cosmos/dss/SU/BEERHX/SUSTTPT> a cosmos_sdtm:SDTMVariable ;
    cosmos_sdtm:dataElementConceptId NCIT:C82575 ;
    cosmos_sdtm:dataType <https://www.cdisc.org/cosmos/sdtm_v1.0/SDTMVariableDataTypeEnum#text> ;
    cosmos_sdtm:isNonStandard false ;
    cosmos_sdtm:length 20 ;
    cosmos_sdtm:mandatoryValue false ;
    cosmos_sdtm:mandatoryVariable false ;
    cosmos_sdtm:name "SUSTTPT" ;
    cosmos_sdtm:originSource NCIT:C70793 ;
    cosmos_sdtm:originType NCIT:C170547 ;
    cosmos_sdtm:role <https://www.cdisc.org/cosmos/sdtm_v1.0/RoleEnum#Timing> .

<https://w3id.org/cdisc/cosmos/dss/SU/BEERHX/SUTRT> a cosmos_sdtm:SDTMVariable ;
    cosmos_sdtm:assignedTerm <https://w3id.org/cdisc/cosmos/dss/SU/BEERHX/SUTRT/assignedTerm> ;
    cosmos_sdtm:dataElementConceptId NCIT:C83092 ;
    cosmos_sdtm:dataType <https://www.cdisc.org/cosmos/sdtm_v1.0/SDTMVariableDataTypeEnum#text> ;
    cosmos_sdtm:isNonStandard false ;
    cosmos_sdtm:length 200 ;
    cosmos_sdtm:mandatoryValue true ;
    cosmos_sdtm:mandatoryVariable true ;
    cosmos_sdtm:name "SUTRT" ;
    cosmos_sdtm:originSource NCIT:C25936 ;
    cosmos_sdtm:originType NCIT:C170548 ;
    cosmos_sdtm:relationship <https://w3id.org/cdisc/cosmos/dss/SU/BEERHX/SUTRT/relationship> ;
    cosmos_sdtm:role <https://www.cdisc.org/cosmos/sdtm_v1.0/RoleEnum#Topic> .

<https://w3id.org/cdisc/cosmos/dss/SU/CAFFEINEHX/SUCAT> a cosmos_sdtm:SDTMVariable ;
    cosmos_sdtm:assignedTerm <https://w3id.org/cdisc/cosmos/dss/SU/CAFFEINEHX/SUCAT/assignedTerm> ;
    cosmos_sdtm:dataElementConceptId NCIT:C25372 ;
    cosmos_sdtm:dataType <https://www.cdisc.org/cosmos/sdtm_v1.0/SDTMVariableDataTypeEnum#text> ;
    cosmos_sdtm:isNonStandard false ;
    cosmos_sdtm:length 200 ;
    cosmos_sdtm:mandatoryValue false ;
    cosmos_sdtm:mandatoryVariable false ;
    cosmos_sdtm:name "SUCAT" ;
    cosmos_sdtm:originSource NCIT:C70793 ;
    cosmos_sdtm:originType NCIT:C170547 ;
    cosmos_sdtm:role <https://www.cdisc.org/cosmos/sdtm_v1.0/RoleEnum#Qualifier> .

<https://w3id.org/cdisc/cosmos/dss/SU/CAFFEINEHX/SUDOSE> a cosmos_sdtm:SDTMVariable ;
    cosmos_sdtm:dataElementConceptId NCIT:C83416 ;
    cosmos_sdtm:dataType <https://www.cdisc.org/cosmos/sdtm_v1.0/SDTMVariableDataTypeEnum#float> ;
    cosmos_sdtm:format "12.4" ;
    cosmos_sdtm:isNonStandard false ;
    cosmos_sdtm:length 12 ;
    cosmos_sdtm:mandatoryValue false ;
    cosmos_sdtm:mandatoryVariable false ;
    cosmos_sdtm:name "SUDOSE" ;
    cosmos_sdtm:originSource NCIT:C25936 ;
    cosmos_sdtm:originType NCIT:C170548 ;
    cosmos_sdtm:relationship <https://w3id.org/cdisc/cosmos/dss/SU/CAFFEINEHX/SUDOSE/relationship> ;
    cosmos_sdtm:role <https://www.cdisc.org/cosmos/sdtm_v1.0/RoleEnum#Qualifier> ;
    cosmos_sdtm:significantDigits 4 .

<https://w3id.org/cdisc/cosmos/dss/SU/CAFFEINEHX/SUDOSFRQ> a cosmos_sdtm:SDTMVariable ;
    cosmos_sdtm:codelist NCIT:C71113 ;
    cosmos_sdtm:dataElementConceptId NCIT:C83044 ;
    cosmos_sdtm:dataType <https://www.cdisc.org/cosmos/sdtm_v1.0/SDTMVariableDataTypeEnum#text> ;
    cosmos_sdtm:isNonStandard false ;
    cosmos_sdtm:length 40 ;
    cosmos_sdtm:mandatoryValue false ;
    cosmos_sdtm:mandatoryVariable false ;
    cosmos_sdtm:name "SUDOSFRQ" ;
    cosmos_sdtm:originSource NCIT:C25936 ;
    cosmos_sdtm:originType NCIT:C170548 ;
    cosmos_sdtm:relationship <https://w3id.org/cdisc/cosmos/dss/SU/CAFFEINEHX/SUDOSFRQ/relationship> ;
    cosmos_sdtm:role <https://www.cdisc.org/cosmos/sdtm_v1.0/RoleEnum#Qualifier> ;
    cosmos_sdtm:valueList "Q7D",
        "QD" .

<https://w3id.org/cdisc/cosmos/dss/SU/CAFFEINEHX/SUDOSTXT> a cosmos_sdtm:SDTMVariable ;
    cosmos_sdtm:dataElementConceptId NCIT:C83041 ;
    cosmos_sdtm:dataType <https://www.cdisc.org/cosmos/sdtm_v1.0/SDTMVariableDataTypeEnum#text> ;
    cosmos_sdtm:isNonStandard false ;
    cosmos_sdtm:length 40 ;
    cosmos_sdtm:mandatoryValue false ;
    cosmos_sdtm:mandatoryVariable false ;
    cosmos_sdtm:name "SUDOSTXT" ;
    cosmos_sdtm:originSource NCIT:C25936 ;
    cosmos_sdtm:originType NCIT:C170548 ;
    cosmos_sdtm:relationship <https://w3id.org/cdisc/cosmos/dss/SU/CAFFEINEHX/SUDOSTXT/relationship> ;
    cosmos_sdtm:role <https://www.cdisc.org/cosmos/sdtm_v1.0/RoleEnum#Qualifier> .

<https://w3id.org/cdisc/cosmos/dss/SU/CAFFEINEHX/SUDOSU> a cosmos_sdtm:SDTMVariable ;
    cosmos_sdtm:codelist NCIT:C71620 ;
    cosmos_sdtm:dataElementConceptId NCIT:C83038 ;
    cosmos_sdtm:dataType <https://www.cdisc.org/cosmos/sdtm_v1.0/SDTMVariableDataTypeEnum#text> ;
    cosmos_sdtm:isNonStandard false ;
    cosmos_sdtm:length 40 ;
    cosmos_sdtm:mandatoryValue false ;
    cosmos_sdtm:mandatoryVariable false ;
    cosmos_sdtm:name "SUDOSU" ;
    cosmos_sdtm:originSource NCIT:C25936 ;
    cosmos_sdtm:originType NCIT:C170548 ;
    cosmos_sdtm:relationship <https://w3id.org/cdisc/cosmos/dss/SU/CAFFEINEHX/SUDOSU/relationship> ;
    cosmos_sdtm:role <https://www.cdisc.org/cosmos/sdtm_v1.0/RoleEnum#Qualifier> ;
    cosmos_sdtm:valueList "DRINK",
        "GLASS",
        "L",
        "mL",
        "oz" .

<https://w3id.org/cdisc/cosmos/dss/SU/CAFFEINEHX/SUENDTC> a cosmos_sdtm:SDTMVariable ;
    cosmos_sdtm:dataElementConceptId NCIT:C83419 ;
    cosmos_sdtm:dataType <https://www.cdisc.org/cosmos/sdtm_v1.0/SDTMVariableDataTypeEnum#datetime> ;
    cosmos_sdtm:isNonStandard false ;
    cosmos_sdtm:mandatoryValue false ;
    cosmos_sdtm:mandatoryVariable false ;
    cosmos_sdtm:name "SUENDTC" ;
    cosmos_sdtm:originSource NCIT:C25936 ;
    cosmos_sdtm:originType NCIT:C170548 ;
    cosmos_sdtm:relationship <https://w3id.org/cdisc/cosmos/dss/SU/CAFFEINEHX/SUENDTC/relationship> ;
    cosmos_sdtm:role <https://www.cdisc.org/cosmos/sdtm_v1.0/RoleEnum#Timing> .

<https://w3id.org/cdisc/cosmos/dss/SU/CAFFEINEHX/SUENRF> a cosmos_sdtm:SDTMVariable ;
    cosmos_sdtm:codelist NCIT:C66728 ;
    cosmos_sdtm:dataElementConceptId NCIT:C82557 ;
    cosmos_sdtm:dataType <https://www.cdisc.org/cosmos/sdtm_v1.0/SDTMVariableDataTypeEnum#text> ;
    cosmos_sdtm:isNonStandard false ;
    cosmos_sdtm:length 20 ;
    cosmos_sdtm:mandatoryValue false ;
    cosmos_sdtm:mandatoryVariable false ;
    cosmos_sdtm:name "SUENRF" ;
    cosmos_sdtm:originSource NCIT:C70793 ;
    cosmos_sdtm:originType NCIT:C170547 ;
    cosmos_sdtm:role <https://www.cdisc.org/cosmos/sdtm_v1.0/RoleEnum#Timing> ;
    cosmos_sdtm:valueList "AFTER",
        "BEFORE",
        "DURING",
        "DURING/AFTER",
        "UNKNOWN" .

<https://w3id.org/cdisc/cosmos/dss/SU/CAFFEINEHX/SUENRTPT> a cosmos_sdtm:SDTMVariable ;
    cosmos_sdtm:codelist NCIT:C66728 ;
    cosmos_sdtm:dataElementConceptId NCIT:C82558 ;
    cosmos_sdtm:dataType <https://www.cdisc.org/cosmos/sdtm_v1.0/SDTMVariableDataTypeEnum#text> ;
    cosmos_sdtm:isNonStandard false ;
    cosmos_sdtm:length 20 ;
    cosmos_sdtm:mandatoryValue false ;
    cosmos_sdtm:mandatoryVariable false ;
    cosmos_sdtm:name "SUENRTPT" ;
    cosmos_sdtm:originSource NCIT:C70793 ;
    cosmos_sdtm:originType NCIT:C170547 ;
    cosmos_sdtm:role <https://www.cdisc.org/cosmos/sdtm_v1.0/RoleEnum#Timing> ;
    cosmos_sdtm:valueList "AFTER",
        "BEFORE",
        "COINCIDENT",
        "ONGOING",
        "UNKNOWN" .

<https://w3id.org/cdisc/cosmos/dss/SU/CAFFEINEHX/SUENTPT> a cosmos_sdtm:SDTMVariable ;
    cosmos_sdtm:dataElementConceptId NCIT:C82574 ;
    cosmos_sdtm:dataType <https://www.cdisc.org/cosmos/sdtm_v1.0/SDTMVariableDataTypeEnum#text> ;
    cosmos_sdtm:isNonStandard false ;
    cosmos_sdtm:length 20 ;
    cosmos_sdtm:mandatoryValue false ;
    cosmos_sdtm:mandatoryVariable false ;
    cosmos_sdtm:name "SUENTPT" ;
    cosmos_sdtm:originSource NCIT:C70793 ;
    cosmos_sdtm:originType NCIT:C170547 ;
    cosmos_sdtm:role <https://www.cdisc.org/cosmos/sdtm_v1.0/RoleEnum#Timing> .

<https://w3id.org/cdisc/cosmos/dss/SU/CAFFEINEHX/SUOCCUR> a cosmos_sdtm:SDTMVariable ;
    cosmos_sdtm:codelist NCIT:C66742 ;
    cosmos_sdtm:dataElementConceptId NCIT:C127786 ;
    cosmos_sdtm:dataType <https://www.cdisc.org/cosmos/sdtm_v1.0/SDTMVariableDataTypeEnum#text> ;
    cosmos_sdtm:isNonStandard false ;
    cosmos_sdtm:length 1 ;
    cosmos_sdtm:mandatoryValue false ;
    cosmos_sdtm:mandatoryVariable false ;
    cosmos_sdtm:name "SUOCCUR" ;
    cosmos_sdtm:originSource NCIT:C25936 ;
    cosmos_sdtm:originType NCIT:C170548 ;
    cosmos_sdtm:relationship <https://w3id.org/cdisc/cosmos/dss/SU/CAFFEINEHX/SUOCCUR/relationship> ;
    cosmos_sdtm:role <https://www.cdisc.org/cosmos/sdtm_v1.0/RoleEnum#Qualifier> ;
    cosmos_sdtm:subsetCodelist "NY_NY" ;
    cosmos_sdtm:valueList "N",
        "Y" .

<https://w3id.org/cdisc/cosmos/dss/SU/CAFFEINEHX/SUPRESP> a cosmos_sdtm:SDTMVariable ;
    cosmos_sdtm:codelist NCIT:C66742 ;
    cosmos_sdtm:dataElementConceptId NCIT:C171000 ;
    cosmos_sdtm:dataType <https://www.cdisc.org/cosmos/sdtm_v1.0/SDTMVariableDataTypeEnum#text> ;
    cosmos_sdtm:isNonStandard false ;
    cosmos_sdtm:length 1 ;
    cosmos_sdtm:mandatoryValue false ;
    cosmos_sdtm:mandatoryVariable false ;
    cosmos_sdtm:name "SUPRESP" ;
    cosmos_sdtm:originSource NCIT:C70793 ;
    cosmos_sdtm:originType NCIT:C170547 ;
    cosmos_sdtm:relationship <https://w3id.org/cdisc/cosmos/dss/SU/CAFFEINEHX/SUPRESP/relationship> ;
    cosmos_sdtm:role <https://www.cdisc.org/cosmos/sdtm_v1.0/RoleEnum#Qualifier> ;
    cosmos_sdtm:subsetCodelist "NY_Y" ;
    cosmos_sdtm:valueList "Y" .

<https://w3id.org/cdisc/cosmos/dss/SU/CAFFEINEHX/SUSCAT> a cosmos_sdtm:SDTMVariable ;
    cosmos_sdtm:dataElementConceptId NCIT:C25692 ;
    cosmos_sdtm:dataType <https://www.cdisc.org/cosmos/sdtm_v1.0/SDTMVariableDataTypeEnum#text> ;
    cosmos_sdtm:isNonStandard false ;
    cosmos_sdtm:length 200 ;
    cosmos_sdtm:mandatoryValue false ;
    cosmos_sdtm:mandatoryVariable false ;
    cosmos_sdtm:name "SUSCAT" ;
    cosmos_sdtm:originSource NCIT:C70793 ;
    cosmos_sdtm:originType NCIT:C170547 ;
    cosmos_sdtm:role <https://www.cdisc.org/cosmos/sdtm_v1.0/RoleEnum#Qualifier> ;
    cosmos_sdtm:valueList "COFFEE",
        "COLA",
        "TEA" .

<https://w3id.org/cdisc/cosmos/dss/SU/CAFFEINEHX/SUSTDTC> a cosmos_sdtm:SDTMVariable ;
    cosmos_sdtm:dataElementConceptId NCIT:C83431 ;
    cosmos_sdtm:dataType <https://www.cdisc.org/cosmos/sdtm_v1.0/SDTMVariableDataTypeEnum#datetime> ;
    cosmos_sdtm:isNonStandard false ;
    cosmos_sdtm:mandatoryValue false ;
    cosmos_sdtm:mandatoryVariable false ;
    cosmos_sdtm:name "SUSTDTC" ;
    cosmos_sdtm:originSource NCIT:C25936 ;
    cosmos_sdtm:originType NCIT:C170548 ;
    cosmos_sdtm:relationship <https://w3id.org/cdisc/cosmos/dss/SU/CAFFEINEHX/SUSTDTC/relationship> ;
    cosmos_sdtm:role <https://www.cdisc.org/cosmos/sdtm_v1.0/RoleEnum#Timing> .

<https://w3id.org/cdisc/cosmos/dss/SU/CAFFEINEHX/SUSTRF> a cosmos_sdtm:SDTMVariable ;
    cosmos_sdtm:codelist NCIT:C66728 ;
    cosmos_sdtm:dataElementConceptId NCIT:C82559 ;
    cosmos_sdtm:dataType <https://www.cdisc.org/cosmos/sdtm_v1.0/SDTMVariableDataTypeEnum#text> ;
    cosmos_sdtm:isNonStandard false ;
    cosmos_sdtm:length 20 ;
    cosmos_sdtm:mandatoryValue false ;
    cosmos_sdtm:mandatoryVariable false ;
    cosmos_sdtm:name "SUSTRF" ;
    cosmos_sdtm:originSource NCIT:C70793 ;
    cosmos_sdtm:originType NCIT:C170547 ;
    cosmos_sdtm:role <https://www.cdisc.org/cosmos/sdtm_v1.0/RoleEnum#Timing> ;
    cosmos_sdtm:valueList "AFTER",
        "BEFORE",
        "DURING",
        "DURING/AFTER",
        "UNKNOWN" .

<https://w3id.org/cdisc/cosmos/dss/SU/CAFFEINEHX/SUSTRTPT> a cosmos_sdtm:SDTMVariable ;
    cosmos_sdtm:codelist NCIT:C66728 ;
    cosmos_sdtm:dataElementConceptId NCIT:C82560 ;
    cosmos_sdtm:dataType <https://www.cdisc.org/cosmos/sdtm_v1.0/SDTMVariableDataTypeEnum#text> ;
    cosmos_sdtm:isNonStandard false ;
    cosmos_sdtm:length 20 ;
    cosmos_sdtm:mandatoryValue false ;
    cosmos_sdtm:mandatoryVariable false ;
    cosmos_sdtm:name "SUSTRTPT" ;
    cosmos_sdtm:originSource NCIT:C70793 ;
    cosmos_sdtm:originType NCIT:C170547 ;
    cosmos_sdtm:role <https://www.cdisc.org/cosmos/sdtm_v1.0/RoleEnum#Timing> ;
    cosmos_sdtm:valueList "AFTER",
        "BEFORE",
        "COINCIDENT",
        "ONGOING",
        "UNKNOWN" .

<https://w3id.org/cdisc/cosmos/dss/SU/CAFFEINEHX/SUSTTPT> a cosmos_sdtm:SDTMVariable ;
    cosmos_sdtm:dataElementConceptId NCIT:C82575 ;
    cosmos_sdtm:dataType <https://www.cdisc.org/cosmos/sdtm_v1.0/SDTMVariableDataTypeEnum#text> ;
    cosmos_sdtm:isNonStandard false ;
    cosmos_sdtm:length 20 ;
    cosmos_sdtm:mandatoryValue false ;
    cosmos_sdtm:mandatoryVariable false ;
    cosmos_sdtm:name "SUSTTPT" ;
    cosmos_sdtm:originSource NCIT:C70793 ;
    cosmos_sdtm:originType NCIT:C170547 ;
    cosmos_sdtm:role <https://www.cdisc.org/cosmos/sdtm_v1.0/RoleEnum#Timing> .

<https://w3id.org/cdisc/cosmos/dss/SU/CAFFEINEHX/SUTRT> a cosmos_sdtm:SDTMVariable ;
    cosmos_sdtm:assignedTerm <https://w3id.org/cdisc/cosmos/dss/SU/CAFFEINEHX/SUTRT/assignedTerm> ;
    cosmos_sdtm:dataElementConceptId NCIT:C83092 ;
    cosmos_sdtm:dataType <https://www.cdisc.org/cosmos/sdtm_v1.0/SDTMVariableDataTypeEnum#text> ;
    cosmos_sdtm:isNonStandard false ;
    cosmos_sdtm:length 200 ;
    cosmos_sdtm:mandatoryValue true ;
    cosmos_sdtm:mandatoryVariable true ;
    cosmos_sdtm:name "SUTRT" ;
    cosmos_sdtm:originSource NCIT:C25936 ;
    cosmos_sdtm:originType NCIT:C170548 ;
    cosmos_sdtm:relationship <https://w3id.org/cdisc/cosmos/dss/SU/CAFFEINEHX/SUTRT/relationship> ;
    cosmos_sdtm:role <https://www.cdisc.org/cosmos/sdtm_v1.0/RoleEnum#Topic> .

<https://w3id.org/cdisc/cosmos/dss/SU/CIGARETTEHX/SUCAT> a cosmos_sdtm:SDTMVariable ;
    cosmos_sdtm:assignedTerm <https://w3id.org/cdisc/cosmos/dss/SU/CIGARETTEHX/SUCAT/assignedTerm> ;
    cosmos_sdtm:dataElementConceptId NCIT:C25372 ;
    cosmos_sdtm:dataType <https://www.cdisc.org/cosmos/sdtm_v1.0/SDTMVariableDataTypeEnum#text> ;
    cosmos_sdtm:isNonStandard false ;
    cosmos_sdtm:length 200 ;
    cosmos_sdtm:mandatoryValue false ;
    cosmos_sdtm:mandatoryVariable false ;
    cosmos_sdtm:name "SUCAT" ;
    cosmos_sdtm:originSource NCIT:C70793 ;
    cosmos_sdtm:originType NCIT:C170547 ;
    cosmos_sdtm:role <https://www.cdisc.org/cosmos/sdtm_v1.0/RoleEnum#Qualifier> .

<https://w3id.org/cdisc/cosmos/dss/SU/CIGARETTEHX/SUDOSE> a cosmos_sdtm:SDTMVariable ;
    cosmos_sdtm:dataElementConceptId NCIT:C83416 ;
    cosmos_sdtm:dataType <https://www.cdisc.org/cosmos/sdtm_v1.0/SDTMVariableDataTypeEnum#float> ;
    cosmos_sdtm:format "12.4" ;
    cosmos_sdtm:isNonStandard false ;
    cosmos_sdtm:length 12 ;
    cosmos_sdtm:mandatoryValue false ;
    cosmos_sdtm:mandatoryVariable false ;
    cosmos_sdtm:name "SUDOSE" ;
    cosmos_sdtm:originSource NCIT:C25936 ;
    cosmos_sdtm:originType NCIT:C170548 ;
    cosmos_sdtm:relationship <https://w3id.org/cdisc/cosmos/dss/SU/CIGARETTEHX/SUDOSE/relationship> ;
    cosmos_sdtm:role <https://www.cdisc.org/cosmos/sdtm_v1.0/RoleEnum#Qualifier> ;
    cosmos_sdtm:significantDigits 4 .

<https://w3id.org/cdisc/cosmos/dss/SU/CIGARETTEHX/SUDOSFRQ> a cosmos_sdtm:SDTMVariable ;
    cosmos_sdtm:codelist NCIT:C71113 ;
    cosmos_sdtm:dataElementConceptId NCIT:C83044 ;
    cosmos_sdtm:dataType <https://www.cdisc.org/cosmos/sdtm_v1.0/SDTMVariableDataTypeEnum#text> ;
    cosmos_sdtm:isNonStandard false ;
    cosmos_sdtm:length 40 ;
    cosmos_sdtm:mandatoryValue false ;
    cosmos_sdtm:mandatoryVariable false ;
    cosmos_sdtm:name "SUDOSFRQ" ;
    cosmos_sdtm:originSource NCIT:C25936 ;
    cosmos_sdtm:originType NCIT:C170548 ;
    cosmos_sdtm:relationship <https://w3id.org/cdisc/cosmos/dss/SU/CIGARETTEHX/SUDOSFRQ/relationship> ;
    cosmos_sdtm:role <https://www.cdisc.org/cosmos/sdtm_v1.0/RoleEnum#Qualifier> ;
    cosmos_sdtm:valueList "Q7D",
        "QD" .

<https://w3id.org/cdisc/cosmos/dss/SU/CIGARETTEHX/SUDOSTXT> a cosmos_sdtm:SDTMVariable ;
    cosmos_sdtm:dataElementConceptId NCIT:C83041 ;
    cosmos_sdtm:dataType <https://www.cdisc.org/cosmos/sdtm_v1.0/SDTMVariableDataTypeEnum#text> ;
    cosmos_sdtm:isNonStandard false ;
    cosmos_sdtm:length 40 ;
    cosmos_sdtm:mandatoryValue false ;
    cosmos_sdtm:mandatoryVariable false ;
    cosmos_sdtm:name "SUDOSTXT" ;
    cosmos_sdtm:originSource NCIT:C25936 ;
    cosmos_sdtm:originType NCIT:C170548 ;
    cosmos_sdtm:relationship <https://w3id.org/cdisc/cosmos/dss/SU/CIGARETTEHX/SUDOSTXT/relationship> ;
    cosmos_sdtm:role <https://www.cdisc.org/cosmos/sdtm_v1.0/RoleEnum#Qualifier> .

<https://w3id.org/cdisc/cosmos/dss/SU/CIGARETTEHX/SUDOSU> a cosmos_sdtm:SDTMVariable ;
    cosmos_sdtm:codelist NCIT:C71620 ;
    cosmos_sdtm:dataElementConceptId NCIT:C83038 ;
    cosmos_sdtm:dataType <https://www.cdisc.org/cosmos/sdtm_v1.0/SDTMVariableDataTypeEnum#text> ;
    cosmos_sdtm:isNonStandard false ;
    cosmos_sdtm:length 40 ;
    cosmos_sdtm:mandatoryValue false ;
    cosmos_sdtm:mandatoryVariable false ;
    cosmos_sdtm:name "SUDOSU" ;
    cosmos_sdtm:originSource NCIT:C25936 ;
    cosmos_sdtm:originType NCIT:C170548 ;
    cosmos_sdtm:relationship <https://w3id.org/cdisc/cosmos/dss/SU/CIGARETTEHX/SUDOSU/relationship> ;
    cosmos_sdtm:role <https://www.cdisc.org/cosmos/sdtm_v1.0/RoleEnum#Qualifier> ;
    cosmos_sdtm:valueList "CIGARETTE",
        "PACK" .

<https://w3id.org/cdisc/cosmos/dss/SU/CIGARETTEHX/SUDUR> a cosmos_sdtm:SDTMVariable ;
    cosmos_sdtm:dataElementConceptId NCIT:C83419 ;
    cosmos_sdtm:dataType <https://www.cdisc.org/cosmos/sdtm_v1.0/SDTMVariableDataTypeEnum#durationDatetime> ;
    cosmos_sdtm:isNonStandard false ;
    cosmos_sdtm:mandatoryValue false ;
    cosmos_sdtm:mandatoryVariable false ;
    cosmos_sdtm:name "SUDUR" ;
    cosmos_sdtm:originSource NCIT:C25936 ;
    cosmos_sdtm:originType NCIT:C170548 ;
    cosmos_sdtm:relationship <https://w3id.org/cdisc/cosmos/dss/SU/CIGARETTEHX/SUDUR/relationship> ;
    cosmos_sdtm:role <https://www.cdisc.org/cosmos/sdtm_v1.0/RoleEnum#Timing> .

<https://w3id.org/cdisc/cosmos/dss/SU/CIGARETTEHX/SUENDTC> a cosmos_sdtm:SDTMVariable ;
    cosmos_sdtm:dataElementConceptId NCIT:C83419 ;
    cosmos_sdtm:dataType <https://www.cdisc.org/cosmos/sdtm_v1.0/SDTMVariableDataTypeEnum#datetime> ;
    cosmos_sdtm:isNonStandard false ;
    cosmos_sdtm:mandatoryValue false ;
    cosmos_sdtm:mandatoryVariable false ;
    cosmos_sdtm:name "SUENDTC" ;
    cosmos_sdtm:originSource NCIT:C25936 ;
    cosmos_sdtm:originType NCIT:C170548 ;
    cosmos_sdtm:relationship <https://w3id.org/cdisc/cosmos/dss/SU/CIGARETTEHX/SUENDTC/relationship> ;
    cosmos_sdtm:role <https://www.cdisc.org/cosmos/sdtm_v1.0/RoleEnum#Timing> .

<https://w3id.org/cdisc/cosmos/dss/SU/CIGARETTEHX/SUENRF> a cosmos_sdtm:SDTMVariable ;
    cosmos_sdtm:codelist NCIT:C66728 ;
    cosmos_sdtm:dataElementConceptId NCIT:C82557 ;
    cosmos_sdtm:dataType <https://www.cdisc.org/cosmos/sdtm_v1.0/SDTMVariableDataTypeEnum#text> ;
    cosmos_sdtm:isNonStandard false ;
    cosmos_sdtm:length 20 ;
    cosmos_sdtm:mandatoryValue false ;
    cosmos_sdtm:mandatoryVariable false ;
    cosmos_sdtm:name "SUENRF" ;
    cosmos_sdtm:originSource NCIT:C70793 ;
    cosmos_sdtm:originType NCIT:C170547 ;
    cosmos_sdtm:role <https://www.cdisc.org/cosmos/sdtm_v1.0/RoleEnum#Timing> ;
    cosmos_sdtm:valueList "AFTER",
        "BEFORE",
        "DURING",
        "DURING/AFTER",
        "UNKNOWN" .

<https://w3id.org/cdisc/cosmos/dss/SU/CIGARETTEHX/SUENRTPT> a cosmos_sdtm:SDTMVariable ;
    cosmos_sdtm:codelist NCIT:C66728 ;
    cosmos_sdtm:dataElementConceptId NCIT:C82558 ;
    cosmos_sdtm:dataType <https://www.cdisc.org/cosmos/sdtm_v1.0/SDTMVariableDataTypeEnum#text> ;
    cosmos_sdtm:isNonStandard false ;
    cosmos_sdtm:length 20 ;
    cosmos_sdtm:mandatoryValue false ;
    cosmos_sdtm:mandatoryVariable false ;
    cosmos_sdtm:name "SUENRTPT" ;
    cosmos_sdtm:originSource NCIT:C70793 ;
    cosmos_sdtm:originType NCIT:C170547 ;
    cosmos_sdtm:role <https://www.cdisc.org/cosmos/sdtm_v1.0/RoleEnum#Timing> ;
    cosmos_sdtm:valueList "AFTER",
        "BEFORE",
        "COINCIDENT",
        "ONGOING",
        "UNKNOWN" .

<https://w3id.org/cdisc/cosmos/dss/SU/CIGARETTEHX/SUENTPT> a cosmos_sdtm:SDTMVariable ;
    cosmos_sdtm:dataElementConceptId NCIT:C82574 ;
    cosmos_sdtm:dataType <https://www.cdisc.org/cosmos/sdtm_v1.0/SDTMVariableDataTypeEnum#text> ;
    cosmos_sdtm:isNonStandard false ;
    cosmos_sdtm:length 20 ;
    cosmos_sdtm:mandatoryValue false ;
    cosmos_sdtm:mandatoryVariable false ;
    cosmos_sdtm:name "SUENTPT" ;
    cosmos_sdtm:originSource NCIT:C70793 ;
    cosmos_sdtm:originType NCIT:C170547 ;
    cosmos_sdtm:role <https://www.cdisc.org/cosmos/sdtm_v1.0/RoleEnum#Timing> .

<https://w3id.org/cdisc/cosmos/dss/SU/CIGARETTEHX/SUOCCUR> a cosmos_sdtm:SDTMVariable ;
    cosmos_sdtm:codelist NCIT:C66742 ;
    cosmos_sdtm:dataElementConceptId NCIT:C127786 ;
    cosmos_sdtm:dataType <https://www.cdisc.org/cosmos/sdtm_v1.0/SDTMVariableDataTypeEnum#text> ;
    cosmos_sdtm:isNonStandard false ;
    cosmos_sdtm:length 1 ;
    cosmos_sdtm:mandatoryValue false ;
    cosmos_sdtm:mandatoryVariable false ;
    cosmos_sdtm:name "SUOCCUR" ;
    cosmos_sdtm:originSource NCIT:C25936 ;
    cosmos_sdtm:originType NCIT:C170548 ;
    cosmos_sdtm:relationship <https://w3id.org/cdisc/cosmos/dss/SU/CIGARETTEHX/SUOCCUR/relationship> ;
    cosmos_sdtm:role <https://www.cdisc.org/cosmos/sdtm_v1.0/RoleEnum#Qualifier> ;
    cosmos_sdtm:subsetCodelist "NY_NY" ;
    cosmos_sdtm:valueList "N",
        "Y" .

<https://w3id.org/cdisc/cosmos/dss/SU/CIGARETTEHX/SUPRESP> a cosmos_sdtm:SDTMVariable ;
    cosmos_sdtm:codelist NCIT:C66742 ;
    cosmos_sdtm:dataElementConceptId NCIT:C171000 ;
    cosmos_sdtm:dataType <https://www.cdisc.org/cosmos/sdtm_v1.0/SDTMVariableDataTypeEnum#text> ;
    cosmos_sdtm:isNonStandard false ;
    cosmos_sdtm:length 1 ;
    cosmos_sdtm:mandatoryValue false ;
    cosmos_sdtm:mandatoryVariable false ;
    cosmos_sdtm:name "SUPRESP" ;
    cosmos_sdtm:originSource NCIT:C70793 ;
    cosmos_sdtm:originType NCIT:C170547 ;
    cosmos_sdtm:relationship <https://w3id.org/cdisc/cosmos/dss/SU/CIGARETTEHX/SUPRESP/relationship> ;
    cosmos_sdtm:role <https://www.cdisc.org/cosmos/sdtm_v1.0/RoleEnum#Qualifier> ;
    cosmos_sdtm:subsetCodelist "NY_Y" ;
    cosmos_sdtm:valueList "Y" .

<https://w3id.org/cdisc/cosmos/dss/SU/CIGARETTEHX/SUSCAT> a cosmos_sdtm:SDTMVariable ;
    cosmos_sdtm:dataElementConceptId NCIT:C25692 ;
    cosmos_sdtm:dataType <https://www.cdisc.org/cosmos/sdtm_v1.0/SDTMVariableDataTypeEnum#text> ;
    cosmos_sdtm:isNonStandard false ;
    cosmos_sdtm:length 200 ;
    cosmos_sdtm:mandatoryValue false ;
    cosmos_sdtm:mandatoryVariable false ;
    cosmos_sdtm:name "SUSCAT" ;
    cosmos_sdtm:originSource NCIT:C70793 ;
    cosmos_sdtm:originType NCIT:C170547 ;
    cosmos_sdtm:role <https://www.cdisc.org/cosmos/sdtm_v1.0/RoleEnum#Qualifier> .

<https://w3id.org/cdisc/cosmos/dss/SU/CIGARETTEHX/SUSTDTC> a cosmos_sdtm:SDTMVariable ;
    cosmos_sdtm:dataElementConceptId NCIT:C83431 ;
    cosmos_sdtm:dataType <https://www.cdisc.org/cosmos/sdtm_v1.0/SDTMVariableDataTypeEnum#datetime> ;
    cosmos_sdtm:isNonStandard false ;
    cosmos_sdtm:mandatoryValue false ;
    cosmos_sdtm:mandatoryVariable false ;
    cosmos_sdtm:name "SUSTDTC" ;
    cosmos_sdtm:originSource NCIT:C25936 ;
    cosmos_sdtm:originType NCIT:C170548 ;
    cosmos_sdtm:relationship <https://w3id.org/cdisc/cosmos/dss/SU/CIGARETTEHX/SUSTDTC/relationship> ;
    cosmos_sdtm:role <https://www.cdisc.org/cosmos/sdtm_v1.0/RoleEnum#Timing> .

<https://w3id.org/cdisc/cosmos/dss/SU/CIGARETTEHX/SUSTRF> a cosmos_sdtm:SDTMVariable ;
    cosmos_sdtm:codelist NCIT:C66728 ;
    cosmos_sdtm:dataElementConceptId NCIT:C82559 ;
    cosmos_sdtm:dataType <https://www.cdisc.org/cosmos/sdtm_v1.0/SDTMVariableDataTypeEnum#text> ;
    cosmos_sdtm:isNonStandard false ;
    cosmos_sdtm:length 20 ;
    cosmos_sdtm:mandatoryValue false ;
    cosmos_sdtm:mandatoryVariable false ;
    cosmos_sdtm:name "SUSTRF" ;
    cosmos_sdtm:originSource NCIT:C70793 ;
    cosmos_sdtm:originType NCIT:C170547 ;
    cosmos_sdtm:role <https://www.cdisc.org/cosmos/sdtm_v1.0/RoleEnum#Timing> ;
    cosmos_sdtm:valueList "AFTER",
        "BEFORE",
        "DURING",
        "DURING/AFTER",
        "UNKNOWN" .

<https://w3id.org/cdisc/cosmos/dss/SU/CIGARETTEHX/SUSTRTPT> a cosmos_sdtm:SDTMVariable ;
    cosmos_sdtm:codelist NCIT:C66728 ;
    cosmos_sdtm:dataElementConceptId NCIT:C82560 ;
    cosmos_sdtm:dataType <https://www.cdisc.org/cosmos/sdtm_v1.0/SDTMVariableDataTypeEnum#text> ;
    cosmos_sdtm:isNonStandard false ;
    cosmos_sdtm:length 20 ;
    cosmos_sdtm:mandatoryValue false ;
    cosmos_sdtm:mandatoryVariable false ;
    cosmos_sdtm:name "SUSTRTPT" ;
    cosmos_sdtm:originSource NCIT:C70793 ;
    cosmos_sdtm:originType NCIT:C170547 ;
    cosmos_sdtm:role <https://www.cdisc.org/cosmos/sdtm_v1.0/RoleEnum#Timing> ;
    cosmos_sdtm:valueList "AFTER",
        "BEFORE",
        "COINCIDENT",
        "ONGOING",
        "UNKNOWN" .

<https://w3id.org/cdisc/cosmos/dss/SU/CIGARETTEHX/SUSTTPT> a cosmos_sdtm:SDTMVariable ;
    cosmos_sdtm:dataElementConceptId NCIT:C82575 ;
    cosmos_sdtm:dataType <https://www.cdisc.org/cosmos/sdtm_v1.0/SDTMVariableDataTypeEnum#text> ;
    cosmos_sdtm:isNonStandard false ;
    cosmos_sdtm:length 20 ;
    cosmos_sdtm:mandatoryValue false ;
    cosmos_sdtm:mandatoryVariable false ;
    cosmos_sdtm:name "SUSTTPT" ;
    cosmos_sdtm:originSource NCIT:C70793 ;
    cosmos_sdtm:originType NCIT:C170547 ;
    cosmos_sdtm:role <https://www.cdisc.org/cosmos/sdtm_v1.0/RoleEnum#Timing> .

<https://w3id.org/cdisc/cosmos/dss/SU/CIGARETTEHX/SUTRT> a cosmos_sdtm:SDTMVariable ;
    cosmos_sdtm:assignedTerm <https://w3id.org/cdisc/cosmos/dss/SU/CIGARETTEHX/SUTRT/assignedTerm> ;
    cosmos_sdtm:dataElementConceptId NCIT:C83092 ;
    cosmos_sdtm:dataType <https://www.cdisc.org/cosmos/sdtm_v1.0/SDTMVariableDataTypeEnum#text> ;
    cosmos_sdtm:isNonStandard false ;
    cosmos_sdtm:length 200 ;
    cosmos_sdtm:mandatoryValue true ;
    cosmos_sdtm:mandatoryVariable true ;
    cosmos_sdtm:name "SUTRT" ;
    cosmos_sdtm:originSource NCIT:C25936 ;
    cosmos_sdtm:originType NCIT:C170548 ;
    cosmos_sdtm:relationship <https://w3id.org/cdisc/cosmos/dss/SU/CIGARETTEHX/SUTRT/relationship> ;
    cosmos_sdtm:role <https://www.cdisc.org/cosmos/sdtm_v1.0/RoleEnum#Topic> .

<https://w3id.org/cdisc/cosmos/dss/SU/CIGARHX/SUCAT> a cosmos_sdtm:SDTMVariable ;
    cosmos_sdtm:assignedTerm <https://w3id.org/cdisc/cosmos/dss/SU/CIGARHX/SUCAT/assignedTerm> ;
    cosmos_sdtm:dataElementConceptId NCIT:C25372 ;
    cosmos_sdtm:dataType <https://www.cdisc.org/cosmos/sdtm_v1.0/SDTMVariableDataTypeEnum#text> ;
    cosmos_sdtm:isNonStandard false ;
    cosmos_sdtm:length 200 ;
    cosmos_sdtm:mandatoryValue false ;
    cosmos_sdtm:mandatoryVariable false ;
    cosmos_sdtm:name "SUCAT" ;
    cosmos_sdtm:originSource NCIT:C70793 ;
    cosmos_sdtm:originType NCIT:C170547 ;
    cosmos_sdtm:role <https://www.cdisc.org/cosmos/sdtm_v1.0/RoleEnum#Qualifier> .

<https://w3id.org/cdisc/cosmos/dss/SU/CIGARHX/SUDOSE> a cosmos_sdtm:SDTMVariable ;
    cosmos_sdtm:dataElementConceptId NCIT:C83416 ;
    cosmos_sdtm:dataType <https://www.cdisc.org/cosmos/sdtm_v1.0/SDTMVariableDataTypeEnum#float> ;
    cosmos_sdtm:format "12.4" ;
    cosmos_sdtm:isNonStandard false ;
    cosmos_sdtm:length 12 ;
    cosmos_sdtm:mandatoryValue false ;
    cosmos_sdtm:mandatoryVariable false ;
    cosmos_sdtm:name "SUDOSE" ;
    cosmos_sdtm:originSource NCIT:C25936 ;
    cosmos_sdtm:originType NCIT:C170548 ;
    cosmos_sdtm:relationship <https://w3id.org/cdisc/cosmos/dss/SU/CIGARHX/SUDOSE/relationship> ;
    cosmos_sdtm:role <https://www.cdisc.org/cosmos/sdtm_v1.0/RoleEnum#Qualifier> ;
    cosmos_sdtm:significantDigits 4 .

<https://w3id.org/cdisc/cosmos/dss/SU/CIGARHX/SUDOSFRQ> a cosmos_sdtm:SDTMVariable ;
    cosmos_sdtm:codelist NCIT:C71113 ;
    cosmos_sdtm:dataElementConceptId NCIT:C83044 ;
    cosmos_sdtm:dataType <https://www.cdisc.org/cosmos/sdtm_v1.0/SDTMVariableDataTypeEnum#text> ;
    cosmos_sdtm:isNonStandard false ;
    cosmos_sdtm:length 40 ;
    cosmos_sdtm:mandatoryValue false ;
    cosmos_sdtm:mandatoryVariable false ;
    cosmos_sdtm:name "SUDOSFRQ" ;
    cosmos_sdtm:originSource NCIT:C25936 ;
    cosmos_sdtm:originType NCIT:C170548 ;
    cosmos_sdtm:relationship <https://w3id.org/cdisc/cosmos/dss/SU/CIGARHX/SUDOSFRQ/relationship> ;
    cosmos_sdtm:role <https://www.cdisc.org/cosmos/sdtm_v1.0/RoleEnum#Qualifier> ;
    cosmos_sdtm:valueList "Q7D",
        "QD" .

<https://w3id.org/cdisc/cosmos/dss/SU/CIGARHX/SUDOSTXT> a cosmos_sdtm:SDTMVariable ;
    cosmos_sdtm:dataElementConceptId NCIT:C83041 ;
    cosmos_sdtm:dataType <https://www.cdisc.org/cosmos/sdtm_v1.0/SDTMVariableDataTypeEnum#text> ;
    cosmos_sdtm:isNonStandard false ;
    cosmos_sdtm:length 40 ;
    cosmos_sdtm:mandatoryValue false ;
    cosmos_sdtm:mandatoryVariable false ;
    cosmos_sdtm:name "SUDOSTXT" ;
    cosmos_sdtm:originSource NCIT:C25936 ;
    cosmos_sdtm:originType NCIT:C170548 ;
    cosmos_sdtm:relationship <https://w3id.org/cdisc/cosmos/dss/SU/CIGARHX/SUDOSTXT/relationship> ;
    cosmos_sdtm:role <https://www.cdisc.org/cosmos/sdtm_v1.0/RoleEnum#Qualifier> .

<https://w3id.org/cdisc/cosmos/dss/SU/CIGARHX/SUDOSU> a cosmos_sdtm:SDTMVariable ;
    cosmos_sdtm:codelist NCIT:C71620 ;
    cosmos_sdtm:dataElementConceptId NCIT:C83038 ;
    cosmos_sdtm:dataType <https://www.cdisc.org/cosmos/sdtm_v1.0/SDTMVariableDataTypeEnum#text> ;
    cosmos_sdtm:isNonStandard false ;
    cosmos_sdtm:length 40 ;
    cosmos_sdtm:mandatoryValue false ;
    cosmos_sdtm:mandatoryVariable false ;
    cosmos_sdtm:name "SUDOSU" ;
    cosmos_sdtm:originSource NCIT:C25936 ;
    cosmos_sdtm:originType NCIT:C170548 ;
    cosmos_sdtm:relationship <https://w3id.org/cdisc/cosmos/dss/SU/CIGARHX/SUDOSU/relationship> ;
    cosmos_sdtm:role <https://www.cdisc.org/cosmos/sdtm_v1.0/RoleEnum#Qualifier> ;
    cosmos_sdtm:valueList "CIGAR" .

<https://w3id.org/cdisc/cosmos/dss/SU/CIGARHX/SUDUR> a cosmos_sdtm:SDTMVariable ;
    cosmos_sdtm:dataElementConceptId NCIT:C83419 ;
    cosmos_sdtm:dataType <https://www.cdisc.org/cosmos/sdtm_v1.0/SDTMVariableDataTypeEnum#durationDatetime> ;
    cosmos_sdtm:isNonStandard false ;
    cosmos_sdtm:mandatoryValue false ;
    cosmos_sdtm:mandatoryVariable false ;
    cosmos_sdtm:name "SUDUR" ;
    cosmos_sdtm:originSource NCIT:C25936 ;
    cosmos_sdtm:originType NCIT:C170548 ;
    cosmos_sdtm:relationship <https://w3id.org/cdisc/cosmos/dss/SU/CIGARHX/SUDUR/relationship> ;
    cosmos_sdtm:role <https://www.cdisc.org/cosmos/sdtm_v1.0/RoleEnum#Timing> .

<https://w3id.org/cdisc/cosmos/dss/SU/CIGARHX/SUENDTC> a cosmos_sdtm:SDTMVariable ;
    cosmos_sdtm:dataElementConceptId NCIT:C83419 ;
    cosmos_sdtm:dataType <https://www.cdisc.org/cosmos/sdtm_v1.0/SDTMVariableDataTypeEnum#datetime> ;
    cosmos_sdtm:isNonStandard false ;
    cosmos_sdtm:mandatoryValue false ;
    cosmos_sdtm:mandatoryVariable false ;
    cosmos_sdtm:name "SUENDTC" ;
    cosmos_sdtm:originSource NCIT:C25936 ;
    cosmos_sdtm:originType NCIT:C170548 ;
    cosmos_sdtm:relationship <https://w3id.org/cdisc/cosmos/dss/SU/CIGARHX/SUENDTC/relationship> ;
    cosmos_sdtm:role <https://www.cdisc.org/cosmos/sdtm_v1.0/RoleEnum#Timing> .

<https://w3id.org/cdisc/cosmos/dss/SU/CIGARHX/SUENRF> a cosmos_sdtm:SDTMVariable ;
    cosmos_sdtm:codelist NCIT:C66728 ;
    cosmos_sdtm:dataElementConceptId NCIT:C82557 ;
    cosmos_sdtm:dataType <https://www.cdisc.org/cosmos/sdtm_v1.0/SDTMVariableDataTypeEnum#text> ;
    cosmos_sdtm:isNonStandard false ;
    cosmos_sdtm:length 20 ;
    cosmos_sdtm:mandatoryValue false ;
    cosmos_sdtm:mandatoryVariable false ;
    cosmos_sdtm:name "SUENRF" ;
    cosmos_sdtm:originSource NCIT:C70793 ;
    cosmos_sdtm:originType NCIT:C170547 ;
    cosmos_sdtm:role <https://www.cdisc.org/cosmos/sdtm_v1.0/RoleEnum#Timing> ;
    cosmos_sdtm:valueList "AFTER",
        "BEFORE",
        "DURING",
        "DURING/AFTER",
        "UNKNOWN" .

<https://w3id.org/cdisc/cosmos/dss/SU/CIGARHX/SUENRTPT> a cosmos_sdtm:SDTMVariable ;
    cosmos_sdtm:codelist NCIT:C66728 ;
    cosmos_sdtm:dataElementConceptId NCIT:C82558 ;
    cosmos_sdtm:dataType <https://www.cdisc.org/cosmos/sdtm_v1.0/SDTMVariableDataTypeEnum#text> ;
    cosmos_sdtm:isNonStandard false ;
    cosmos_sdtm:length 20 ;
    cosmos_sdtm:mandatoryValue false ;
    cosmos_sdtm:mandatoryVariable false ;
    cosmos_sdtm:name "SUENRTPT" ;
    cosmos_sdtm:originSource NCIT:C70793 ;
    cosmos_sdtm:originType NCIT:C170547 ;
    cosmos_sdtm:role <https://www.cdisc.org/cosmos/sdtm_v1.0/RoleEnum#Timing> ;
    cosmos_sdtm:valueList "AFTER",
        "BEFORE",
        "COINCIDENT",
        "ONGOING",
        "UNKNOWN" .

<https://w3id.org/cdisc/cosmos/dss/SU/CIGARHX/SUENTPT> a cosmos_sdtm:SDTMVariable ;
    cosmos_sdtm:dataElementConceptId NCIT:C82574 ;
    cosmos_sdtm:dataType <https://www.cdisc.org/cosmos/sdtm_v1.0/SDTMVariableDataTypeEnum#text> ;
    cosmos_sdtm:isNonStandard false ;
    cosmos_sdtm:length 20 ;
    cosmos_sdtm:mandatoryValue false ;
    cosmos_sdtm:mandatoryVariable false ;
    cosmos_sdtm:name "SUENTPT" ;
    cosmos_sdtm:originSource NCIT:C70793 ;
    cosmos_sdtm:originType NCIT:C170547 ;
    cosmos_sdtm:role <https://www.cdisc.org/cosmos/sdtm_v1.0/RoleEnum#Timing> .

<https://w3id.org/cdisc/cosmos/dss/SU/CIGARHX/SUOCCUR> a cosmos_sdtm:SDTMVariable ;
    cosmos_sdtm:codelist NCIT:C66742 ;
    cosmos_sdtm:dataElementConceptId NCIT:C127786 ;
    cosmos_sdtm:dataType <https://www.cdisc.org/cosmos/sdtm_v1.0/SDTMVariableDataTypeEnum#text> ;
    cosmos_sdtm:isNonStandard false ;
    cosmos_sdtm:length 1 ;
    cosmos_sdtm:mandatoryValue false ;
    cosmos_sdtm:mandatoryVariable false ;
    cosmos_sdtm:name "SUOCCUR" ;
    cosmos_sdtm:originSource NCIT:C25936 ;
    cosmos_sdtm:originType NCIT:C170548 ;
    cosmos_sdtm:relationship <https://w3id.org/cdisc/cosmos/dss/SU/CIGARHX/SUOCCUR/relationship> ;
    cosmos_sdtm:role <https://www.cdisc.org/cosmos/sdtm_v1.0/RoleEnum#Qualifier> ;
    cosmos_sdtm:subsetCodelist "NY_NY" ;
    cosmos_sdtm:valueList "N",
        "Y" .

<https://w3id.org/cdisc/cosmos/dss/SU/CIGARHX/SUPRESP> a cosmos_sdtm:SDTMVariable ;
    cosmos_sdtm:codelist NCIT:C66742 ;
    cosmos_sdtm:dataElementConceptId NCIT:C171000 ;
    cosmos_sdtm:dataType <https://www.cdisc.org/cosmos/sdtm_v1.0/SDTMVariableDataTypeEnum#text> ;
    cosmos_sdtm:isNonStandard false ;
    cosmos_sdtm:length 1 ;
    cosmos_sdtm:mandatoryValue false ;
    cosmos_sdtm:mandatoryVariable false ;
    cosmos_sdtm:name "SUPRESP" ;
    cosmos_sdtm:originSource NCIT:C70793 ;
    cosmos_sdtm:originType NCIT:C170547 ;
    cosmos_sdtm:relationship <https://w3id.org/cdisc/cosmos/dss/SU/CIGARHX/SUPRESP/relationship> ;
    cosmos_sdtm:role <https://www.cdisc.org/cosmos/sdtm_v1.0/RoleEnum#Qualifier> ;
    cosmos_sdtm:subsetCodelist "NY_Y" ;
    cosmos_sdtm:valueList "Y" .

<https://w3id.org/cdisc/cosmos/dss/SU/CIGARHX/SUSCAT> a cosmos_sdtm:SDTMVariable ;
    cosmos_sdtm:dataElementConceptId NCIT:C25692 ;
    cosmos_sdtm:dataType <https://www.cdisc.org/cosmos/sdtm_v1.0/SDTMVariableDataTypeEnum#text> ;
    cosmos_sdtm:isNonStandard false ;
    cosmos_sdtm:length 200 ;
    cosmos_sdtm:mandatoryValue false ;
    cosmos_sdtm:mandatoryVariable false ;
    cosmos_sdtm:name "SUSCAT" ;
    cosmos_sdtm:originSource NCIT:C70793 ;
    cosmos_sdtm:originType NCIT:C170547 ;
    cosmos_sdtm:role <https://www.cdisc.org/cosmos/sdtm_v1.0/RoleEnum#Qualifier> .

<https://w3id.org/cdisc/cosmos/dss/SU/CIGARHX/SUSTDTC> a cosmos_sdtm:SDTMVariable ;
    cosmos_sdtm:dataElementConceptId NCIT:C83431 ;
    cosmos_sdtm:dataType <https://www.cdisc.org/cosmos/sdtm_v1.0/SDTMVariableDataTypeEnum#datetime> ;
    cosmos_sdtm:isNonStandard false ;
    cosmos_sdtm:mandatoryValue false ;
    cosmos_sdtm:mandatoryVariable false ;
    cosmos_sdtm:name "SUSTDTC" ;
    cosmos_sdtm:originSource NCIT:C25936 ;
    cosmos_sdtm:originType NCIT:C170548 ;
    cosmos_sdtm:relationship <https://w3id.org/cdisc/cosmos/dss/SU/CIGARHX/SUSTDTC/relationship> ;
    cosmos_sdtm:role <https://www.cdisc.org/cosmos/sdtm_v1.0/RoleEnum#Timing> .

<https://w3id.org/cdisc/cosmos/dss/SU/CIGARHX/SUSTRF> a cosmos_sdtm:SDTMVariable ;
    cosmos_sdtm:codelist NCIT:C66728 ;
    cosmos_sdtm:dataElementConceptId NCIT:C82559 ;
    cosmos_sdtm:dataType <https://www.cdisc.org/cosmos/sdtm_v1.0/SDTMVariableDataTypeEnum#text> ;
    cosmos_sdtm:isNonStandard false ;
    cosmos_sdtm:length 20 ;
    cosmos_sdtm:mandatoryValue false ;
    cosmos_sdtm:mandatoryVariable false ;
    cosmos_sdtm:name "SUSTRF" ;
    cosmos_sdtm:originSource NCIT:C70793 ;
    cosmos_sdtm:originType NCIT:C170547 ;
    cosmos_sdtm:role <https://www.cdisc.org/cosmos/sdtm_v1.0/RoleEnum#Timing> ;
    cosmos_sdtm:valueList "AFTER",
        "BEFORE",
        "DURING",
        "DURING/AFTER",
        "UNKNOWN" .

<https://w3id.org/cdisc/cosmos/dss/SU/CIGARHX/SUSTRTPT> a cosmos_sdtm:SDTMVariable ;
    cosmos_sdtm:codelist NCIT:C66728 ;
    cosmos_sdtm:dataElementConceptId NCIT:C82560 ;
    cosmos_sdtm:dataType <https://www.cdisc.org/cosmos/sdtm_v1.0/SDTMVariableDataTypeEnum#text> ;
    cosmos_sdtm:isNonStandard false ;
    cosmos_sdtm:length 20 ;
    cosmos_sdtm:mandatoryValue false ;
    cosmos_sdtm:mandatoryVariable false ;
    cosmos_sdtm:name "SUSTRTPT" ;
    cosmos_sdtm:originSource NCIT:C70793 ;
    cosmos_sdtm:originType NCIT:C170547 ;
    cosmos_sdtm:role <https://www.cdisc.org/cosmos/sdtm_v1.0/RoleEnum#Timing> ;
    cosmos_sdtm:valueList "AFTER",
        "BEFORE",
        "COINCIDENT",
        "ONGOING",
        "UNKNOWN" .

<https://w3id.org/cdisc/cosmos/dss/SU/CIGARHX/SUSTTPT> a cosmos_sdtm:SDTMVariable ;
    cosmos_sdtm:dataElementConceptId NCIT:C82575 ;
    cosmos_sdtm:dataType <https://www.cdisc.org/cosmos/sdtm_v1.0/SDTMVariableDataTypeEnum#text> ;
    cosmos_sdtm:isNonStandard false ;
    cosmos_sdtm:length 20 ;
    cosmos_sdtm:mandatoryValue false ;
    cosmos_sdtm:mandatoryVariable false ;
    cosmos_sdtm:name "SUSTTPT" ;
    cosmos_sdtm:originSource NCIT:C70793 ;
    cosmos_sdtm:originType NCIT:C170547 ;
    cosmos_sdtm:role <https://www.cdisc.org/cosmos/sdtm_v1.0/RoleEnum#Timing> .

<https://w3id.org/cdisc/cosmos/dss/SU/CIGARHX/SUTRT> a cosmos_sdtm:SDTMVariable ;
    cosmos_sdtm:assignedTerm <https://w3id.org/cdisc/cosmos/dss/SU/CIGARHX/SUTRT/assignedTerm> ;
    cosmos_sdtm:dataElementConceptId NCIT:C83092 ;
    cosmos_sdtm:dataType <https://www.cdisc.org/cosmos/sdtm_v1.0/SDTMVariableDataTypeEnum#text> ;
    cosmos_sdtm:isNonStandard false ;
    cosmos_sdtm:length 200 ;
    cosmos_sdtm:mandatoryValue true ;
    cosmos_sdtm:mandatoryVariable true ;
    cosmos_sdtm:name "SUTRT" ;
    cosmos_sdtm:originSource NCIT:C25936 ;
    cosmos_sdtm:originType NCIT:C170548 ;
    cosmos_sdtm:relationship <https://w3id.org/cdisc/cosmos/dss/SU/CIGARHX/SUTRT/relationship> ;
    cosmos_sdtm:role <https://www.cdisc.org/cosmos/sdtm_v1.0/RoleEnum#Topic> .

<https://w3id.org/cdisc/cosmos/dss/SU/COFFEEHX/SUCAT> a cosmos_sdtm:SDTMVariable ;
    cosmos_sdtm:assignedTerm <https://w3id.org/cdisc/cosmos/dss/SU/COFFEEHX/SUCAT/assignedTerm> ;
    cosmos_sdtm:dataElementConceptId NCIT:C25372 ;
    cosmos_sdtm:dataType <https://www.cdisc.org/cosmos/sdtm_v1.0/SDTMVariableDataTypeEnum#text> ;
    cosmos_sdtm:isNonStandard false ;
    cosmos_sdtm:length 200 ;
    cosmos_sdtm:mandatoryValue false ;
    cosmos_sdtm:mandatoryVariable false ;
    cosmos_sdtm:name "SUCAT" ;
    cosmos_sdtm:originSource NCIT:C70793 ;
    cosmos_sdtm:originType NCIT:C170547 ;
    cosmos_sdtm:role <https://www.cdisc.org/cosmos/sdtm_v1.0/RoleEnum#Qualifier> .

<https://w3id.org/cdisc/cosmos/dss/SU/COFFEEHX/SUDOSE> a cosmos_sdtm:SDTMVariable ;
    cosmos_sdtm:dataElementConceptId NCIT:C83416 ;
    cosmos_sdtm:dataType <https://www.cdisc.org/cosmos/sdtm_v1.0/SDTMVariableDataTypeEnum#float> ;
    cosmos_sdtm:format "12.4" ;
    cosmos_sdtm:isNonStandard false ;
    cosmos_sdtm:length 12 ;
    cosmos_sdtm:mandatoryValue false ;
    cosmos_sdtm:mandatoryVariable false ;
    cosmos_sdtm:name "SUDOSE" ;
    cosmos_sdtm:originSource NCIT:C25936 ;
    cosmos_sdtm:originType NCIT:C170548 ;
    cosmos_sdtm:relationship <https://w3id.org/cdisc/cosmos/dss/SU/COFFEEHX/SUDOSE/relationship> ;
    cosmos_sdtm:role <https://www.cdisc.org/cosmos/sdtm_v1.0/RoleEnum#Qualifier> ;
    cosmos_sdtm:significantDigits 4 .

<https://w3id.org/cdisc/cosmos/dss/SU/COFFEEHX/SUDOSFRQ> a cosmos_sdtm:SDTMVariable ;
    cosmos_sdtm:codelist NCIT:C71113 ;
    cosmos_sdtm:dataElementConceptId NCIT:C83044 ;
    cosmos_sdtm:dataType <https://www.cdisc.org/cosmos/sdtm_v1.0/SDTMVariableDataTypeEnum#text> ;
    cosmos_sdtm:isNonStandard false ;
    cosmos_sdtm:length 40 ;
    cosmos_sdtm:mandatoryValue false ;
    cosmos_sdtm:mandatoryVariable false ;
    cosmos_sdtm:name "SUDOSFRQ" ;
    cosmos_sdtm:originSource NCIT:C25936 ;
    cosmos_sdtm:originType NCIT:C170548 ;
    cosmos_sdtm:relationship <https://w3id.org/cdisc/cosmos/dss/SU/COFFEEHX/SUDOSFRQ/relationship> ;
    cosmos_sdtm:role <https://www.cdisc.org/cosmos/sdtm_v1.0/RoleEnum#Qualifier> ;
    cosmos_sdtm:valueList "Q7D",
        "QD" .

<https://w3id.org/cdisc/cosmos/dss/SU/COFFEEHX/SUDOSTXT> a cosmos_sdtm:SDTMVariable ;
    cosmos_sdtm:dataElementConceptId NCIT:C83041 ;
    cosmos_sdtm:dataType <https://www.cdisc.org/cosmos/sdtm_v1.0/SDTMVariableDataTypeEnum#text> ;
    cosmos_sdtm:isNonStandard false ;
    cosmos_sdtm:length 40 ;
    cosmos_sdtm:mandatoryValue false ;
    cosmos_sdtm:mandatoryVariable false ;
    cosmos_sdtm:name "SUDOSTXT" ;
    cosmos_sdtm:originSource NCIT:C25936 ;
    cosmos_sdtm:originType NCIT:C170548 ;
    cosmos_sdtm:relationship <https://w3id.org/cdisc/cosmos/dss/SU/COFFEEHX/SUDOSTXT/relationship> ;
    cosmos_sdtm:role <https://www.cdisc.org/cosmos/sdtm_v1.0/RoleEnum#Qualifier> .

<https://w3id.org/cdisc/cosmos/dss/SU/COFFEEHX/SUDOSU> a cosmos_sdtm:SDTMVariable ;
    cosmos_sdtm:codelist NCIT:C71620 ;
    cosmos_sdtm:dataElementConceptId NCIT:C83038 ;
    cosmos_sdtm:dataType <https://www.cdisc.org/cosmos/sdtm_v1.0/SDTMVariableDataTypeEnum#text> ;
    cosmos_sdtm:isNonStandard false ;
    cosmos_sdtm:length 40 ;
    cosmos_sdtm:mandatoryValue false ;
    cosmos_sdtm:mandatoryVariable false ;
    cosmos_sdtm:name "SUDOSU" ;
    cosmos_sdtm:originSource NCIT:C25936 ;
    cosmos_sdtm:originType NCIT:C170548 ;
    cosmos_sdtm:relationship <https://w3id.org/cdisc/cosmos/dss/SU/COFFEEHX/SUDOSU/relationship> ;
    cosmos_sdtm:role <https://www.cdisc.org/cosmos/sdtm_v1.0/RoleEnum#Qualifier> ;
    cosmos_sdtm:valueList "DRINK",
        "GLASS",
        "L",
        "mL",
        "oz" .

<https://w3id.org/cdisc/cosmos/dss/SU/COFFEEHX/SUENDTC> a cosmos_sdtm:SDTMVariable ;
    cosmos_sdtm:dataElementConceptId NCIT:C83419 ;
    cosmos_sdtm:dataType <https://www.cdisc.org/cosmos/sdtm_v1.0/SDTMVariableDataTypeEnum#datetime> ;
    cosmos_sdtm:isNonStandard false ;
    cosmos_sdtm:mandatoryValue false ;
    cosmos_sdtm:mandatoryVariable false ;
    cosmos_sdtm:name "SUENDTC" ;
    cosmos_sdtm:originSource NCIT:C25936 ;
    cosmos_sdtm:originType NCIT:C170548 ;
    cosmos_sdtm:relationship <https://w3id.org/cdisc/cosmos/dss/SU/COFFEEHX/SUENDTC/relationship> ;
    cosmos_sdtm:role <https://www.cdisc.org/cosmos/sdtm_v1.0/RoleEnum#Timing> .

<https://w3id.org/cdisc/cosmos/dss/SU/COFFEEHX/SUENRF> a cosmos_sdtm:SDTMVariable ;
    cosmos_sdtm:codelist NCIT:C66728 ;
    cosmos_sdtm:dataElementConceptId NCIT:C82557 ;
    cosmos_sdtm:dataType <https://www.cdisc.org/cosmos/sdtm_v1.0/SDTMVariableDataTypeEnum#text> ;
    cosmos_sdtm:isNonStandard false ;
    cosmos_sdtm:length 20 ;
    cosmos_sdtm:mandatoryValue false ;
    cosmos_sdtm:mandatoryVariable false ;
    cosmos_sdtm:name "SUENRF" ;
    cosmos_sdtm:originSource NCIT:C70793 ;
    cosmos_sdtm:originType NCIT:C170547 ;
    cosmos_sdtm:role <https://www.cdisc.org/cosmos/sdtm_v1.0/RoleEnum#Timing> ;
    cosmos_sdtm:valueList "AFTER",
        "BEFORE",
        "DURING",
        "DURING/AFTER",
        "UNKNOWN" .

<https://w3id.org/cdisc/cosmos/dss/SU/COFFEEHX/SUENRTPT> a cosmos_sdtm:SDTMVariable ;
    cosmos_sdtm:codelist NCIT:C66728 ;
    cosmos_sdtm:dataElementConceptId NCIT:C82558 ;
    cosmos_sdtm:dataType <https://www.cdisc.org/cosmos/sdtm_v1.0/SDTMVariableDataTypeEnum#text> ;
    cosmos_sdtm:isNonStandard false ;
    cosmos_sdtm:length 20 ;
    cosmos_sdtm:mandatoryValue false ;
    cosmos_sdtm:mandatoryVariable false ;
    cosmos_sdtm:name "SUENRTPT" ;
    cosmos_sdtm:originSource NCIT:C70793 ;
    cosmos_sdtm:originType NCIT:C170547 ;
    cosmos_sdtm:role <https://www.cdisc.org/cosmos/sdtm_v1.0/RoleEnum#Timing> ;
    cosmos_sdtm:valueList "AFTER",
        "BEFORE",
        "COINCIDENT",
        "ONGOING",
        "UNKNOWN" .

<https://w3id.org/cdisc/cosmos/dss/SU/COFFEEHX/SUENTPT> a cosmos_sdtm:SDTMVariable ;
    cosmos_sdtm:dataElementConceptId NCIT:C82574 ;
    cosmos_sdtm:dataType <https://www.cdisc.org/cosmos/sdtm_v1.0/SDTMVariableDataTypeEnum#text> ;
    cosmos_sdtm:isNonStandard false ;
    cosmos_sdtm:length 20 ;
    cosmos_sdtm:mandatoryValue false ;
    cosmos_sdtm:mandatoryVariable false ;
    cosmos_sdtm:name "SUENTPT" ;
    cosmos_sdtm:originSource NCIT:C70793 ;
    cosmos_sdtm:originType NCIT:C170547 ;
    cosmos_sdtm:role <https://www.cdisc.org/cosmos/sdtm_v1.0/RoleEnum#Timing> .

<https://w3id.org/cdisc/cosmos/dss/SU/COFFEEHX/SUOCCUR> a cosmos_sdtm:SDTMVariable ;
    cosmos_sdtm:codelist NCIT:C66742 ;
    cosmos_sdtm:dataElementConceptId NCIT:C127786 ;
    cosmos_sdtm:dataType <https://www.cdisc.org/cosmos/sdtm_v1.0/SDTMVariableDataTypeEnum#text> ;
    cosmos_sdtm:isNonStandard false ;
    cosmos_sdtm:length 1 ;
    cosmos_sdtm:mandatoryValue false ;
    cosmos_sdtm:mandatoryVariable false ;
    cosmos_sdtm:name "SUOCCUR" ;
    cosmos_sdtm:originSource NCIT:C25936 ;
    cosmos_sdtm:originType NCIT:C170548 ;
    cosmos_sdtm:relationship <https://w3id.org/cdisc/cosmos/dss/SU/COFFEEHX/SUOCCUR/relationship> ;
    cosmos_sdtm:role <https://www.cdisc.org/cosmos/sdtm_v1.0/RoleEnum#Qualifier> ;
    cosmos_sdtm:subsetCodelist "NY_NY" ;
    cosmos_sdtm:valueList "N",
        "Y" .

<https://w3id.org/cdisc/cosmos/dss/SU/COFFEEHX/SUPRESP> a cosmos_sdtm:SDTMVariable ;
    cosmos_sdtm:codelist NCIT:C66742 ;
    cosmos_sdtm:dataElementConceptId NCIT:C171000 ;
    cosmos_sdtm:dataType <https://www.cdisc.org/cosmos/sdtm_v1.0/SDTMVariableDataTypeEnum#text> ;
    cosmos_sdtm:isNonStandard false ;
    cosmos_sdtm:length 1 ;
    cosmos_sdtm:mandatoryValue false ;
    cosmos_sdtm:mandatoryVariable false ;
    cosmos_sdtm:name "SUPRESP" ;
    cosmos_sdtm:originSource NCIT:C70793 ;
    cosmos_sdtm:originType NCIT:C170547 ;
    cosmos_sdtm:relationship <https://w3id.org/cdisc/cosmos/dss/SU/COFFEEHX/SUPRESP/relationship> ;
    cosmos_sdtm:role <https://www.cdisc.org/cosmos/sdtm_v1.0/RoleEnum#Qualifier> ;
    cosmos_sdtm:subsetCodelist "NY_Y" ;
    cosmos_sdtm:valueList "Y" .

<https://w3id.org/cdisc/cosmos/dss/SU/COFFEEHX/SUSCAT> a cosmos_sdtm:SDTMVariable ;
    cosmos_sdtm:dataElementConceptId NCIT:C25692 ;
    cosmos_sdtm:dataType <https://www.cdisc.org/cosmos/sdtm_v1.0/SDTMVariableDataTypeEnum#text> ;
    cosmos_sdtm:isNonStandard false ;
    cosmos_sdtm:length 200 ;
    cosmos_sdtm:mandatoryValue false ;
    cosmos_sdtm:mandatoryVariable false ;
    cosmos_sdtm:name "SUSCAT" ;
    cosmos_sdtm:originSource NCIT:C70793 ;
    cosmos_sdtm:originType NCIT:C170547 ;
    cosmos_sdtm:role <https://www.cdisc.org/cosmos/sdtm_v1.0/RoleEnum#Qualifier> .

<https://w3id.org/cdisc/cosmos/dss/SU/COFFEEHX/SUSTDTC> a cosmos_sdtm:SDTMVariable ;
    cosmos_sdtm:dataElementConceptId NCIT:C83431 ;
    cosmos_sdtm:dataType <https://www.cdisc.org/cosmos/sdtm_v1.0/SDTMVariableDataTypeEnum#datetime> ;
    cosmos_sdtm:isNonStandard false ;
    cosmos_sdtm:mandatoryValue false ;
    cosmos_sdtm:mandatoryVariable false ;
    cosmos_sdtm:name "SUSTDTC" ;
    cosmos_sdtm:originSource NCIT:C25936 ;
    cosmos_sdtm:originType NCIT:C170548 ;
    cosmos_sdtm:relationship <https://w3id.org/cdisc/cosmos/dss/SU/COFFEEHX/SUSTDTC/relationship> ;
    cosmos_sdtm:role <https://www.cdisc.org/cosmos/sdtm_v1.0/RoleEnum#Timing> .

<https://w3id.org/cdisc/cosmos/dss/SU/COFFEEHX/SUSTRF> a cosmos_sdtm:SDTMVariable ;
    cosmos_sdtm:codelist NCIT:C66728 ;
    cosmos_sdtm:dataElementConceptId NCIT:C82559 ;
    cosmos_sdtm:dataType <https://www.cdisc.org/cosmos/sdtm_v1.0/SDTMVariableDataTypeEnum#text> ;
    cosmos_sdtm:isNonStandard false ;
    cosmos_sdtm:length 20 ;
    cosmos_sdtm:mandatoryValue false ;
    cosmos_sdtm:mandatoryVariable false ;
    cosmos_sdtm:name "SUSTRF" ;
    cosmos_sdtm:originSource NCIT:C70793 ;
    cosmos_sdtm:originType NCIT:C170547 ;
    cosmos_sdtm:role <https://www.cdisc.org/cosmos/sdtm_v1.0/RoleEnum#Timing> ;
    cosmos_sdtm:valueList "AFTER",
        "BEFORE",
        "DURING",
        "DURING/AFTER",
        "UNKNOWN" .

<https://w3id.org/cdisc/cosmos/dss/SU/COFFEEHX/SUSTRTPT> a cosmos_sdtm:SDTMVariable ;
    cosmos_sdtm:codelist NCIT:C66728 ;
    cosmos_sdtm:dataElementConceptId NCIT:C82560 ;
    cosmos_sdtm:dataType <https://www.cdisc.org/cosmos/sdtm_v1.0/SDTMVariableDataTypeEnum#text> ;
    cosmos_sdtm:isNonStandard false ;
    cosmos_sdtm:length 20 ;
    cosmos_sdtm:mandatoryValue false ;
    cosmos_sdtm:mandatoryVariable false ;
    cosmos_sdtm:name "SUSTRTPT" ;
    cosmos_sdtm:originSource NCIT:C70793 ;
    cosmos_sdtm:originType NCIT:C170547 ;
    cosmos_sdtm:role <https://www.cdisc.org/cosmos/sdtm_v1.0/RoleEnum#Timing> ;
    cosmos_sdtm:valueList "AFTER",
        "BEFORE",
        "COINCIDENT",
        "ONGOING",
        "UNKNOWN" .

<https://w3id.org/cdisc/cosmos/dss/SU/COFFEEHX/SUSTTPT> a cosmos_sdtm:SDTMVariable ;
    cosmos_sdtm:dataElementConceptId NCIT:C82575 ;
    cosmos_sdtm:dataType <https://www.cdisc.org/cosmos/sdtm_v1.0/SDTMVariableDataTypeEnum#text> ;
    cosmos_sdtm:isNonStandard false ;
    cosmos_sdtm:length 20 ;
    cosmos_sdtm:mandatoryValue false ;
    cosmos_sdtm:mandatoryVariable false ;
    cosmos_sdtm:name "SUSTTPT" ;
    cosmos_sdtm:originSource NCIT:C70793 ;
    cosmos_sdtm:originType NCIT:C170547 ;
    cosmos_sdtm:role <https://www.cdisc.org/cosmos/sdtm_v1.0/RoleEnum#Timing> .

<https://w3id.org/cdisc/cosmos/dss/SU/COFFEEHX/SUTRT> a cosmos_sdtm:SDTMVariable ;
    cosmos_sdtm:assignedTerm <https://w3id.org/cdisc/cosmos/dss/SU/COFFEEHX/SUTRT/assignedTerm> ;
    cosmos_sdtm:dataElementConceptId NCIT:C83092 ;
    cosmos_sdtm:dataType <https://www.cdisc.org/cosmos/sdtm_v1.0/SDTMVariableDataTypeEnum#text> ;
    cosmos_sdtm:isNonStandard false ;
    cosmos_sdtm:length 200 ;
    cosmos_sdtm:mandatoryValue true ;
    cosmos_sdtm:mandatoryVariable true ;
    cosmos_sdtm:name "SUTRT" ;
    cosmos_sdtm:originSource NCIT:C25936 ;
    cosmos_sdtm:originType NCIT:C170548 ;
    cosmos_sdtm:relationship <https://w3id.org/cdisc/cosmos/dss/SU/COFFEEHX/SUTRT/relationship> ;
    cosmos_sdtm:role <https://www.cdisc.org/cosmos/sdtm_v1.0/RoleEnum#Topic> .

<https://w3id.org/cdisc/cosmos/dss/SU/COLAHX/SUCAT> a cosmos_sdtm:SDTMVariable ;
    cosmos_sdtm:assignedTerm <https://w3id.org/cdisc/cosmos/dss/SU/COLAHX/SUCAT/assignedTerm> ;
    cosmos_sdtm:dataElementConceptId NCIT:C25372 ;
    cosmos_sdtm:dataType <https://www.cdisc.org/cosmos/sdtm_v1.0/SDTMVariableDataTypeEnum#text> ;
    cosmos_sdtm:isNonStandard false ;
    cosmos_sdtm:length 200 ;
    cosmos_sdtm:mandatoryValue false ;
    cosmos_sdtm:mandatoryVariable false ;
    cosmos_sdtm:name "SUCAT" ;
    cosmos_sdtm:originSource NCIT:C70793 ;
    cosmos_sdtm:originType NCIT:C170547 ;
    cosmos_sdtm:role <https://www.cdisc.org/cosmos/sdtm_v1.0/RoleEnum#Qualifier> .

<https://w3id.org/cdisc/cosmos/dss/SU/COLAHX/SUDOSE> a cosmos_sdtm:SDTMVariable ;
    cosmos_sdtm:dataElementConceptId NCIT:C83416 ;
    cosmos_sdtm:dataType <https://www.cdisc.org/cosmos/sdtm_v1.0/SDTMVariableDataTypeEnum#float> ;
    cosmos_sdtm:format "12.4" ;
    cosmos_sdtm:isNonStandard false ;
    cosmos_sdtm:length 12 ;
    cosmos_sdtm:mandatoryValue false ;
    cosmos_sdtm:mandatoryVariable false ;
    cosmos_sdtm:name "SUDOSE" ;
    cosmos_sdtm:originSource NCIT:C25936 ;
    cosmos_sdtm:originType NCIT:C170548 ;
    cosmos_sdtm:relationship <https://w3id.org/cdisc/cosmos/dss/SU/COLAHX/SUDOSE/relationship> ;
    cosmos_sdtm:role <https://www.cdisc.org/cosmos/sdtm_v1.0/RoleEnum#Qualifier> ;
    cosmos_sdtm:significantDigits 4 .

<https://w3id.org/cdisc/cosmos/dss/SU/COLAHX/SUDOSFRQ> a cosmos_sdtm:SDTMVariable ;
    cosmos_sdtm:codelist NCIT:C71113 ;
    cosmos_sdtm:dataElementConceptId NCIT:C83044 ;
    cosmos_sdtm:dataType <https://www.cdisc.org/cosmos/sdtm_v1.0/SDTMVariableDataTypeEnum#text> ;
    cosmos_sdtm:isNonStandard false ;
    cosmos_sdtm:length 40 ;
    cosmos_sdtm:mandatoryValue false ;
    cosmos_sdtm:mandatoryVariable false ;
    cosmos_sdtm:name "SUDOSFRQ" ;
    cosmos_sdtm:originSource NCIT:C25936 ;
    cosmos_sdtm:originType NCIT:C170548 ;
    cosmos_sdtm:relationship <https://w3id.org/cdisc/cosmos/dss/SU/COLAHX/SUDOSFRQ/relationship> ;
    cosmos_sdtm:role <https://www.cdisc.org/cosmos/sdtm_v1.0/RoleEnum#Qualifier> ;
    cosmos_sdtm:valueList "Q7D",
        "QD" .

<https://w3id.org/cdisc/cosmos/dss/SU/COLAHX/SUDOSTXT> a cosmos_sdtm:SDTMVariable ;
    cosmos_sdtm:dataElementConceptId NCIT:C83041 ;
    cosmos_sdtm:dataType <https://www.cdisc.org/cosmos/sdtm_v1.0/SDTMVariableDataTypeEnum#text> ;
    cosmos_sdtm:isNonStandard false ;
    cosmos_sdtm:length 40 ;
    cosmos_sdtm:mandatoryValue false ;
    cosmos_sdtm:mandatoryVariable false ;
    cosmos_sdtm:name "SUDOSTXT" ;
    cosmos_sdtm:originSource NCIT:C25936 ;
    cosmos_sdtm:originType NCIT:C170548 ;
    cosmos_sdtm:relationship <https://w3id.org/cdisc/cosmos/dss/SU/COLAHX/SUDOSTXT/relationship> ;
    cosmos_sdtm:role <https://www.cdisc.org/cosmos/sdtm_v1.0/RoleEnum#Qualifier> ;
    cosmos_sdtm:valueList "DRINK",
        "GLASS",
        "L",
        "mL",
        "oz" .

<https://w3id.org/cdisc/cosmos/dss/SU/COLAHX/SUDOSU> a cosmos_sdtm:SDTMVariable ;
    cosmos_sdtm:codelist NCIT:C71620 ;
    cosmos_sdtm:dataElementConceptId NCIT:C83038 ;
    cosmos_sdtm:dataType <https://www.cdisc.org/cosmos/sdtm_v1.0/SDTMVariableDataTypeEnum#text> ;
    cosmos_sdtm:isNonStandard false ;
    cosmos_sdtm:length 40 ;
    cosmos_sdtm:mandatoryValue false ;
    cosmos_sdtm:mandatoryVariable false ;
    cosmos_sdtm:name "SUDOSU" ;
    cosmos_sdtm:originSource NCIT:C25936 ;
    cosmos_sdtm:originType NCIT:C170548 ;
    cosmos_sdtm:relationship <https://w3id.org/cdisc/cosmos/dss/SU/COLAHX/SUDOSU/relationship> ;
    cosmos_sdtm:role <https://www.cdisc.org/cosmos/sdtm_v1.0/RoleEnum#Qualifier> .

<https://w3id.org/cdisc/cosmos/dss/SU/COLAHX/SUENDTC> a cosmos_sdtm:SDTMVariable ;
    cosmos_sdtm:dataElementConceptId NCIT:C83419 ;
    cosmos_sdtm:dataType <https://www.cdisc.org/cosmos/sdtm_v1.0/SDTMVariableDataTypeEnum#datetime> ;
    cosmos_sdtm:isNonStandard false ;
    cosmos_sdtm:mandatoryValue false ;
    cosmos_sdtm:mandatoryVariable false ;
    cosmos_sdtm:name "SUENDTC" ;
    cosmos_sdtm:originSource NCIT:C25936 ;
    cosmos_sdtm:originType NCIT:C170548 ;
    cosmos_sdtm:relationship <https://w3id.org/cdisc/cosmos/dss/SU/COLAHX/SUENDTC/relationship> ;
    cosmos_sdtm:role <https://www.cdisc.org/cosmos/sdtm_v1.0/RoleEnum#Timing> .

<https://w3id.org/cdisc/cosmos/dss/SU/COLAHX/SUENRF> a cosmos_sdtm:SDTMVariable ;
    cosmos_sdtm:codelist NCIT:C66728 ;
    cosmos_sdtm:dataElementConceptId NCIT:C82557 ;
    cosmos_sdtm:dataType <https://www.cdisc.org/cosmos/sdtm_v1.0/SDTMVariableDataTypeEnum#text> ;
    cosmos_sdtm:isNonStandard false ;
    cosmos_sdtm:length 20 ;
    cosmos_sdtm:mandatoryValue false ;
    cosmos_sdtm:mandatoryVariable false ;
    cosmos_sdtm:name "SUENRF" ;
    cosmos_sdtm:originSource NCIT:C70793 ;
    cosmos_sdtm:originType NCIT:C170547 ;
    cosmos_sdtm:role <https://www.cdisc.org/cosmos/sdtm_v1.0/RoleEnum#Timing> ;
    cosmos_sdtm:valueList "AFTER",
        "BEFORE",
        "DURING",
        "DURING/AFTER",
        "UNKNOWN" .

<https://w3id.org/cdisc/cosmos/dss/SU/COLAHX/SUENRTPT> a cosmos_sdtm:SDTMVariable ;
    cosmos_sdtm:codelist NCIT:C66728 ;
    cosmos_sdtm:dataElementConceptId NCIT:C82558 ;
    cosmos_sdtm:dataType <https://www.cdisc.org/cosmos/sdtm_v1.0/SDTMVariableDataTypeEnum#text> ;
    cosmos_sdtm:isNonStandard false ;
    cosmos_sdtm:length 20 ;
    cosmos_sdtm:mandatoryValue false ;
    cosmos_sdtm:mandatoryVariable false ;
    cosmos_sdtm:name "SUENRTPT" ;
    cosmos_sdtm:originSource NCIT:C70793 ;
    cosmos_sdtm:originType NCIT:C170547 ;
    cosmos_sdtm:role <https://www.cdisc.org/cosmos/sdtm_v1.0/RoleEnum#Timing> ;
    cosmos_sdtm:valueList "AFTER",
        "BEFORE",
        "COINCIDENT",
        "ONGOING",
        "UNKNOWN" .

<https://w3id.org/cdisc/cosmos/dss/SU/COLAHX/SUENTPT> a cosmos_sdtm:SDTMVariable ;
    cosmos_sdtm:dataElementConceptId NCIT:C82574 ;
    cosmos_sdtm:dataType <https://www.cdisc.org/cosmos/sdtm_v1.0/SDTMVariableDataTypeEnum#text> ;
    cosmos_sdtm:isNonStandard false ;
    cosmos_sdtm:length 20 ;
    cosmos_sdtm:mandatoryValue false ;
    cosmos_sdtm:mandatoryVariable false ;
    cosmos_sdtm:name "SUENTPT" ;
    cosmos_sdtm:originSource NCIT:C70793 ;
    cosmos_sdtm:originType NCIT:C170547 ;
    cosmos_sdtm:role <https://www.cdisc.org/cosmos/sdtm_v1.0/RoleEnum#Timing> .

<https://w3id.org/cdisc/cosmos/dss/SU/COLAHX/SUOCCUR> a cosmos_sdtm:SDTMVariable ;
    cosmos_sdtm:codelist NCIT:C66742 ;
    cosmos_sdtm:dataElementConceptId NCIT:C127786 ;
    cosmos_sdtm:dataType <https://www.cdisc.org/cosmos/sdtm_v1.0/SDTMVariableDataTypeEnum#text> ;
    cosmos_sdtm:isNonStandard false ;
    cosmos_sdtm:length 1 ;
    cosmos_sdtm:mandatoryValue false ;
    cosmos_sdtm:mandatoryVariable false ;
    cosmos_sdtm:name "SUOCCUR" ;
    cosmos_sdtm:originSource NCIT:C25936 ;
    cosmos_sdtm:originType NCIT:C170548 ;
    cosmos_sdtm:relationship <https://w3id.org/cdisc/cosmos/dss/SU/COLAHX/SUOCCUR/relationship> ;
    cosmos_sdtm:role <https://www.cdisc.org/cosmos/sdtm_v1.0/RoleEnum#Qualifier> ;
    cosmos_sdtm:subsetCodelist "NY_NY" ;
    cosmos_sdtm:valueList "N",
        "Y" .

<https://w3id.org/cdisc/cosmos/dss/SU/COLAHX/SUPRESP> a cosmos_sdtm:SDTMVariable ;
    cosmos_sdtm:codelist NCIT:C66742 ;
    cosmos_sdtm:dataElementConceptId NCIT:C171000 ;
    cosmos_sdtm:dataType <https://www.cdisc.org/cosmos/sdtm_v1.0/SDTMVariableDataTypeEnum#text> ;
    cosmos_sdtm:isNonStandard false ;
    cosmos_sdtm:length 1 ;
    cosmos_sdtm:mandatoryValue false ;
    cosmos_sdtm:mandatoryVariable false ;
    cosmos_sdtm:name "SUPRESP" ;
    cosmos_sdtm:originSource NCIT:C70793 ;
    cosmos_sdtm:originType NCIT:C170547 ;
    cosmos_sdtm:relationship <https://w3id.org/cdisc/cosmos/dss/SU/COLAHX/SUPRESP/relationship> ;
    cosmos_sdtm:role <https://www.cdisc.org/cosmos/sdtm_v1.0/RoleEnum#Qualifier> ;
    cosmos_sdtm:subsetCodelist "NY_Y" ;
    cosmos_sdtm:valueList "Y" .

<https://w3id.org/cdisc/cosmos/dss/SU/COLAHX/SUSCAT> a cosmos_sdtm:SDTMVariable ;
    cosmos_sdtm:dataElementConceptId NCIT:C25692 ;
    cosmos_sdtm:dataType <https://www.cdisc.org/cosmos/sdtm_v1.0/SDTMVariableDataTypeEnum#text> ;
    cosmos_sdtm:isNonStandard false ;
    cosmos_sdtm:length 200 ;
    cosmos_sdtm:mandatoryValue false ;
    cosmos_sdtm:mandatoryVariable false ;
    cosmos_sdtm:name "SUSCAT" ;
    cosmos_sdtm:originSource NCIT:C70793 ;
    cosmos_sdtm:originType NCIT:C170547 ;
    cosmos_sdtm:role <https://www.cdisc.org/cosmos/sdtm_v1.0/RoleEnum#Qualifier> .

<https://w3id.org/cdisc/cosmos/dss/SU/COLAHX/SUSTDTC> a cosmos_sdtm:SDTMVariable ;
    cosmos_sdtm:dataElementConceptId NCIT:C83431 ;
    cosmos_sdtm:dataType <https://www.cdisc.org/cosmos/sdtm_v1.0/SDTMVariableDataTypeEnum#datetime> ;
    cosmos_sdtm:isNonStandard false ;
    cosmos_sdtm:mandatoryValue false ;
    cosmos_sdtm:mandatoryVariable false ;
    cosmos_sdtm:name "SUSTDTC" ;
    cosmos_sdtm:originSource NCIT:C25936 ;
    cosmos_sdtm:originType NCIT:C170548 ;
    cosmos_sdtm:relationship <https://w3id.org/cdisc/cosmos/dss/SU/COLAHX/SUSTDTC/relationship> ;
    cosmos_sdtm:role <https://www.cdisc.org/cosmos/sdtm_v1.0/RoleEnum#Timing> .

<https://w3id.org/cdisc/cosmos/dss/SU/COLAHX/SUSTRF> a cosmos_sdtm:SDTMVariable ;
    cosmos_sdtm:codelist NCIT:C66728 ;
    cosmos_sdtm:dataElementConceptId NCIT:C82559 ;
    cosmos_sdtm:dataType <https://www.cdisc.org/cosmos/sdtm_v1.0/SDTMVariableDataTypeEnum#text> ;
    cosmos_sdtm:isNonStandard false ;
    cosmos_sdtm:length 20 ;
    cosmos_sdtm:mandatoryValue false ;
    cosmos_sdtm:mandatoryVariable false ;
    cosmos_sdtm:name "SUSTRF" ;
    cosmos_sdtm:originSource NCIT:C70793 ;
    cosmos_sdtm:originType NCIT:C170547 ;
    cosmos_sdtm:role <https://www.cdisc.org/cosmos/sdtm_v1.0/RoleEnum#Timing> ;
    cosmos_sdtm:valueList "AFTER",
        "BEFORE",
        "DURING",
        "DURING/AFTER",
        "UNKNOWN" .

<https://w3id.org/cdisc/cosmos/dss/SU/COLAHX/SUSTRTPT> a cosmos_sdtm:SDTMVariable ;
    cosmos_sdtm:codelist NCIT:C66728 ;
    cosmos_sdtm:dataElementConceptId NCIT:C82560 ;
    cosmos_sdtm:dataType <https://www.cdisc.org/cosmos/sdtm_v1.0/SDTMVariableDataTypeEnum#text> ;
    cosmos_sdtm:isNonStandard false ;
    cosmos_sdtm:length 20 ;
    cosmos_sdtm:mandatoryValue false ;
    cosmos_sdtm:mandatoryVariable false ;
    cosmos_sdtm:name "SUSTRTPT" ;
    cosmos_sdtm:originSource NCIT:C70793 ;
    cosmos_sdtm:originType NCIT:C170547 ;
    cosmos_sdtm:role <https://www.cdisc.org/cosmos/sdtm_v1.0/RoleEnum#Timing> ;
    cosmos_sdtm:valueList "AFTER",
        "BEFORE",
        "COINCIDENT",
        "ONGOING",
        "UNKNOWN" .

<https://w3id.org/cdisc/cosmos/dss/SU/COLAHX/SUSTTPT> a cosmos_sdtm:SDTMVariable ;
    cosmos_sdtm:dataElementConceptId NCIT:C82575 ;
    cosmos_sdtm:dataType <https://www.cdisc.org/cosmos/sdtm_v1.0/SDTMVariableDataTypeEnum#text> ;
    cosmos_sdtm:isNonStandard false ;
    cosmos_sdtm:length 20 ;
    cosmos_sdtm:mandatoryValue false ;
    cosmos_sdtm:mandatoryVariable false ;
    cosmos_sdtm:name "SUSTTPT" ;
    cosmos_sdtm:originSource NCIT:C70793 ;
    cosmos_sdtm:originType NCIT:C170547 ;
    cosmos_sdtm:role <https://www.cdisc.org/cosmos/sdtm_v1.0/RoleEnum#Timing> .

<https://w3id.org/cdisc/cosmos/dss/SU/COLAHX/SUTRT> a cosmos_sdtm:SDTMVariable ;
    cosmos_sdtm:assignedTerm <https://w3id.org/cdisc/cosmos/dss/SU/COLAHX/SUTRT/assignedTerm> ;
    cosmos_sdtm:dataElementConceptId NCIT:C83092 ;
    cosmos_sdtm:dataType <https://www.cdisc.org/cosmos/sdtm_v1.0/SDTMVariableDataTypeEnum#text> ;
    cosmos_sdtm:isNonStandard false ;
    cosmos_sdtm:length 200 ;
    cosmos_sdtm:mandatoryValue true ;
    cosmos_sdtm:mandatoryVariable true ;
    cosmos_sdtm:name "SUTRT" ;
    cosmos_sdtm:originSource NCIT:C25936 ;
    cosmos_sdtm:originType NCIT:C170548 ;
    cosmos_sdtm:relationship <https://w3id.org/cdisc/cosmos/dss/SU/COLAHX/SUTRT/relationship> ;
    cosmos_sdtm:role <https://www.cdisc.org/cosmos/sdtm_v1.0/RoleEnum#Topic> .

<https://w3id.org/cdisc/cosmos/dss/SU/DISTILLEDSPIRITSHX/SUCAT> a cosmos_sdtm:SDTMVariable ;
    cosmos_sdtm:assignedTerm <https://w3id.org/cdisc/cosmos/dss/SU/DISTILLEDSPIRITSHX/SUCAT/assignedTerm> ;
    cosmos_sdtm:dataElementConceptId NCIT:C25372 ;
    cosmos_sdtm:dataType <https://www.cdisc.org/cosmos/sdtm_v1.0/SDTMVariableDataTypeEnum#text> ;
    cosmos_sdtm:isNonStandard false ;
    cosmos_sdtm:length 200 ;
    cosmos_sdtm:mandatoryValue false ;
    cosmos_sdtm:mandatoryVariable false ;
    cosmos_sdtm:name "SUCAT" ;
    cosmos_sdtm:originSource NCIT:C70793 ;
    cosmos_sdtm:originType NCIT:C170547 ;
    cosmos_sdtm:role <https://www.cdisc.org/cosmos/sdtm_v1.0/RoleEnum#Qualifier> .

<https://w3id.org/cdisc/cosmos/dss/SU/DISTILLEDSPIRITSHX/SUDOSE> a cosmos_sdtm:SDTMVariable ;
    cosmos_sdtm:dataElementConceptId NCIT:C83416 ;
    cosmos_sdtm:dataType <https://www.cdisc.org/cosmos/sdtm_v1.0/SDTMVariableDataTypeEnum#float> ;
    cosmos_sdtm:format "12.4" ;
    cosmos_sdtm:isNonStandard false ;
    cosmos_sdtm:length 12 ;
    cosmos_sdtm:mandatoryValue false ;
    cosmos_sdtm:mandatoryVariable false ;
    cosmos_sdtm:name "SUDOSE" ;
    cosmos_sdtm:originSource NCIT:C25936 ;
    cosmos_sdtm:originType NCIT:C170548 ;
    cosmos_sdtm:relationship <https://w3id.org/cdisc/cosmos/dss/SU/DISTILLEDSPIRITSHX/SUDOSE/relationship> ;
    cosmos_sdtm:role <https://www.cdisc.org/cosmos/sdtm_v1.0/RoleEnum#Qualifier> ;
    cosmos_sdtm:significantDigits 4 .

<https://w3id.org/cdisc/cosmos/dss/SU/DISTILLEDSPIRITSHX/SUDOSFRQ> a cosmos_sdtm:SDTMVariable ;
    cosmos_sdtm:codelist NCIT:C71113 ;
    cosmos_sdtm:dataElementConceptId NCIT:C83044 ;
    cosmos_sdtm:dataType <https://www.cdisc.org/cosmos/sdtm_v1.0/SDTMVariableDataTypeEnum#text> ;
    cosmos_sdtm:isNonStandard false ;
    cosmos_sdtm:length 40 ;
    cosmos_sdtm:mandatoryValue false ;
    cosmos_sdtm:mandatoryVariable false ;
    cosmos_sdtm:name "SUDOSFRQ" ;
    cosmos_sdtm:originSource NCIT:C25936 ;
    cosmos_sdtm:originType NCIT:C170548 ;
    cosmos_sdtm:relationship <https://w3id.org/cdisc/cosmos/dss/SU/DISTILLEDSPIRITSHX/SUDOSFRQ/relationship> ;
    cosmos_sdtm:role <https://www.cdisc.org/cosmos/sdtm_v1.0/RoleEnum#Qualifier> ;
    cosmos_sdtm:valueList "Q7D",
        "QD" .

<https://w3id.org/cdisc/cosmos/dss/SU/DISTILLEDSPIRITSHX/SUDOSTXT> a cosmos_sdtm:SDTMVariable ;
    cosmos_sdtm:dataElementConceptId NCIT:C83041 ;
    cosmos_sdtm:dataType <https://www.cdisc.org/cosmos/sdtm_v1.0/SDTMVariableDataTypeEnum#text> ;
    cosmos_sdtm:isNonStandard false ;
    cosmos_sdtm:length 40 ;
    cosmos_sdtm:mandatoryValue false ;
    cosmos_sdtm:mandatoryVariable false ;
    cosmos_sdtm:name "SUDOSTXT" ;
    cosmos_sdtm:originSource NCIT:C25936 ;
    cosmos_sdtm:originType NCIT:C170548 ;
    cosmos_sdtm:relationship <https://w3id.org/cdisc/cosmos/dss/SU/DISTILLEDSPIRITSHX/SUDOSTXT/relationship> ;
    cosmos_sdtm:role <https://www.cdisc.org/cosmos/sdtm_v1.0/RoleEnum#Qualifier> ;
    cosmos_sdtm:valueList "DRINK",
        "GLASS",
        "L",
        "mL",
        "oz" .

<https://w3id.org/cdisc/cosmos/dss/SU/DISTILLEDSPIRITSHX/SUDOSU> a cosmos_sdtm:SDTMVariable ;
    cosmos_sdtm:codelist NCIT:C71620 ;
    cosmos_sdtm:dataElementConceptId NCIT:C83038 ;
    cosmos_sdtm:dataType <https://www.cdisc.org/cosmos/sdtm_v1.0/SDTMVariableDataTypeEnum#text> ;
    cosmos_sdtm:isNonStandard false ;
    cosmos_sdtm:length 40 ;
    cosmos_sdtm:mandatoryValue false ;
    cosmos_sdtm:mandatoryVariable false ;
    cosmos_sdtm:name "SUDOSU" ;
    cosmos_sdtm:originSource NCIT:C25936 ;
    cosmos_sdtm:originType NCIT:C170548 ;
    cosmos_sdtm:relationship <https://w3id.org/cdisc/cosmos/dss/SU/DISTILLEDSPIRITSHX/SUDOSU/relationship> ;
    cosmos_sdtm:role <https://www.cdisc.org/cosmos/sdtm_v1.0/RoleEnum#Qualifier> .

<https://w3id.org/cdisc/cosmos/dss/SU/DISTILLEDSPIRITSHX/SUENDTC> a cosmos_sdtm:SDTMVariable ;
    cosmos_sdtm:dataElementConceptId NCIT:C83419 ;
    cosmos_sdtm:dataType <https://www.cdisc.org/cosmos/sdtm_v1.0/SDTMVariableDataTypeEnum#datetime> ;
    cosmos_sdtm:isNonStandard false ;
    cosmos_sdtm:mandatoryValue false ;
    cosmos_sdtm:mandatoryVariable false ;
    cosmos_sdtm:name "SUENDTC" ;
    cosmos_sdtm:originSource NCIT:C25936 ;
    cosmos_sdtm:originType NCIT:C170548 ;
    cosmos_sdtm:relationship <https://w3id.org/cdisc/cosmos/dss/SU/DISTILLEDSPIRITSHX/SUENDTC/relationship> ;
    cosmos_sdtm:role <https://www.cdisc.org/cosmos/sdtm_v1.0/RoleEnum#Timing> .

<https://w3id.org/cdisc/cosmos/dss/SU/DISTILLEDSPIRITSHX/SUENRF> a cosmos_sdtm:SDTMVariable ;
    cosmos_sdtm:codelist NCIT:C66728 ;
    cosmos_sdtm:dataElementConceptId NCIT:C82557 ;
    cosmos_sdtm:dataType <https://www.cdisc.org/cosmos/sdtm_v1.0/SDTMVariableDataTypeEnum#text> ;
    cosmos_sdtm:isNonStandard false ;
    cosmos_sdtm:length 20 ;
    cosmos_sdtm:mandatoryValue false ;
    cosmos_sdtm:mandatoryVariable false ;
    cosmos_sdtm:name "SUENRF" ;
    cosmos_sdtm:originSource NCIT:C70793 ;
    cosmos_sdtm:originType NCIT:C170547 ;
    cosmos_sdtm:role <https://www.cdisc.org/cosmos/sdtm_v1.0/RoleEnum#Timing> ;
    cosmos_sdtm:valueList "AFTER",
        "BEFORE",
        "DURING",
        "DURING/AFTER",
        "UNKNOWN" .

<https://w3id.org/cdisc/cosmos/dss/SU/DISTILLEDSPIRITSHX/SUENRTPT> a cosmos_sdtm:SDTMVariable ;
    cosmos_sdtm:codelist NCIT:C66728 ;
    cosmos_sdtm:dataElementConceptId NCIT:C82558 ;
    cosmos_sdtm:dataType <https://www.cdisc.org/cosmos/sdtm_v1.0/SDTMVariableDataTypeEnum#text> ;
    cosmos_sdtm:isNonStandard false ;
    cosmos_sdtm:length 20 ;
    cosmos_sdtm:mandatoryValue false ;
    cosmos_sdtm:mandatoryVariable false ;
    cosmos_sdtm:name "SUENRTPT" ;
    cosmos_sdtm:originSource NCIT:C70793 ;
    cosmos_sdtm:originType NCIT:C170547 ;
    cosmos_sdtm:role <https://www.cdisc.org/cosmos/sdtm_v1.0/RoleEnum#Timing> ;
    cosmos_sdtm:valueList "AFTER",
        "BEFORE",
        "COINCIDENT",
        "ONGOING",
        "UNKNOWN" .

<https://w3id.org/cdisc/cosmos/dss/SU/DISTILLEDSPIRITSHX/SUENTPT> a cosmos_sdtm:SDTMVariable ;
    cosmos_sdtm:dataElementConceptId NCIT:C82574 ;
    cosmos_sdtm:dataType <https://www.cdisc.org/cosmos/sdtm_v1.0/SDTMVariableDataTypeEnum#text> ;
    cosmos_sdtm:isNonStandard false ;
    cosmos_sdtm:length 20 ;
    cosmos_sdtm:mandatoryValue false ;
    cosmos_sdtm:mandatoryVariable false ;
    cosmos_sdtm:name "SUENTPT" ;
    cosmos_sdtm:originSource NCIT:C70793 ;
    cosmos_sdtm:originType NCIT:C170547 ;
    cosmos_sdtm:role <https://www.cdisc.org/cosmos/sdtm_v1.0/RoleEnum#Timing> .

<https://w3id.org/cdisc/cosmos/dss/SU/DISTILLEDSPIRITSHX/SUOCCUR> a cosmos_sdtm:SDTMVariable ;
    cosmos_sdtm:codelist NCIT:C66742 ;
    cosmos_sdtm:dataElementConceptId NCIT:C127786 ;
    cosmos_sdtm:dataType <https://www.cdisc.org/cosmos/sdtm_v1.0/SDTMVariableDataTypeEnum#text> ;
    cosmos_sdtm:isNonStandard false ;
    cosmos_sdtm:length 1 ;
    cosmos_sdtm:mandatoryValue false ;
    cosmos_sdtm:mandatoryVariable false ;
    cosmos_sdtm:name "SUOCCUR" ;
    cosmos_sdtm:originSource NCIT:C25936 ;
    cosmos_sdtm:originType NCIT:C170548 ;
    cosmos_sdtm:relationship <https://w3id.org/cdisc/cosmos/dss/SU/DISTILLEDSPIRITSHX/SUOCCUR/relationship> ;
    cosmos_sdtm:role <https://www.cdisc.org/cosmos/sdtm_v1.0/RoleEnum#Qualifier> ;
    cosmos_sdtm:subsetCodelist "NY_NY" ;
    cosmos_sdtm:valueList "N",
        "Y" .

<https://w3id.org/cdisc/cosmos/dss/SU/DISTILLEDSPIRITSHX/SUPRESP> a cosmos_sdtm:SDTMVariable ;
    cosmos_sdtm:codelist NCIT:C66742 ;
    cosmos_sdtm:dataElementConceptId NCIT:C171000 ;
    cosmos_sdtm:dataType <https://www.cdisc.org/cosmos/sdtm_v1.0/SDTMVariableDataTypeEnum#text> ;
    cosmos_sdtm:isNonStandard false ;
    cosmos_sdtm:length 1 ;
    cosmos_sdtm:mandatoryValue false ;
    cosmos_sdtm:mandatoryVariable false ;
    cosmos_sdtm:name "SUPRESP" ;
    cosmos_sdtm:originSource NCIT:C70793 ;
    cosmos_sdtm:originType NCIT:C170547 ;
    cosmos_sdtm:relationship <https://w3id.org/cdisc/cosmos/dss/SU/DISTILLEDSPIRITSHX/SUPRESP/relationship> ;
    cosmos_sdtm:role <https://www.cdisc.org/cosmos/sdtm_v1.0/RoleEnum#Qualifier> ;
    cosmos_sdtm:subsetCodelist "NY_Y" ;
    cosmos_sdtm:valueList "Y" .

<https://w3id.org/cdisc/cosmos/dss/SU/DISTILLEDSPIRITSHX/SUSCAT> a cosmos_sdtm:SDTMVariable ;
    cosmos_sdtm:dataElementConceptId NCIT:C25692 ;
    cosmos_sdtm:dataType <https://www.cdisc.org/cosmos/sdtm_v1.0/SDTMVariableDataTypeEnum#text> ;
    cosmos_sdtm:isNonStandard false ;
    cosmos_sdtm:length 200 ;
    cosmos_sdtm:mandatoryValue false ;
    cosmos_sdtm:mandatoryVariable false ;
    cosmos_sdtm:name "SUSCAT" ;
    cosmos_sdtm:originSource NCIT:C70793 ;
    cosmos_sdtm:originType NCIT:C170547 ;
    cosmos_sdtm:role <https://www.cdisc.org/cosmos/sdtm_v1.0/RoleEnum#Qualifier> .

<https://w3id.org/cdisc/cosmos/dss/SU/DISTILLEDSPIRITSHX/SUSTDTC> a cosmos_sdtm:SDTMVariable ;
    cosmos_sdtm:dataElementConceptId NCIT:C83431 ;
    cosmos_sdtm:dataType <https://www.cdisc.org/cosmos/sdtm_v1.0/SDTMVariableDataTypeEnum#datetime> ;
    cosmos_sdtm:isNonStandard false ;
    cosmos_sdtm:mandatoryValue false ;
    cosmos_sdtm:mandatoryVariable false ;
    cosmos_sdtm:name "SUSTDTC" ;
    cosmos_sdtm:originSource NCIT:C25936 ;
    cosmos_sdtm:originType NCIT:C170548 ;
    cosmos_sdtm:relationship <https://w3id.org/cdisc/cosmos/dss/SU/DISTILLEDSPIRITSHX/SUSTDTC/relationship> ;
    cosmos_sdtm:role <https://www.cdisc.org/cosmos/sdtm_v1.0/RoleEnum#Timing> .

<https://w3id.org/cdisc/cosmos/dss/SU/DISTILLEDSPIRITSHX/SUSTRF> a cosmos_sdtm:SDTMVariable ;
    cosmos_sdtm:codelist NCIT:C66728 ;
    cosmos_sdtm:dataElementConceptId NCIT:C82559 ;
    cosmos_sdtm:dataType <https://www.cdisc.org/cosmos/sdtm_v1.0/SDTMVariableDataTypeEnum#text> ;
    cosmos_sdtm:isNonStandard false ;
    cosmos_sdtm:length 20 ;
    cosmos_sdtm:mandatoryValue false ;
    cosmos_sdtm:mandatoryVariable false ;
    cosmos_sdtm:name "SUSTRF" ;
    cosmos_sdtm:originSource NCIT:C70793 ;
    cosmos_sdtm:originType NCIT:C170547 ;
    cosmos_sdtm:role <https://www.cdisc.org/cosmos/sdtm_v1.0/RoleEnum#Timing> ;
    cosmos_sdtm:valueList "AFTER",
        "BEFORE",
        "DURING",
        "DURING/AFTER",
        "UNKNOWN" .

<https://w3id.org/cdisc/cosmos/dss/SU/DISTILLEDSPIRITSHX/SUSTRTPT> a cosmos_sdtm:SDTMVariable ;
    cosmos_sdtm:codelist NCIT:C66728 ;
    cosmos_sdtm:dataElementConceptId NCIT:C82560 ;
    cosmos_sdtm:dataType <https://www.cdisc.org/cosmos/sdtm_v1.0/SDTMVariableDataTypeEnum#text> ;
    cosmos_sdtm:isNonStandard false ;
    cosmos_sdtm:length 20 ;
    cosmos_sdtm:mandatoryValue false ;
    cosmos_sdtm:mandatoryVariable false ;
    cosmos_sdtm:name "SUSTRTPT" ;
    cosmos_sdtm:originSource NCIT:C70793 ;
    cosmos_sdtm:originType NCIT:C170547 ;
    cosmos_sdtm:role <https://www.cdisc.org/cosmos/sdtm_v1.0/RoleEnum#Timing> ;
    cosmos_sdtm:valueList "AFTER",
        "BEFORE",
        "COINCIDENT",
        "ONGOING",
        "UNKNOWN" .

<https://w3id.org/cdisc/cosmos/dss/SU/DISTILLEDSPIRITSHX/SUSTTPT> a cosmos_sdtm:SDTMVariable ;
    cosmos_sdtm:dataElementConceptId NCIT:C82575 ;
    cosmos_sdtm:dataType <https://www.cdisc.org/cosmos/sdtm_v1.0/SDTMVariableDataTypeEnum#text> ;
    cosmos_sdtm:isNonStandard false ;
    cosmos_sdtm:length 20 ;
    cosmos_sdtm:mandatoryValue false ;
    cosmos_sdtm:mandatoryVariable false ;
    cosmos_sdtm:name "SUSTTPT" ;
    cosmos_sdtm:originSource NCIT:C70793 ;
    cosmos_sdtm:originType NCIT:C170547 ;
    cosmos_sdtm:role <https://www.cdisc.org/cosmos/sdtm_v1.0/RoleEnum#Timing> .

<https://w3id.org/cdisc/cosmos/dss/SU/DISTILLEDSPIRITSHX/SUTRT> a cosmos_sdtm:SDTMVariable ;
    cosmos_sdtm:assignedTerm <https://w3id.org/cdisc/cosmos/dss/SU/DISTILLEDSPIRITSHX/SUTRT/assignedTerm> ;
    cosmos_sdtm:dataElementConceptId NCIT:C83092 ;
    cosmos_sdtm:dataType <https://www.cdisc.org/cosmos/sdtm_v1.0/SDTMVariableDataTypeEnum#text> ;
    cosmos_sdtm:isNonStandard false ;
    cosmos_sdtm:length 200 ;
    cosmos_sdtm:mandatoryValue true ;
    cosmos_sdtm:mandatoryVariable true ;
    cosmos_sdtm:name "SUTRT" ;
    cosmos_sdtm:originSource NCIT:C25936 ;
    cosmos_sdtm:originType NCIT:C170548 ;
    cosmos_sdtm:relationship <https://w3id.org/cdisc/cosmos/dss/SU/DISTILLEDSPIRITSHX/SUTRT/relationship> ;
    cosmos_sdtm:role <https://www.cdisc.org/cosmos/sdtm_v1.0/RoleEnum#Topic> .

<https://w3id.org/cdisc/cosmos/dss/SU/PIPEHX/SUCAT> a cosmos_sdtm:SDTMVariable ;
    cosmos_sdtm:assignedTerm <https://w3id.org/cdisc/cosmos/dss/SU/PIPEHX/SUCAT/assignedTerm> ;
    cosmos_sdtm:dataElementConceptId NCIT:C25372 ;
    cosmos_sdtm:dataType <https://www.cdisc.org/cosmos/sdtm_v1.0/SDTMVariableDataTypeEnum#text> ;
    cosmos_sdtm:isNonStandard false ;
    cosmos_sdtm:length 200 ;
    cosmos_sdtm:mandatoryValue false ;
    cosmos_sdtm:mandatoryVariable false ;
    cosmos_sdtm:name "SUCAT" ;
    cosmos_sdtm:originSource NCIT:C70793 ;
    cosmos_sdtm:originType NCIT:C170547 ;
    cosmos_sdtm:role <https://www.cdisc.org/cosmos/sdtm_v1.0/RoleEnum#Qualifier> .

<https://w3id.org/cdisc/cosmos/dss/SU/PIPEHX/SUDOSE> a cosmos_sdtm:SDTMVariable ;
    cosmos_sdtm:dataElementConceptId NCIT:C83416 ;
    cosmos_sdtm:dataType <https://www.cdisc.org/cosmos/sdtm_v1.0/SDTMVariableDataTypeEnum#float> ;
    cosmos_sdtm:format "12.4" ;
    cosmos_sdtm:isNonStandard false ;
    cosmos_sdtm:length 12 ;
    cosmos_sdtm:mandatoryValue false ;
    cosmos_sdtm:mandatoryVariable false ;
    cosmos_sdtm:name "SUDOSE" ;
    cosmos_sdtm:originSource NCIT:C25936 ;
    cosmos_sdtm:originType NCIT:C170548 ;
    cosmos_sdtm:relationship <https://w3id.org/cdisc/cosmos/dss/SU/PIPEHX/SUDOSE/relationship> ;
    cosmos_sdtm:role <https://www.cdisc.org/cosmos/sdtm_v1.0/RoleEnum#Qualifier> ;
    cosmos_sdtm:significantDigits 4 .

<https://w3id.org/cdisc/cosmos/dss/SU/PIPEHX/SUDOSFRQ> a cosmos_sdtm:SDTMVariable ;
    cosmos_sdtm:codelist NCIT:C71113 ;
    cosmos_sdtm:dataElementConceptId NCIT:C83044 ;
    cosmos_sdtm:dataType <https://www.cdisc.org/cosmos/sdtm_v1.0/SDTMVariableDataTypeEnum#text> ;
    cosmos_sdtm:isNonStandard false ;
    cosmos_sdtm:length 40 ;
    cosmos_sdtm:mandatoryValue false ;
    cosmos_sdtm:mandatoryVariable false ;
    cosmos_sdtm:name "SUDOSFRQ" ;
    cosmos_sdtm:originSource NCIT:C25936 ;
    cosmos_sdtm:originType NCIT:C170548 ;
    cosmos_sdtm:relationship <https://w3id.org/cdisc/cosmos/dss/SU/PIPEHX/SUDOSFRQ/relationship> ;
    cosmos_sdtm:role <https://www.cdisc.org/cosmos/sdtm_v1.0/RoleEnum#Qualifier> ;
    cosmos_sdtm:valueList "Q7D",
        "QD" .

<https://w3id.org/cdisc/cosmos/dss/SU/PIPEHX/SUDOSTXT> a cosmos_sdtm:SDTMVariable ;
    cosmos_sdtm:dataElementConceptId NCIT:C83041 ;
    cosmos_sdtm:dataType <https://www.cdisc.org/cosmos/sdtm_v1.0/SDTMVariableDataTypeEnum#text> ;
    cosmos_sdtm:isNonStandard false ;
    cosmos_sdtm:length 40 ;
    cosmos_sdtm:mandatoryValue false ;
    cosmos_sdtm:mandatoryVariable false ;
    cosmos_sdtm:name "SUDOSTXT" ;
    cosmos_sdtm:originSource NCIT:C25936 ;
    cosmos_sdtm:originType NCIT:C170548 ;
    cosmos_sdtm:relationship <https://w3id.org/cdisc/cosmos/dss/SU/PIPEHX/SUDOSTXT/relationship> ;
    cosmos_sdtm:role <https://www.cdisc.org/cosmos/sdtm_v1.0/RoleEnum#Qualifier> .

<https://w3id.org/cdisc/cosmos/dss/SU/PIPEHX/SUDOSU> a cosmos_sdtm:SDTMVariable ;
    cosmos_sdtm:codelist NCIT:C71620 ;
    cosmos_sdtm:dataElementConceptId NCIT:C83038 ;
    cosmos_sdtm:dataType <https://www.cdisc.org/cosmos/sdtm_v1.0/SDTMVariableDataTypeEnum#text> ;
    cosmos_sdtm:isNonStandard false ;
    cosmos_sdtm:length 40 ;
    cosmos_sdtm:mandatoryValue false ;
    cosmos_sdtm:mandatoryVariable false ;
    cosmos_sdtm:name "SUDOSU" ;
    cosmos_sdtm:originSource NCIT:C25936 ;
    cosmos_sdtm:originType NCIT:C170548 ;
    cosmos_sdtm:relationship <https://w3id.org/cdisc/cosmos/dss/SU/PIPEHX/SUDOSU/relationship> ;
    cosmos_sdtm:role <https://www.cdisc.org/cosmos/sdtm_v1.0/RoleEnum#Qualifier> ;
    cosmos_sdtm:valueList "PIPE",
        "g",
        "mg" .

<https://w3id.org/cdisc/cosmos/dss/SU/PIPEHX/SUDUR> a cosmos_sdtm:SDTMVariable ;
    cosmos_sdtm:dataElementConceptId NCIT:C83419 ;
    cosmos_sdtm:dataType <https://www.cdisc.org/cosmos/sdtm_v1.0/SDTMVariableDataTypeEnum#durationDatetime> ;
    cosmos_sdtm:isNonStandard false ;
    cosmos_sdtm:mandatoryValue false ;
    cosmos_sdtm:mandatoryVariable false ;
    cosmos_sdtm:name "SUDUR" ;
    cosmos_sdtm:originSource NCIT:C25936 ;
    cosmos_sdtm:originType NCIT:C170548 ;
    cosmos_sdtm:relationship <https://w3id.org/cdisc/cosmos/dss/SU/PIPEHX/SUDUR/relationship> ;
    cosmos_sdtm:role <https://www.cdisc.org/cosmos/sdtm_v1.0/RoleEnum#Timing> .

<https://w3id.org/cdisc/cosmos/dss/SU/PIPEHX/SUENDTC> a cosmos_sdtm:SDTMVariable ;
    cosmos_sdtm:dataElementConceptId NCIT:C83419 ;
    cosmos_sdtm:dataType <https://www.cdisc.org/cosmos/sdtm_v1.0/SDTMVariableDataTypeEnum#datetime> ;
    cosmos_sdtm:isNonStandard false ;
    cosmos_sdtm:mandatoryValue false ;
    cosmos_sdtm:mandatoryVariable false ;
    cosmos_sdtm:name "SUENDTC" ;
    cosmos_sdtm:originSource NCIT:C25936 ;
    cosmos_sdtm:originType NCIT:C170548 ;
    cosmos_sdtm:relationship <https://w3id.org/cdisc/cosmos/dss/SU/PIPEHX/SUENDTC/relationship> ;
    cosmos_sdtm:role <https://www.cdisc.org/cosmos/sdtm_v1.0/RoleEnum#Timing> .

<https://w3id.org/cdisc/cosmos/dss/SU/PIPEHX/SUENRF> a cosmos_sdtm:SDTMVariable ;
    cosmos_sdtm:codelist NCIT:C66728 ;
    cosmos_sdtm:dataElementConceptId NCIT:C82557 ;
    cosmos_sdtm:dataType <https://www.cdisc.org/cosmos/sdtm_v1.0/SDTMVariableDataTypeEnum#text> ;
    cosmos_sdtm:isNonStandard false ;
    cosmos_sdtm:length 20 ;
    cosmos_sdtm:mandatoryValue false ;
    cosmos_sdtm:mandatoryVariable false ;
    cosmos_sdtm:name "SUENRF" ;
    cosmos_sdtm:originSource NCIT:C70793 ;
    cosmos_sdtm:originType NCIT:C170547 ;
    cosmos_sdtm:role <https://www.cdisc.org/cosmos/sdtm_v1.0/RoleEnum#Timing> ;
    cosmos_sdtm:valueList "AFTER",
        "BEFORE",
        "DURING",
        "DURING/AFTER",
        "UNKNOWN" .

<https://w3id.org/cdisc/cosmos/dss/SU/PIPEHX/SUENRTPT> a cosmos_sdtm:SDTMVariable ;
    cosmos_sdtm:codelist NCIT:C66728 ;
    cosmos_sdtm:dataElementConceptId NCIT:C82558 ;
    cosmos_sdtm:dataType <https://www.cdisc.org/cosmos/sdtm_v1.0/SDTMVariableDataTypeEnum#text> ;
    cosmos_sdtm:isNonStandard false ;
    cosmos_sdtm:length 20 ;
    cosmos_sdtm:mandatoryValue false ;
    cosmos_sdtm:mandatoryVariable false ;
    cosmos_sdtm:name "SUENRTPT" ;
    cosmos_sdtm:originSource NCIT:C70793 ;
    cosmos_sdtm:originType NCIT:C170547 ;
    cosmos_sdtm:role <https://www.cdisc.org/cosmos/sdtm_v1.0/RoleEnum#Timing> ;
    cosmos_sdtm:valueList "AFTER",
        "BEFORE",
        "COINCIDENT",
        "ONGOING",
        "UNKNOWN" .

<https://w3id.org/cdisc/cosmos/dss/SU/PIPEHX/SUENTPT> a cosmos_sdtm:SDTMVariable ;
    cosmos_sdtm:dataElementConceptId NCIT:C82574 ;
    cosmos_sdtm:dataType <https://www.cdisc.org/cosmos/sdtm_v1.0/SDTMVariableDataTypeEnum#text> ;
    cosmos_sdtm:isNonStandard false ;
    cosmos_sdtm:length 20 ;
    cosmos_sdtm:mandatoryValue false ;
    cosmos_sdtm:mandatoryVariable false ;
    cosmos_sdtm:name "SUENTPT" ;
    cosmos_sdtm:originSource NCIT:C70793 ;
    cosmos_sdtm:originType NCIT:C170547 ;
    cosmos_sdtm:role <https://www.cdisc.org/cosmos/sdtm_v1.0/RoleEnum#Timing> .

<https://w3id.org/cdisc/cosmos/dss/SU/PIPEHX/SUOCCUR> a cosmos_sdtm:SDTMVariable ;
    cosmos_sdtm:codelist NCIT:C66742 ;
    cosmos_sdtm:dataElementConceptId NCIT:C127786 ;
    cosmos_sdtm:dataType <https://www.cdisc.org/cosmos/sdtm_v1.0/SDTMVariableDataTypeEnum#text> ;
    cosmos_sdtm:isNonStandard false ;
    cosmos_sdtm:length 1 ;
    cosmos_sdtm:mandatoryValue false ;
    cosmos_sdtm:mandatoryVariable false ;
    cosmos_sdtm:name "SUOCCUR" ;
    cosmos_sdtm:originSource NCIT:C25936 ;
    cosmos_sdtm:originType NCIT:C170548 ;
    cosmos_sdtm:relationship <https://w3id.org/cdisc/cosmos/dss/SU/PIPEHX/SUOCCUR/relationship> ;
    cosmos_sdtm:role <https://www.cdisc.org/cosmos/sdtm_v1.0/RoleEnum#Qualifier> ;
    cosmos_sdtm:subsetCodelist "NY_NY" ;
    cosmos_sdtm:valueList "N",
        "Y" .

<https://w3id.org/cdisc/cosmos/dss/SU/PIPEHX/SUPRESP> a cosmos_sdtm:SDTMVariable ;
    cosmos_sdtm:codelist NCIT:C66742 ;
    cosmos_sdtm:dataElementConceptId NCIT:C171000 ;
    cosmos_sdtm:dataType <https://www.cdisc.org/cosmos/sdtm_v1.0/SDTMVariableDataTypeEnum#text> ;
    cosmos_sdtm:isNonStandard false ;
    cosmos_sdtm:length 1 ;
    cosmos_sdtm:mandatoryValue false ;
    cosmos_sdtm:mandatoryVariable false ;
    cosmos_sdtm:name "SUPRESP" ;
    cosmos_sdtm:originSource NCIT:C70793 ;
    cosmos_sdtm:originType NCIT:C170547 ;
    cosmos_sdtm:relationship <https://w3id.org/cdisc/cosmos/dss/SU/PIPEHX/SUPRESP/relationship> ;
    cosmos_sdtm:role <https://www.cdisc.org/cosmos/sdtm_v1.0/RoleEnum#Qualifier> ;
    cosmos_sdtm:subsetCodelist "NY_Y" ;
    cosmos_sdtm:valueList "Y" .

<https://w3id.org/cdisc/cosmos/dss/SU/PIPEHX/SUSCAT> a cosmos_sdtm:SDTMVariable ;
    cosmos_sdtm:dataElementConceptId NCIT:C25692 ;
    cosmos_sdtm:dataType <https://www.cdisc.org/cosmos/sdtm_v1.0/SDTMVariableDataTypeEnum#text> ;
    cosmos_sdtm:isNonStandard false ;
    cosmos_sdtm:length 200 ;
    cosmos_sdtm:mandatoryValue false ;
    cosmos_sdtm:mandatoryVariable false ;
    cosmos_sdtm:name "SUSCAT" ;
    cosmos_sdtm:originSource NCIT:C70793 ;
    cosmos_sdtm:originType NCIT:C170547 ;
    cosmos_sdtm:role <https://www.cdisc.org/cosmos/sdtm_v1.0/RoleEnum#Qualifier> .

<https://w3id.org/cdisc/cosmos/dss/SU/PIPEHX/SUSTDTC> a cosmos_sdtm:SDTMVariable ;
    cosmos_sdtm:dataElementConceptId NCIT:C83431 ;
    cosmos_sdtm:dataType <https://www.cdisc.org/cosmos/sdtm_v1.0/SDTMVariableDataTypeEnum#datetime> ;
    cosmos_sdtm:isNonStandard false ;
    cosmos_sdtm:mandatoryValue false ;
    cosmos_sdtm:mandatoryVariable false ;
    cosmos_sdtm:name "SUSTDTC" ;
    cosmos_sdtm:originSource NCIT:C25936 ;
    cosmos_sdtm:originType NCIT:C170548 ;
    cosmos_sdtm:relationship <https://w3id.org/cdisc/cosmos/dss/SU/PIPEHX/SUSTDTC/relationship> ;
    cosmos_sdtm:role <https://www.cdisc.org/cosmos/sdtm_v1.0/RoleEnum#Timing> .

<https://w3id.org/cdisc/cosmos/dss/SU/PIPEHX/SUSTRF> a cosmos_sdtm:SDTMVariable ;
    cosmos_sdtm:codelist NCIT:C66728 ;
    cosmos_sdtm:dataElementConceptId NCIT:C82559 ;
    cosmos_sdtm:dataType <https://www.cdisc.org/cosmos/sdtm_v1.0/SDTMVariableDataTypeEnum#text> ;
    cosmos_sdtm:isNonStandard false ;
    cosmos_sdtm:length 20 ;
    cosmos_sdtm:mandatoryValue false ;
    cosmos_sdtm:mandatoryVariable false ;
    cosmos_sdtm:name "SUSTRF" ;
    cosmos_sdtm:originSource NCIT:C70793 ;
    cosmos_sdtm:originType NCIT:C170547 ;
    cosmos_sdtm:role <https://www.cdisc.org/cosmos/sdtm_v1.0/RoleEnum#Timing> ;
    cosmos_sdtm:valueList "AFTER",
        "BEFORE",
        "DURING",
        "DURING/AFTER",
        "UNKNOWN" .

<https://w3id.org/cdisc/cosmos/dss/SU/PIPEHX/SUSTRTPT> a cosmos_sdtm:SDTMVariable ;
    cosmos_sdtm:codelist NCIT:C66728 ;
    cosmos_sdtm:dataElementConceptId NCIT:C82560 ;
    cosmos_sdtm:dataType <https://www.cdisc.org/cosmos/sdtm_v1.0/SDTMVariableDataTypeEnum#text> ;
    cosmos_sdtm:isNonStandard false ;
    cosmos_sdtm:length 20 ;
    cosmos_sdtm:mandatoryValue false ;
    cosmos_sdtm:mandatoryVariable false ;
    cosmos_sdtm:name "SUSTRTPT" ;
    cosmos_sdtm:originSource NCIT:C70793 ;
    cosmos_sdtm:originType NCIT:C170547 ;
    cosmos_sdtm:role <https://www.cdisc.org/cosmos/sdtm_v1.0/RoleEnum#Timing> ;
    cosmos_sdtm:valueList "AFTER",
        "BEFORE",
        "COINCIDENT",
        "ONGOING",
        "UNKNOWN" .

<https://w3id.org/cdisc/cosmos/dss/SU/PIPEHX/SUSTTPT> a cosmos_sdtm:SDTMVariable ;
    cosmos_sdtm:dataElementConceptId NCIT:C82575 ;
    cosmos_sdtm:dataType <https://www.cdisc.org/cosmos/sdtm_v1.0/SDTMVariableDataTypeEnum#text> ;
    cosmos_sdtm:isNonStandard false ;
    cosmos_sdtm:length 20 ;
    cosmos_sdtm:mandatoryValue false ;
    cosmos_sdtm:mandatoryVariable false ;
    cosmos_sdtm:name "SUSTTPT" ;
    cosmos_sdtm:originSource NCIT:C70793 ;
    cosmos_sdtm:originType NCIT:C170547 ;
    cosmos_sdtm:role <https://www.cdisc.org/cosmos/sdtm_v1.0/RoleEnum#Timing> .

<https://w3id.org/cdisc/cosmos/dss/SU/PIPEHX/SUTRT> a cosmos_sdtm:SDTMVariable ;
    cosmos_sdtm:assignedTerm <https://w3id.org/cdisc/cosmos/dss/SU/PIPEHX/SUTRT/assignedTerm> ;
    cosmos_sdtm:dataElementConceptId NCIT:C83092 ;
    cosmos_sdtm:dataType <https://www.cdisc.org/cosmos/sdtm_v1.0/SDTMVariableDataTypeEnum#text> ;
    cosmos_sdtm:isNonStandard false ;
    cosmos_sdtm:length 200 ;
    cosmos_sdtm:mandatoryValue true ;
    cosmos_sdtm:mandatoryVariable true ;
    cosmos_sdtm:name "SUTRT" ;
    cosmos_sdtm:originSource NCIT:C25936 ;
    cosmos_sdtm:originType NCIT:C170548 ;
    cosmos_sdtm:relationship <https://w3id.org/cdisc/cosmos/dss/SU/PIPEHX/SUTRT/relationship> ;
    cosmos_sdtm:role <https://www.cdisc.org/cosmos/sdtm_v1.0/RoleEnum#Topic> .

<https://w3id.org/cdisc/cosmos/dss/SU/TEAHIX/SUCAT> a cosmos_sdtm:SDTMVariable ;
    cosmos_sdtm:assignedTerm <https://w3id.org/cdisc/cosmos/dss/SU/TEAHIX/SUCAT/assignedTerm> ;
    cosmos_sdtm:dataElementConceptId NCIT:C25372 ;
    cosmos_sdtm:dataType <https://www.cdisc.org/cosmos/sdtm_v1.0/SDTMVariableDataTypeEnum#text> ;
    cosmos_sdtm:isNonStandard false ;
    cosmos_sdtm:length 200 ;
    cosmos_sdtm:mandatoryValue false ;
    cosmos_sdtm:mandatoryVariable false ;
    cosmos_sdtm:name "SUCAT" ;
    cosmos_sdtm:originSource NCIT:C70793 ;
    cosmos_sdtm:originType NCIT:C170547 ;
    cosmos_sdtm:role <https://www.cdisc.org/cosmos/sdtm_v1.0/RoleEnum#Qualifier> .

<https://w3id.org/cdisc/cosmos/dss/SU/TEAHIX/SUDOSE> a cosmos_sdtm:SDTMVariable ;
    cosmos_sdtm:dataElementConceptId NCIT:C83416 ;
    cosmos_sdtm:dataType <https://www.cdisc.org/cosmos/sdtm_v1.0/SDTMVariableDataTypeEnum#float> ;
    cosmos_sdtm:format "12.4" ;
    cosmos_sdtm:isNonStandard false ;
    cosmos_sdtm:length 12 ;
    cosmos_sdtm:mandatoryValue false ;
    cosmos_sdtm:mandatoryVariable false ;
    cosmos_sdtm:name "SUDOSE" ;
    cosmos_sdtm:originSource NCIT:C25936 ;
    cosmos_sdtm:originType NCIT:C170548 ;
    cosmos_sdtm:relationship <https://w3id.org/cdisc/cosmos/dss/SU/TEAHIX/SUDOSE/relationship> ;
    cosmos_sdtm:role <https://www.cdisc.org/cosmos/sdtm_v1.0/RoleEnum#Qualifier> ;
    cosmos_sdtm:significantDigits 4 .

<https://w3id.org/cdisc/cosmos/dss/SU/TEAHIX/SUDOSFRQ> a cosmos_sdtm:SDTMVariable ;
    cosmos_sdtm:codelist NCIT:C71113 ;
    cosmos_sdtm:dataElementConceptId NCIT:C83044 ;
    cosmos_sdtm:dataType <https://www.cdisc.org/cosmos/sdtm_v1.0/SDTMVariableDataTypeEnum#text> ;
    cosmos_sdtm:isNonStandard false ;
    cosmos_sdtm:length 40 ;
    cosmos_sdtm:mandatoryValue false ;
    cosmos_sdtm:mandatoryVariable false ;
    cosmos_sdtm:name "SUDOSFRQ" ;
    cosmos_sdtm:originSource NCIT:C25936 ;
    cosmos_sdtm:originType NCIT:C170548 ;
    cosmos_sdtm:relationship <https://w3id.org/cdisc/cosmos/dss/SU/TEAHIX/SUDOSFRQ/relationship> ;
    cosmos_sdtm:role <https://www.cdisc.org/cosmos/sdtm_v1.0/RoleEnum#Qualifier> ;
    cosmos_sdtm:valueList "Q7D",
        "QD" .

<https://w3id.org/cdisc/cosmos/dss/SU/TEAHIX/SUDOSTXT> a cosmos_sdtm:SDTMVariable ;
    cosmos_sdtm:dataElementConceptId NCIT:C83041 ;
    cosmos_sdtm:dataType <https://www.cdisc.org/cosmos/sdtm_v1.0/SDTMVariableDataTypeEnum#text> ;
    cosmos_sdtm:isNonStandard false ;
    cosmos_sdtm:length 40 ;
    cosmos_sdtm:mandatoryValue false ;
    cosmos_sdtm:mandatoryVariable false ;
    cosmos_sdtm:name "SUDOSTXT" ;
    cosmos_sdtm:originSource NCIT:C25936 ;
    cosmos_sdtm:originType NCIT:C170548 ;
    cosmos_sdtm:relationship <https://w3id.org/cdisc/cosmos/dss/SU/TEAHIX/SUDOSTXT/relationship> ;
    cosmos_sdtm:role <https://www.cdisc.org/cosmos/sdtm_v1.0/RoleEnum#Qualifier> ;
    cosmos_sdtm:valueList "DRINK",
        "GLASS",
        "L",
        "mL",
        "oz" .

<https://w3id.org/cdisc/cosmos/dss/SU/TEAHIX/SUDOSU> a cosmos_sdtm:SDTMVariable ;
    cosmos_sdtm:codelist NCIT:C71620 ;
    cosmos_sdtm:dataElementConceptId NCIT:C83038 ;
    cosmos_sdtm:dataType <https://www.cdisc.org/cosmos/sdtm_v1.0/SDTMVariableDataTypeEnum#text> ;
    cosmos_sdtm:isNonStandard false ;
    cosmos_sdtm:length 40 ;
    cosmos_sdtm:mandatoryValue false ;
    cosmos_sdtm:mandatoryVariable false ;
    cosmos_sdtm:name "SUDOSU" ;
    cosmos_sdtm:originSource NCIT:C25936 ;
    cosmos_sdtm:originType NCIT:C170548 ;
    cosmos_sdtm:relationship <https://w3id.org/cdisc/cosmos/dss/SU/TEAHIX/SUDOSU/relationship> ;
    cosmos_sdtm:role <https://www.cdisc.org/cosmos/sdtm_v1.0/RoleEnum#Qualifier> .

<https://w3id.org/cdisc/cosmos/dss/SU/TEAHIX/SUENDTC> a cosmos_sdtm:SDTMVariable ;
    cosmos_sdtm:dataElementConceptId NCIT:C83419 ;
    cosmos_sdtm:dataType <https://www.cdisc.org/cosmos/sdtm_v1.0/SDTMVariableDataTypeEnum#datetime> ;
    cosmos_sdtm:isNonStandard false ;
    cosmos_sdtm:mandatoryValue false ;
    cosmos_sdtm:mandatoryVariable false ;
    cosmos_sdtm:name "SUENDTC" ;
    cosmos_sdtm:originSource NCIT:C25936 ;
    cosmos_sdtm:originType NCIT:C170548 ;
    cosmos_sdtm:relationship <https://w3id.org/cdisc/cosmos/dss/SU/TEAHIX/SUENDTC/relationship> ;
    cosmos_sdtm:role <https://www.cdisc.org/cosmos/sdtm_v1.0/RoleEnum#Timing> .

<https://w3id.org/cdisc/cosmos/dss/SU/TEAHIX/SUENRF> a cosmos_sdtm:SDTMVariable ;
    cosmos_sdtm:codelist NCIT:C66728 ;
    cosmos_sdtm:dataElementConceptId NCIT:C82557 ;
    cosmos_sdtm:dataType <https://www.cdisc.org/cosmos/sdtm_v1.0/SDTMVariableDataTypeEnum#text> ;
    cosmos_sdtm:isNonStandard false ;
    cosmos_sdtm:length 20 ;
    cosmos_sdtm:mandatoryValue false ;
    cosmos_sdtm:mandatoryVariable false ;
    cosmos_sdtm:name "SUENRF" ;
