@prefix NCIT: <http://purl.obolibrary.org/obo/NCIT_> .
@prefix cosmos_sdtm: <https://www.cdisc.org/cosmos/sdtm_v1.0/> .
@prefix dcterms: <http://purl.org/dc/terms/> .
@prefix owl: <http://www.w3.org/2002/07/owl#> .
@prefix rdf: <http://www.w3.org/1999/02/22-rdf-syntax-ns#> .
@prefix rdfs: <http://www.w3.org/2000/01/rdf-schema#> .
@prefix skos: <http://www.w3.org/2004/02/skos/core#> .
@prefix xsd: <http://www.w3.org/2001/XMLSchema#> .

<https://w3id.org/cdisc/cosmos/dss/VS> a owl:Ontology ;
    rdfs:label "CDISC COSMoS Dataset Specializations, VS (instances)" ;
    dcterms:identifier "2026-07-14" ;
    dcterms:source <https://raw.githubusercontent.com/cdisc-org/COSMoS/031429b1d14823721991cd23ee88a11616686ce3/export/cdisc_sdtm_dataset_specializations_latest.csv> ;
    rdfs:comment "Dataset Specialization instances for domain VS, rendered from the pinned COSMoS export. Variable order is the export's row order, carried as rdf:_n membership beside the variables edges. length and significantDigits are cast from the export's decimal form to integer; packageType is not in the export and is set to the enum's single value. A biomedicalConceptId or dataElementConceptId that resolves to no node is carried as the published string. The concept nodes those edges reach are declared in the Biomedical Concept instance graph, which is not imported. Draft - not a normative CDISC artifact." ;
    owl:imports <https://w3id.org/cdisc/cosmos/sdtm/> ;
    owl:versionIRI <https://w3id.org/cdisc/cosmos/dss/VS/0.4.0> ;
    owl:versionInfo "v0.4.0" .

<https://w3id.org/cdisc/cosmos/dss/VS/ABI> a cosmos_sdtm:SDTMGroup ;
    dcterms:identifier "ABI" ;
    rdf:_1 <https://w3id.org/cdisc/cosmos/dss/VS/ABI/VSTESTCD> ;
    rdf:_2 <https://w3id.org/cdisc/cosmos/dss/VS/ABI/VSTEST> ;
    rdf:_3 <https://w3id.org/cdisc/cosmos/dss/VS/ABI/VSORRES> ;
    rdf:_4 <https://w3id.org/cdisc/cosmos/dss/VS/ABI/VSSTRESC> ;
    rdf:_5 <https://w3id.org/cdisc/cosmos/dss/VS/ABI/VSSTRESN> ;
    rdf:_6 <https://w3id.org/cdisc/cosmos/dss/VS/ABI/VSDTC> ;
    cosmos_sdtm:biomedicalConceptId NCIT:C87304 ;
    cosmos_sdtm:domain "VS" ;
    cosmos_sdtm:packageDate "2026-05-26"^^xsd:date ;
    cosmos_sdtm:packageType <https://www.cdisc.org/cosmos/sdtm_v1.0/PackageTypeEnum#sdtm> ;
    cosmos_sdtm:sdtmigStartVersion "3-2" ;
    cosmos_sdtm:shortName "Ankle-Brachial Index" ;
    cosmos_sdtm:source "VS.VSTESTCD" ;
    cosmos_sdtm:variables <https://w3id.org/cdisc/cosmos/dss/VS/ABI/VSDTC>,
        <https://w3id.org/cdisc/cosmos/dss/VS/ABI/VSORRES>,
        <https://w3id.org/cdisc/cosmos/dss/VS/ABI/VSSTRESC>,
        <https://w3id.org/cdisc/cosmos/dss/VS/ABI/VSSTRESN>,
        <https://w3id.org/cdisc/cosmos/dss/VS/ABI/VSTEST>,
        <https://w3id.org/cdisc/cosmos/dss/VS/ABI/VSTESTCD> .

<https://w3id.org/cdisc/cosmos/dss/VS/ABSKNF> a cosmos_sdtm:SDTMGroup ;
    dcterms:identifier "ABSKNF" ;
    rdf:_1 <https://w3id.org/cdisc/cosmos/dss/VS/ABSKNF/VSTESTCD> ;
    rdf:_2 <https://w3id.org/cdisc/cosmos/dss/VS/ABSKNF/VSTEST> ;
    rdf:_3 <https://w3id.org/cdisc/cosmos/dss/VS/ABSKNF/VSORRES> ;
    rdf:_4 <https://w3id.org/cdisc/cosmos/dss/VS/ABSKNF/VSORRESU> ;
    rdf:_5 <https://w3id.org/cdisc/cosmos/dss/VS/ABSKNF/VSSTRESC> ;
    rdf:_6 <https://w3id.org/cdisc/cosmos/dss/VS/ABSKNF/VSSTRESN> ;
    rdf:_7 <https://w3id.org/cdisc/cosmos/dss/VS/ABSKNF/VSSTRESU> ;
    rdf:_8 <https://w3id.org/cdisc/cosmos/dss/VS/ABSKNF/VSDTC> ;
    cosmos_sdtm:biomedicalConceptId NCIT:C103346 ;
    cosmos_sdtm:domain "VS" ;
    cosmos_sdtm:packageDate "2026-05-26"^^xsd:date ;
    cosmos_sdtm:packageType <https://www.cdisc.org/cosmos/sdtm_v1.0/PackageTypeEnum#sdtm> ;
    cosmos_sdtm:sdtmigStartVersion "3-2" ;
    cosmos_sdtm:shortName "Abdominal Skinfold Thickness" ;
    cosmos_sdtm:source "VS.VSTESTCD" ;
    cosmos_sdtm:variables <https://w3id.org/cdisc/cosmos/dss/VS/ABSKNF/VSDTC>,
        <https://w3id.org/cdisc/cosmos/dss/VS/ABSKNF/VSORRES>,
        <https://w3id.org/cdisc/cosmos/dss/VS/ABSKNF/VSORRESU>,
        <https://w3id.org/cdisc/cosmos/dss/VS/ABSKNF/VSSTRESC>,
        <https://w3id.org/cdisc/cosmos/dss/VS/ABSKNF/VSSTRESN>,
        <https://w3id.org/cdisc/cosmos/dss/VS/ABSKNF/VSSTRESU>,
        <https://w3id.org/cdisc/cosmos/dss/VS/ABSKNF/VSTEST>,
        <https://w3id.org/cdisc/cosmos/dss/VS/ABSKNF/VSTESTCD> .

<https://w3id.org/cdisc/cosmos/dss/VS/ARMSPAN> a cosmos_sdtm:SDTMGroup ;
    dcterms:identifier "ARMSPAN" ;
    rdf:_1 <https://w3id.org/cdisc/cosmos/dss/VS/ARMSPAN/VSTESTCD> ;
    rdf:_2 <https://w3id.org/cdisc/cosmos/dss/VS/ARMSPAN/VSTEST> ;
    rdf:_3 <https://w3id.org/cdisc/cosmos/dss/VS/ARMSPAN/VSORRES> ;
    rdf:_4 <https://w3id.org/cdisc/cosmos/dss/VS/ARMSPAN/VSORRESU> ;
    rdf:_5 <https://w3id.org/cdisc/cosmos/dss/VS/ARMSPAN/VSSTRESC> ;
    rdf:_6 <https://w3id.org/cdisc/cosmos/dss/VS/ARMSPAN/VSSTRESN> ;
    rdf:_7 <https://w3id.org/cdisc/cosmos/dss/VS/ARMSPAN/VSSTRESU> ;
    rdf:_8 <https://w3id.org/cdisc/cosmos/dss/VS/ARMSPAN/VSDTC> ;
    cosmos_sdtm:biomedicalConceptId NCIT:C181553 ;
    cosmos_sdtm:domain "VS" ;
    cosmos_sdtm:packageDate "2026-05-26"^^xsd:date ;
    cosmos_sdtm:packageType <https://www.cdisc.org/cosmos/sdtm_v1.0/PackageTypeEnum#sdtm> ;
    cosmos_sdtm:sdtmigStartVersion "3-2" ;
    cosmos_sdtm:shortName "Arm Span" ;
    cosmos_sdtm:source "VS.VSTESTCD" ;
    cosmos_sdtm:variables <https://w3id.org/cdisc/cosmos/dss/VS/ARMSPAN/VSDTC>,
        <https://w3id.org/cdisc/cosmos/dss/VS/ARMSPAN/VSORRES>,
        <https://w3id.org/cdisc/cosmos/dss/VS/ARMSPAN/VSORRESU>,
        <https://w3id.org/cdisc/cosmos/dss/VS/ARMSPAN/VSSTRESC>,
        <https://w3id.org/cdisc/cosmos/dss/VS/ARMSPAN/VSSTRESN>,
        <https://w3id.org/cdisc/cosmos/dss/VS/ARMSPAN/VSSTRESU>,
        <https://w3id.org/cdisc/cosmos/dss/VS/ARMSPAN/VSTEST>,
        <https://w3id.org/cdisc/cosmos/dss/VS/ARMSPAN/VSTESTCD> .

<https://w3id.org/cdisc/cosmos/dss/VS/BCM> a cosmos_sdtm:SDTMGroup ;
    dcterms:identifier "BCM" ;
    rdf:_1 <https://w3id.org/cdisc/cosmos/dss/VS/BCM/VSTESTCD> ;
    rdf:_2 <https://w3id.org/cdisc/cosmos/dss/VS/BCM/VSTEST> ;
    rdf:_3 <https://w3id.org/cdisc/cosmos/dss/VS/BCM/VSORRES> ;
    rdf:_4 <https://w3id.org/cdisc/cosmos/dss/VS/BCM/VSORRESU> ;
    rdf:_5 <https://w3id.org/cdisc/cosmos/dss/VS/BCM/VSSTRESC> ;
    rdf:_6 <https://w3id.org/cdisc/cosmos/dss/VS/BCM/VSSTRESN> ;
    rdf:_7 <https://w3id.org/cdisc/cosmos/dss/VS/BCM/VSSTRESU> ;
    rdf:_8 <https://w3id.org/cdisc/cosmos/dss/VS/BCM/VSDTC> ;
    cosmos_sdtm:biomedicalConceptId NCIT:C199996 ;
    cosmos_sdtm:domain "VS" ;
    cosmos_sdtm:packageDate "2026-05-26"^^xsd:date ;
    cosmos_sdtm:packageType <https://www.cdisc.org/cosmos/sdtm_v1.0/PackageTypeEnum#sdtm> ;
    cosmos_sdtm:sdtmigStartVersion "3-2" ;
    cosmos_sdtm:shortName "Body Cell Mass" ;
    cosmos_sdtm:source "VS.VSTESTCD" ;
    cosmos_sdtm:variables <https://w3id.org/cdisc/cosmos/dss/VS/BCM/VSDTC>,
        <https://w3id.org/cdisc/cosmos/dss/VS/BCM/VSORRES>,
        <https://w3id.org/cdisc/cosmos/dss/VS/BCM/VSORRESU>,
        <https://w3id.org/cdisc/cosmos/dss/VS/BCM/VSSTRESC>,
        <https://w3id.org/cdisc/cosmos/dss/VS/BCM/VSSTRESN>,
        <https://w3id.org/cdisc/cosmos/dss/VS/BCM/VSSTRESU>,
        <https://w3id.org/cdisc/cosmos/dss/VS/BCM/VSTEST>,
        <https://w3id.org/cdisc/cosmos/dss/VS/BCM/VSTESTCD> .

<https://w3id.org/cdisc/cosmos/dss/VS/BLAPCTL> a cosmos_sdtm:SDTMGroup ;
    dcterms:identifier "BLAPCTL" ;
    rdf:_1 <https://w3id.org/cdisc/cosmos/dss/VS/BLAPCTL/VSTESTCD> ;
    rdf:_2 <https://w3id.org/cdisc/cosmos/dss/VS/BLAPCTL/VSTEST> ;
    rdf:_3 <https://w3id.org/cdisc/cosmos/dss/VS/BLAPCTL/VSORRES> ;
    rdf:_4 <https://w3id.org/cdisc/cosmos/dss/VS/BLAPCTL/VSSTRESC> ;
    rdf:_5 <https://w3id.org/cdisc/cosmos/dss/VS/BLAPCTL/VSSTRESN> ;
    rdf:_6 <https://w3id.org/cdisc/cosmos/dss/VS/BLAPCTL/VSDTC> ;
    cosmos_sdtm:biomedicalConceptId NCIT:C205752 ;
    cosmos_sdtm:domain "VS" ;
    cosmos_sdtm:packageDate "2026-05-26"^^xsd:date ;
    cosmos_sdtm:packageType <https://www.cdisc.org/cosmos/sdtm_v1.0/PackageTypeEnum#sdtm> ;
    cosmos_sdtm:sdtmigStartVersion "3-2" ;
    cosmos_sdtm:shortName "Body Length-for-Age Percentile" ;
    cosmos_sdtm:source "VS.VSTESTCD" ;
    cosmos_sdtm:variables <https://w3id.org/cdisc/cosmos/dss/VS/BLAPCTL/VSDTC>,
        <https://w3id.org/cdisc/cosmos/dss/VS/BLAPCTL/VSORRES>,
        <https://w3id.org/cdisc/cosmos/dss/VS/BLAPCTL/VSSTRESC>,
        <https://w3id.org/cdisc/cosmos/dss/VS/BLAPCTL/VSSTRESN>,
        <https://w3id.org/cdisc/cosmos/dss/VS/BLAPCTL/VSTEST>,
        <https://w3id.org/cdisc/cosmos/dss/VS/BLAPCTL/VSTESTCD> .

<https://w3id.org/cdisc/cosmos/dss/VS/BMI> a cosmos_sdtm:SDTMGroup ;
    dcterms:identifier "BMI" ;
    rdf:_1 <https://w3id.org/cdisc/cosmos/dss/VS/BMI/VSTESTCD> ;
    rdf:_2 <https://w3id.org/cdisc/cosmos/dss/VS/BMI/VSTEST> ;
    rdf:_3 <https://w3id.org/cdisc/cosmos/dss/VS/BMI/VSORRES> ;
    rdf:_4 <https://w3id.org/cdisc/cosmos/dss/VS/BMI/VSORRESU> ;
    rdf:_5 <https://w3id.org/cdisc/cosmos/dss/VS/BMI/VSSTRESC> ;
    rdf:_6 <https://w3id.org/cdisc/cosmos/dss/VS/BMI/VSSTRESN> ;
    rdf:_7 <https://w3id.org/cdisc/cosmos/dss/VS/BMI/VSSTRESU> ;
    rdf:_8 <https://w3id.org/cdisc/cosmos/dss/VS/BMI/VSDTC> ;
    cosmos_sdtm:biomedicalConceptId NCIT:C16358 ;
    cosmos_sdtm:domain "VS" ;
    cosmos_sdtm:packageDate "2026-05-26"^^xsd:date ;
    cosmos_sdtm:packageType <https://www.cdisc.org/cosmos/sdtm_v1.0/PackageTypeEnum#sdtm> ;
    cosmos_sdtm:sdtmigStartVersion "3-2" ;
    cosmos_sdtm:shortName "Body Mass Index" ;
    cosmos_sdtm:source "VS.VSTESTCD" ;
    cosmos_sdtm:variables <https://w3id.org/cdisc/cosmos/dss/VS/BMI/VSDTC>,
        <https://w3id.org/cdisc/cosmos/dss/VS/BMI/VSORRES>,
        <https://w3id.org/cdisc/cosmos/dss/VS/BMI/VSORRESU>,
        <https://w3id.org/cdisc/cosmos/dss/VS/BMI/VSSTRESC>,
        <https://w3id.org/cdisc/cosmos/dss/VS/BMI/VSSTRESN>,
        <https://w3id.org/cdisc/cosmos/dss/VS/BMI/VSSTRESU>,
        <https://w3id.org/cdisc/cosmos/dss/VS/BMI/VSTEST>,
        <https://w3id.org/cdisc/cosmos/dss/VS/BMI/VSTESTCD> .

<https://w3id.org/cdisc/cosmos/dss/VS/BMIAPCTL> a cosmos_sdtm:SDTMGroup ;
    dcterms:identifier "BMIAPCTL" ;
    rdf:_1 <https://w3id.org/cdisc/cosmos/dss/VS/BMIAPCTL/VSTESTCD> ;
    rdf:_2 <https://w3id.org/cdisc/cosmos/dss/VS/BMIAPCTL/VSTEST> ;
    rdf:_3 <https://w3id.org/cdisc/cosmos/dss/VS/BMIAPCTL/VSORRES> ;
    rdf:_4 <https://w3id.org/cdisc/cosmos/dss/VS/BMIAPCTL/VSSTRESC> ;
    rdf:_5 <https://w3id.org/cdisc/cosmos/dss/VS/BMIAPCTL/VSSTRESN> ;
    rdf:_6 <https://w3id.org/cdisc/cosmos/dss/VS/BMIAPCTL/VSDTC> ;
    cosmos_sdtm:biomedicalConceptId NCIT:C163567 ;
    cosmos_sdtm:domain "VS" ;
    cosmos_sdtm:packageDate "2026-05-26"^^xsd:date ;
    cosmos_sdtm:packageType <https://www.cdisc.org/cosmos/sdtm_v1.0/PackageTypeEnum#sdtm> ;
    cosmos_sdtm:sdtmigStartVersion "3-2" ;
    cosmos_sdtm:shortName "BMI-for-Age Percentile" ;
    cosmos_sdtm:source "VS.VSTESTCD" ;
    cosmos_sdtm:variables <https://w3id.org/cdisc/cosmos/dss/VS/BMIAPCTL/VSDTC>,
        <https://w3id.org/cdisc/cosmos/dss/VS/BMIAPCTL/VSORRES>,
        <https://w3id.org/cdisc/cosmos/dss/VS/BMIAPCTL/VSSTRESC>,
        <https://w3id.org/cdisc/cosmos/dss/VS/BMIAPCTL/VSSTRESN>,
        <https://w3id.org/cdisc/cosmos/dss/VS/BMIAPCTL/VSTEST>,
        <https://w3id.org/cdisc/cosmos/dss/VS/BMIAPCTL/VSTESTCD> .

<https://w3id.org/cdisc/cosmos/dss/VS/BMR> a cosmos_sdtm:SDTMGroup ;
    dcterms:identifier "BMR" ;
    rdf:_1 <https://w3id.org/cdisc/cosmos/dss/VS/BMR/VSTESTCD> ;
    rdf:_2 <https://w3id.org/cdisc/cosmos/dss/VS/BMR/VSTEST> ;
    rdf:_3 <https://w3id.org/cdisc/cosmos/dss/VS/BMR/VSORRES> ;
    rdf:_4 <https://w3id.org/cdisc/cosmos/dss/VS/BMR/VSORRESU> ;
    rdf:_5 <https://w3id.org/cdisc/cosmos/dss/VS/BMR/VSSTRESC> ;
    rdf:_6 <https://w3id.org/cdisc/cosmos/dss/VS/BMR/VSSTRESN> ;
    rdf:_7 <https://w3id.org/cdisc/cosmos/dss/VS/BMR/VSSTRESU> ;
    rdf:_8 <https://w3id.org/cdisc/cosmos/dss/VS/BMR/VSDTC> ;
    cosmos_sdtm:biomedicalConceptId NCIT:C126083 ;
    cosmos_sdtm:domain "VS" ;
    cosmos_sdtm:packageDate "2026-05-26"^^xsd:date ;
    cosmos_sdtm:packageType <https://www.cdisc.org/cosmos/sdtm_v1.0/PackageTypeEnum#sdtm> ;
    cosmos_sdtm:sdtmigStartVersion "3-2" ;
    cosmos_sdtm:shortName "Basal Metabolic Rate" ;
    cosmos_sdtm:source "VS.VSTESTCD" ;
    cosmos_sdtm:variables <https://w3id.org/cdisc/cosmos/dss/VS/BMR/VSDTC>,
        <https://w3id.org/cdisc/cosmos/dss/VS/BMR/VSORRES>,
        <https://w3id.org/cdisc/cosmos/dss/VS/BMR/VSORRESU>,
        <https://w3id.org/cdisc/cosmos/dss/VS/BMR/VSSTRESC>,
        <https://w3id.org/cdisc/cosmos/dss/VS/BMR/VSSTRESN>,
        <https://w3id.org/cdisc/cosmos/dss/VS/BMR/VSSTRESU>,
        <https://w3id.org/cdisc/cosmos/dss/VS/BMR/VSTEST>,
        <https://w3id.org/cdisc/cosmos/dss/VS/BMR/VSTESTCD> .

<https://w3id.org/cdisc/cosmos/dss/VS/BODLNGTH> a cosmos_sdtm:SDTMGroup ;
    dcterms:identifier "BODLNGTH" ;
    rdf:_1 <https://w3id.org/cdisc/cosmos/dss/VS/BODLNGTH/VSTESTCD> ;
    rdf:_2 <https://w3id.org/cdisc/cosmos/dss/VS/BODLNGTH/VSTEST> ;
    rdf:_3 <https://w3id.org/cdisc/cosmos/dss/VS/BODLNGTH/VSORRES> ;
    rdf:_4 <https://w3id.org/cdisc/cosmos/dss/VS/BODLNGTH/VSORRESU> ;
    rdf:_5 <https://w3id.org/cdisc/cosmos/dss/VS/BODLNGTH/VSSTRESC> ;
    rdf:_6 <https://w3id.org/cdisc/cosmos/dss/VS/BODLNGTH/VSSTRESN> ;
    rdf:_7 <https://w3id.org/cdisc/cosmos/dss/VS/BODLNGTH/VSSTRESU> ;
    rdf:_8 <https://w3id.org/cdisc/cosmos/dss/VS/BODLNGTH/VSDTC> ;
    cosmos_sdtm:biomedicalConceptId NCIT:C81298 ;
    cosmos_sdtm:domain "VS" ;
    cosmos_sdtm:packageDate "2026-05-26"^^xsd:date ;
    cosmos_sdtm:packageType <https://www.cdisc.org/cosmos/sdtm_v1.0/PackageTypeEnum#sdtm> ;
    cosmos_sdtm:sdtmigStartVersion "3-2" ;
    cosmos_sdtm:shortName "Body Length" ;
    cosmos_sdtm:source "VS.VSTESTCD" ;
    cosmos_sdtm:variables <https://w3id.org/cdisc/cosmos/dss/VS/BODLNGTH/VSDTC>,
        <https://w3id.org/cdisc/cosmos/dss/VS/BODLNGTH/VSORRES>,
        <https://w3id.org/cdisc/cosmos/dss/VS/BODLNGTH/VSORRESU>,
        <https://w3id.org/cdisc/cosmos/dss/VS/BODLNGTH/VSSTRESC>,
        <https://w3id.org/cdisc/cosmos/dss/VS/BODLNGTH/VSSTRESN>,
        <https://w3id.org/cdisc/cosmos/dss/VS/BODLNGTH/VSSTRESU>,
        <https://w3id.org/cdisc/cosmos/dss/VS/BODLNGTH/VSTEST>,
        <https://w3id.org/cdisc/cosmos/dss/VS/BODLNGTH/VSTESTCD> .

<https://w3id.org/cdisc/cosmos/dss/VS/BODYFATM> a cosmos_sdtm:SDTMGroup ;
    dcterms:identifier "BODYFATM" ;
    rdf:_1 <https://w3id.org/cdisc/cosmos/dss/VS/BODYFATM/VSTESTCD> ;
    rdf:_2 <https://w3id.org/cdisc/cosmos/dss/VS/BODYFATM/VSTEST> ;
    rdf:_3 <https://w3id.org/cdisc/cosmos/dss/VS/BODYFATM/VSORRES> ;
    rdf:_4 <https://w3id.org/cdisc/cosmos/dss/VS/BODYFATM/VSORRESU> ;
    rdf:_5 <https://w3id.org/cdisc/cosmos/dss/VS/BODYFATM/VSSTRESC> ;
    rdf:_6 <https://w3id.org/cdisc/cosmos/dss/VS/BODYFATM/VSSTRESN> ;
    rdf:_7 <https://w3id.org/cdisc/cosmos/dss/VS/BODYFATM/VSSTRESU> ;
    rdf:_8 <https://w3id.org/cdisc/cosmos/dss/VS/BODYFATM/VSDTC> ;
    cosmos_sdtm:biomedicalConceptId NCIT:C122232 ;
    cosmos_sdtm:domain "VS" ;
    cosmos_sdtm:packageDate "2026-05-26"^^xsd:date ;
    cosmos_sdtm:packageType <https://www.cdisc.org/cosmos/sdtm_v1.0/PackageTypeEnum#sdtm> ;
    cosmos_sdtm:sdtmigStartVersion "3-2" ;
    cosmos_sdtm:shortName "Body Fat Measurement" ;
    cosmos_sdtm:source "VS.VSTESTCD" ;
    cosmos_sdtm:variables <https://w3id.org/cdisc/cosmos/dss/VS/BODYFATM/VSDTC>,
        <https://w3id.org/cdisc/cosmos/dss/VS/BODYFATM/VSORRES>,
        <https://w3id.org/cdisc/cosmos/dss/VS/BODYFATM/VSORRESU>,
        <https://w3id.org/cdisc/cosmos/dss/VS/BODYFATM/VSSTRESC>,
        <https://w3id.org/cdisc/cosmos/dss/VS/BODYFATM/VSSTRESN>,
        <https://w3id.org/cdisc/cosmos/dss/VS/BODYFATM/VSSTRESU>,
        <https://w3id.org/cdisc/cosmos/dss/VS/BODYFATM/VSTEST>,
        <https://w3id.org/cdisc/cosmos/dss/VS/BODYFATM/VSTESTCD> .

<https://w3id.org/cdisc/cosmos/dss/VS/BRTHWT> a cosmos_sdtm:SDTMGroup ;
    dcterms:identifier "BRTHWT" ;
    rdf:_1 <https://w3id.org/cdisc/cosmos/dss/VS/BRTHWT/VSTESTCD> ;
    rdf:_2 <https://w3id.org/cdisc/cosmos/dss/VS/BRTHWT/VSTEST> ;
    rdf:_3 <https://w3id.org/cdisc/cosmos/dss/VS/BRTHWT/VSORRES> ;
    rdf:_4 <https://w3id.org/cdisc/cosmos/dss/VS/BRTHWT/VSORRESU> ;
    rdf:_5 <https://w3id.org/cdisc/cosmos/dss/VS/BRTHWT/VSSTRESC> ;
    rdf:_6 <https://w3id.org/cdisc/cosmos/dss/VS/BRTHWT/VSSTRESN> ;
    rdf:_7 <https://w3id.org/cdisc/cosmos/dss/VS/BRTHWT/VSSTRESU> ;
    rdf:_8 <https://w3id.org/cdisc/cosmos/dss/VS/BRTHWT/VSDTC> ;
    cosmos_sdtm:biomedicalConceptId NCIT:C76325 ;
    cosmos_sdtm:domain "VS" ;
    cosmos_sdtm:packageDate "2026-05-26"^^xsd:date ;
    cosmos_sdtm:packageType <https://www.cdisc.org/cosmos/sdtm_v1.0/PackageTypeEnum#sdtm> ;
    cosmos_sdtm:sdtmigStartVersion "3-2" ;
    cosmos_sdtm:shortName "Birth Weight" ;
    cosmos_sdtm:source "VS.VSTESTCD" ;
    cosmos_sdtm:variables <https://w3id.org/cdisc/cosmos/dss/VS/BRTHWT/VSDTC>,
        <https://w3id.org/cdisc/cosmos/dss/VS/BRTHWT/VSORRES>,
        <https://w3id.org/cdisc/cosmos/dss/VS/BRTHWT/VSORRESU>,
        <https://w3id.org/cdisc/cosmos/dss/VS/BRTHWT/VSSTRESC>,
        <https://w3id.org/cdisc/cosmos/dss/VS/BRTHWT/VSSTRESN>,
        <https://w3id.org/cdisc/cosmos/dss/VS/BRTHWT/VSSTRESU>,
        <https://w3id.org/cdisc/cosmos/dss/VS/BRTHWT/VSTEST>,
        <https://w3id.org/cdisc/cosmos/dss/VS/BRTHWT/VSTESTCD> .

<https://w3id.org/cdisc/cosmos/dss/VS/BSA> a cosmos_sdtm:SDTMGroup ;
    dcterms:identifier "BSA" ;
    rdf:_1 <https://w3id.org/cdisc/cosmos/dss/VS/BSA/VSTESTCD> ;
    rdf:_2 <https://w3id.org/cdisc/cosmos/dss/VS/BSA/VSTEST> ;
    rdf:_3 <https://w3id.org/cdisc/cosmos/dss/VS/BSA/VSORRES> ;
    rdf:_4 <https://w3id.org/cdisc/cosmos/dss/VS/BSA/VSORRESU> ;
    rdf:_5 <https://w3id.org/cdisc/cosmos/dss/VS/BSA/VSSTRESC> ;
    rdf:_6 <https://w3id.org/cdisc/cosmos/dss/VS/BSA/VSSTRESN> ;
    rdf:_7 <https://w3id.org/cdisc/cosmos/dss/VS/BSA/VSSTRESU> ;
    rdf:_8 <https://w3id.org/cdisc/cosmos/dss/VS/BSA/VSDTC> ;
    cosmos_sdtm:biomedicalConceptId NCIT:C25157 ;
    cosmos_sdtm:domain "VS" ;
    cosmos_sdtm:packageDate "2026-05-26"^^xsd:date ;
    cosmos_sdtm:packageType <https://www.cdisc.org/cosmos/sdtm_v1.0/PackageTypeEnum#sdtm> ;
    cosmos_sdtm:sdtmigStartVersion "3-2" ;
    cosmos_sdtm:shortName "Body Surface Area" ;
    cosmos_sdtm:source "VS.VSTESTCD" ;
    cosmos_sdtm:variables <https://w3id.org/cdisc/cosmos/dss/VS/BSA/VSDTC>,
        <https://w3id.org/cdisc/cosmos/dss/VS/BSA/VSORRES>,
        <https://w3id.org/cdisc/cosmos/dss/VS/BSA/VSORRESU>,
        <https://w3id.org/cdisc/cosmos/dss/VS/BSA/VSSTRESC>,
        <https://w3id.org/cdisc/cosmos/dss/VS/BSA/VSSTRESN>,
        <https://w3id.org/cdisc/cosmos/dss/VS/BSA/VSSTRESU>,
        <https://w3id.org/cdisc/cosmos/dss/VS/BSA/VSTEST>,
        <https://w3id.org/cdisc/cosmos/dss/VS/BSA/VSTESTCD> .

<https://w3id.org/cdisc/cosmos/dss/VS/CALFCIR> a cosmos_sdtm:SDTMGroup ;
    dcterms:identifier "CALFCIR" ;
    rdf:_1 <https://w3id.org/cdisc/cosmos/dss/VS/CALFCIR/VSTESTCD> ;
    rdf:_2 <https://w3id.org/cdisc/cosmos/dss/VS/CALFCIR/VSTEST> ;
    rdf:_3 <https://w3id.org/cdisc/cosmos/dss/VS/CALFCIR/VSORRES> ;
    rdf:_4 <https://w3id.org/cdisc/cosmos/dss/VS/CALFCIR/VSORRESU> ;
    rdf:_5 <https://w3id.org/cdisc/cosmos/dss/VS/CALFCIR/VSSTRESC> ;
    rdf:_6 <https://w3id.org/cdisc/cosmos/dss/VS/CALFCIR/VSSTRESN> ;
    rdf:_7 <https://w3id.org/cdisc/cosmos/dss/VS/CALFCIR/VSSTRESU> ;
    rdf:_8 <https://w3id.org/cdisc/cosmos/dss/VS/CALFCIR/VSDTC> ;
    cosmos_sdtm:biomedicalConceptId NCIT:C178060 ;
    cosmos_sdtm:domain "VS" ;
    cosmos_sdtm:packageDate "2026-05-26"^^xsd:date ;
    cosmos_sdtm:packageType <https://www.cdisc.org/cosmos/sdtm_v1.0/PackageTypeEnum#sdtm> ;
    cosmos_sdtm:sdtmigStartVersion "3-2" ;
    cosmos_sdtm:shortName "Calf Circumference" ;
    cosmos_sdtm:source "VS.VSTESTCD" ;
    cosmos_sdtm:variables <https://w3id.org/cdisc/cosmos/dss/VS/CALFCIR/VSDTC>,
        <https://w3id.org/cdisc/cosmos/dss/VS/CALFCIR/VSORRES>,
        <https://w3id.org/cdisc/cosmos/dss/VS/CALFCIR/VSORRESU>,
        <https://w3id.org/cdisc/cosmos/dss/VS/CALFCIR/VSSTRESC>,
        <https://w3id.org/cdisc/cosmos/dss/VS/CALFCIR/VSSTRESN>,
        <https://w3id.org/cdisc/cosmos/dss/VS/CALFCIR/VSSTRESU>,
        <https://w3id.org/cdisc/cosmos/dss/VS/CALFCIR/VSTEST>,
        <https://w3id.org/cdisc/cosmos/dss/VS/CALFCIR/VSTESTCD> .

<https://w3id.org/cdisc/cosmos/dss/VS/CHESTCIR> a cosmos_sdtm:SDTMGroup ;
    dcterms:identifier "CHESTCIR" ;
    rdf:_1 <https://w3id.org/cdisc/cosmos/dss/VS/CHESTCIR/VSTESTCD> ;
    rdf:_2 <https://w3id.org/cdisc/cosmos/dss/VS/CHESTCIR/VSTEST> ;
    rdf:_3 <https://w3id.org/cdisc/cosmos/dss/VS/CHESTCIR/VSORRES> ;
    rdf:_4 <https://w3id.org/cdisc/cosmos/dss/VS/CHESTCIR/VSORRESU> ;
    rdf:_5 <https://w3id.org/cdisc/cosmos/dss/VS/CHESTCIR/VSSTRESC> ;
    rdf:_6 <https://w3id.org/cdisc/cosmos/dss/VS/CHESTCIR/VSSTRESN> ;
    rdf:_7 <https://w3id.org/cdisc/cosmos/dss/VS/CHESTCIR/VSSTRESU> ;
    rdf:_8 <https://w3id.org/cdisc/cosmos/dss/VS/CHESTCIR/VSDTC> ;
    cosmos_sdtm:biomedicalConceptId NCIT:C156606 ;
    cosmos_sdtm:domain "VS" ;
    cosmos_sdtm:packageDate "2026-05-26"^^xsd:date ;
    cosmos_sdtm:packageType <https://www.cdisc.org/cosmos/sdtm_v1.0/PackageTypeEnum#sdtm> ;
    cosmos_sdtm:sdtmigStartVersion "3-2" ;
    cosmos_sdtm:shortName "Chest Circumference" ;
    cosmos_sdtm:source "VS.VSTESTCD" ;
    cosmos_sdtm:variables <https://w3id.org/cdisc/cosmos/dss/VS/CHESTCIR/VSDTC>,
        <https://w3id.org/cdisc/cosmos/dss/VS/CHESTCIR/VSORRES>,
        <https://w3id.org/cdisc/cosmos/dss/VS/CHESTCIR/VSORRESU>,
        <https://w3id.org/cdisc/cosmos/dss/VS/CHESTCIR/VSSTRESC>,
        <https://w3id.org/cdisc/cosmos/dss/VS/CHESTCIR/VSSTRESN>,
        <https://w3id.org/cdisc/cosmos/dss/VS/CHESTCIR/VSSTRESU>,
        <https://w3id.org/cdisc/cosmos/dss/VS/CHESTCIR/VSTEST>,
        <https://w3id.org/cdisc/cosmos/dss/VS/CHESTCIR/VSTESTCD> .

<https://w3id.org/cdisc/cosmos/dss/VS/CPLRFLT> a cosmos_sdtm:SDTMGroup ;
    dcterms:identifier "CPLRFLT" ;
    rdf:_1 <https://w3id.org/cdisc/cosmos/dss/VS/CPLRFLT/VSTESTCD> ;
    rdf:_2 <https://w3id.org/cdisc/cosmos/dss/VS/CPLRFLT/VSTEST> ;
    rdf:_3 <https://w3id.org/cdisc/cosmos/dss/VS/CPLRFLT/VSORRES> ;
    rdf:_4 <https://w3id.org/cdisc/cosmos/dss/VS/CPLRFLT/VSORRESU> ;
    rdf:_5 <https://w3id.org/cdisc/cosmos/dss/VS/CPLRFLT/VSSTRESC> ;
    rdf:_6 <https://w3id.org/cdisc/cosmos/dss/VS/CPLRFLT/VSSTRESN> ;
    rdf:_7 <https://w3id.org/cdisc/cosmos/dss/VS/CPLRFLT/VSSTRESU> ;
    rdf:_8 <https://w3id.org/cdisc/cosmos/dss/VS/CPLRFLT/VSDTC> ;
    cosmos_sdtm:biomedicalConceptId NCIT:C168125 ;
    cosmos_sdtm:domain "VS" ;
    cosmos_sdtm:packageDate "2026-05-26"^^xsd:date ;
    cosmos_sdtm:packageType <https://www.cdisc.org/cosmos/sdtm_v1.0/PackageTypeEnum#sdtm> ;
    cosmos_sdtm:sdtmigStartVersion "3-2" ;
    cosmos_sdtm:shortName "Capillary Refill Time" ;
    cosmos_sdtm:source "VS.VSTESTCD" ;
    cosmos_sdtm:variables <https://w3id.org/cdisc/cosmos/dss/VS/CPLRFLT/VSDTC>,
        <https://w3id.org/cdisc/cosmos/dss/VS/CPLRFLT/VSORRES>,
        <https://w3id.org/cdisc/cosmos/dss/VS/CPLRFLT/VSORRESU>,
        <https://w3id.org/cdisc/cosmos/dss/VS/CPLRFLT/VSSTRESC>,
        <https://w3id.org/cdisc/cosmos/dss/VS/CPLRFLT/VSSTRESN>,
        <https://w3id.org/cdisc/cosmos/dss/VS/CPLRFLT/VSSTRESU>,
        <https://w3id.org/cdisc/cosmos/dss/VS/CPLRFLT/VSTEST>,
        <https://w3id.org/cdisc/cosmos/dss/VS/CPLRFLT/VSTESTCD> .

<https://w3id.org/cdisc/cosmos/dss/VS/CRWNHEEL> a cosmos_sdtm:SDTMGroup ;
    dcterms:identifier "CRWNHEEL" ;
    rdf:_1 <https://w3id.org/cdisc/cosmos/dss/VS/CRWNHEEL/VSTESTCD> ;
    rdf:_2 <https://w3id.org/cdisc/cosmos/dss/VS/CRWNHEEL/VSTEST> ;
    rdf:_3 <https://w3id.org/cdisc/cosmos/dss/VS/CRWNHEEL/VSORRES> ;
    rdf:_4 <https://w3id.org/cdisc/cosmos/dss/VS/CRWNHEEL/VSORRESU> ;
    rdf:_5 <https://w3id.org/cdisc/cosmos/dss/VS/CRWNHEEL/VSSTRESC> ;
    rdf:_6 <https://w3id.org/cdisc/cosmos/dss/VS/CRWNHEEL/VSSTRESN> ;
    rdf:_7 <https://w3id.org/cdisc/cosmos/dss/VS/CRWNHEEL/VSSTRESU> ;
    rdf:_8 <https://w3id.org/cdisc/cosmos/dss/VS/CRWNHEEL/VSDTC> ;
    cosmos_sdtm:biomedicalConceptId NCIT:C170639 ;
    cosmos_sdtm:domain "VS" ;
    cosmos_sdtm:packageDate "2026-05-26"^^xsd:date ;
    cosmos_sdtm:packageType <https://www.cdisc.org/cosmos/sdtm_v1.0/PackageTypeEnum#sdtm> ;
    cosmos_sdtm:sdtmigStartVersion "3-2" ;
    cosmos_sdtm:shortName "Crown-to-Heel Length" ;
    cosmos_sdtm:source "VS.VSTESTCD" ;
    cosmos_sdtm:variables <https://w3id.org/cdisc/cosmos/dss/VS/CRWNHEEL/VSDTC>,
        <https://w3id.org/cdisc/cosmos/dss/VS/CRWNHEEL/VSORRES>,
        <https://w3id.org/cdisc/cosmos/dss/VS/CRWNHEEL/VSORRESU>,
        <https://w3id.org/cdisc/cosmos/dss/VS/CRWNHEEL/VSSTRESC>,
        <https://w3id.org/cdisc/cosmos/dss/VS/CRWNHEEL/VSSTRESN>,
        <https://w3id.org/cdisc/cosmos/dss/VS/CRWNHEEL/VSSTRESU>,
        <https://w3id.org/cdisc/cosmos/dss/VS/CRWNHEEL/VSTEST>,
        <https://w3id.org/cdisc/cosmos/dss/VS/CRWNHEEL/VSTESTCD> .

<https://w3id.org/cdisc/cosmos/dss/VS/DBPAPCTL> a cosmos_sdtm:SDTMGroup ;
    dcterms:identifier "DBPAPCTL" ;
    rdf:_1 <https://w3id.org/cdisc/cosmos/dss/VS/DBPAPCTL/VSTESTCD> ;
    rdf:_2 <https://w3id.org/cdisc/cosmos/dss/VS/DBPAPCTL/VSTEST> ;
    rdf:_3 <https://w3id.org/cdisc/cosmos/dss/VS/DBPAPCTL/VSORRES> ;
    rdf:_4 <https://w3id.org/cdisc/cosmos/dss/VS/DBPAPCTL/VSSTRESC> ;
    rdf:_5 <https://w3id.org/cdisc/cosmos/dss/VS/DBPAPCTL/VSSTRESN> ;
    rdf:_6 <https://w3id.org/cdisc/cosmos/dss/VS/DBPAPCTL/VSDTC> ;
    cosmos_sdtm:biomedicalConceptId NCIT:C172610 ;
    cosmos_sdtm:domain "VS" ;
    cosmos_sdtm:packageDate "2026-05-26"^^xsd:date ;
    cosmos_sdtm:packageType <https://www.cdisc.org/cosmos/sdtm_v1.0/PackageTypeEnum#sdtm> ;
    cosmos_sdtm:sdtmigStartVersion "3-2" ;
    cosmos_sdtm:shortName "Diastolic BP-for-Age Percentile" ;
    cosmos_sdtm:source "VS.VSTESTCD" ;
    cosmos_sdtm:variables <https://w3id.org/cdisc/cosmos/dss/VS/DBPAPCTL/VSDTC>,
        <https://w3id.org/cdisc/cosmos/dss/VS/DBPAPCTL/VSORRES>,
        <https://w3id.org/cdisc/cosmos/dss/VS/DBPAPCTL/VSSTRESC>,
        <https://w3id.org/cdisc/cosmos/dss/VS/DBPAPCTL/VSSTRESN>,
        <https://w3id.org/cdisc/cosmos/dss/VS/DBPAPCTL/VSTEST>,
        <https://w3id.org/cdisc/cosmos/dss/VS/DBPAPCTL/VSTESTCD> .

<https://w3id.org/cdisc/cosmos/dss/VS/DBPHPCTL> a cosmos_sdtm:SDTMGroup ;
    dcterms:identifier "DBPHPCTL" ;
    rdf:_1 <https://w3id.org/cdisc/cosmos/dss/VS/DBPHPCTL/VSTESTCD> ;
    rdf:_2 <https://w3id.org/cdisc/cosmos/dss/VS/DBPHPCTL/VSTEST> ;
    rdf:_3 <https://w3id.org/cdisc/cosmos/dss/VS/DBPHPCTL/VSORRES> ;
    rdf:_4 <https://w3id.org/cdisc/cosmos/dss/VS/DBPHPCTL/VSSTRESC> ;
    rdf:_5 <https://w3id.org/cdisc/cosmos/dss/VS/DBPHPCTL/VSSTRESN> ;
    rdf:_6 <https://w3id.org/cdisc/cosmos/dss/VS/DBPHPCTL/VSDTC> ;
    cosmos_sdtm:biomedicalConceptId NCIT:C172609 ;
    cosmos_sdtm:domain "VS" ;
    cosmos_sdtm:packageDate "2026-05-26"^^xsd:date ;
    cosmos_sdtm:packageType <https://www.cdisc.org/cosmos/sdtm_v1.0/PackageTypeEnum#sdtm> ;
    cosmos_sdtm:sdtmigStartVersion "3-2" ;
    cosmos_sdtm:shortName "Diastolic BP-for-Height Percentile" ;
    cosmos_sdtm:source "VS.VSTESTCD" ;
    cosmos_sdtm:variables <https://w3id.org/cdisc/cosmos/dss/VS/DBPHPCTL/VSDTC>,
        <https://w3id.org/cdisc/cosmos/dss/VS/DBPHPCTL/VSORRES>,
        <https://w3id.org/cdisc/cosmos/dss/VS/DBPHPCTL/VSSTRESC>,
        <https://w3id.org/cdisc/cosmos/dss/VS/DBPHPCTL/VSSTRESN>,
        <https://w3id.org/cdisc/cosmos/dss/VS/DBPHPCTL/VSTEST>,
        <https://w3id.org/cdisc/cosmos/dss/VS/DBPHPCTL/VSTESTCD> .

<https://w3id.org/cdisc/cosmos/dss/VS/DIABP> a cosmos_sdtm:SDTMGroup ;
    dcterms:identifier "DIABP" ;
    rdf:_1 <https://w3id.org/cdisc/cosmos/dss/VS/DIABP/VSTESTCD> ;
    rdf:_10 <https://w3id.org/cdisc/cosmos/dss/VS/DIABP/VSLAT> ;
    rdf:_11 <https://w3id.org/cdisc/cosmos/dss/VS/DIABP/VSDTC> ;
    rdf:_2 <https://w3id.org/cdisc/cosmos/dss/VS/DIABP/VSTEST> ;
    rdf:_3 <https://w3id.org/cdisc/cosmos/dss/VS/DIABP/VSORRES> ;
    rdf:_4 <https://w3id.org/cdisc/cosmos/dss/VS/DIABP/VSORRESU> ;
    rdf:_5 <https://w3id.org/cdisc/cosmos/dss/VS/DIABP/VSSTRESC> ;
    rdf:_6 <https://w3id.org/cdisc/cosmos/dss/VS/DIABP/VSSTRESN> ;
    rdf:_7 <https://w3id.org/cdisc/cosmos/dss/VS/DIABP/VSSTRESU> ;
    rdf:_8 <https://w3id.org/cdisc/cosmos/dss/VS/DIABP/VSPOS> ;
    rdf:_9 <https://w3id.org/cdisc/cosmos/dss/VS/DIABP/VSLOC> ;
    cosmos_sdtm:biomedicalConceptId NCIT:C25299 ;
    cosmos_sdtm:domain "VS" ;
    cosmos_sdtm:packageDate "2026-05-26"^^xsd:date ;
    cosmos_sdtm:packageType <https://www.cdisc.org/cosmos/sdtm_v1.0/PackageTypeEnum#sdtm> ;
    cosmos_sdtm:sdtmigStartVersion "3-2" ;
    cosmos_sdtm:shortName "Diastolic Blood Pressure" ;
    cosmos_sdtm:source "VS.VSTESTCD" ;
    cosmos_sdtm:variables <https://w3id.org/cdisc/cosmos/dss/VS/DIABP/VSDTC>,
        <https://w3id.org/cdisc/cosmos/dss/VS/DIABP/VSLAT>,
        <https://w3id.org/cdisc/cosmos/dss/VS/DIABP/VSLOC>,
        <https://w3id.org/cdisc/cosmos/dss/VS/DIABP/VSORRES>,
        <https://w3id.org/cdisc/cosmos/dss/VS/DIABP/VSORRESU>,
        <https://w3id.org/cdisc/cosmos/dss/VS/DIABP/VSPOS>,
        <https://w3id.org/cdisc/cosmos/dss/VS/DIABP/VSSTRESC>,
        <https://w3id.org/cdisc/cosmos/dss/VS/DIABP/VSSTRESN>,
        <https://w3id.org/cdisc/cosmos/dss/VS/DIABP/VSSTRESU>,
        <https://w3id.org/cdisc/cosmos/dss/VS/DIABP/VSTEST>,
        <https://w3id.org/cdisc/cosmos/dss/VS/DIABP/VSTESTCD> .

<https://w3id.org/cdisc/cosmos/dss/VS/DIABP_EXT> a cosmos_sdtm:SDTMGroup ;
    dcterms:identifier "DIABP_EXT" ;
    rdf:_1 <https://w3id.org/cdisc/cosmos/dss/VS/DIABP_EXT/VSTESTCD> ;
    rdf:_10 <https://w3id.org/cdisc/cosmos/dss/VS/DIABP_EXT/VSLAT> ;
    rdf:_11 <https://w3id.org/cdisc/cosmos/dss/VS/DIABP_EXT/VSDTC> ;
    rdf:_2 <https://w3id.org/cdisc/cosmos/dss/VS/DIABP_EXT/VSTEST> ;
    rdf:_3 <https://w3id.org/cdisc/cosmos/dss/VS/DIABP_EXT/VSORRES> ;
    rdf:_4 <https://w3id.org/cdisc/cosmos/dss/VS/DIABP_EXT/VSORRESU> ;
    rdf:_5 <https://w3id.org/cdisc/cosmos/dss/VS/DIABP_EXT/VSSTRESC> ;
    rdf:_6 <https://w3id.org/cdisc/cosmos/dss/VS/DIABP_EXT/VSSTRESN> ;
    rdf:_7 <https://w3id.org/cdisc/cosmos/dss/VS/DIABP_EXT/VSSTRESU> ;
    rdf:_8 <https://w3id.org/cdisc/cosmos/dss/VS/DIABP_EXT/VSPOS> ;
    rdf:_9 <https://w3id.org/cdisc/cosmos/dss/VS/DIABP_EXT/VSLOC> ;
    cosmos_sdtm:biomedicalConceptId NCIT:C25299 ;
    cosmos_sdtm:domain "VS" ;
    cosmos_sdtm:packageDate "2026-05-26"^^xsd:date ;
    cosmos_sdtm:packageType <https://www.cdisc.org/cosmos/sdtm_v1.0/PackageTypeEnum#sdtm> ;
    cosmos_sdtm:sdtmigStartVersion "3-2" ;
    cosmos_sdtm:shortName "Diastolic Blood Pressure Extended" ;
    cosmos_sdtm:source "VS.VSTESTCD" ;
    cosmos_sdtm:variables <https://w3id.org/cdisc/cosmos/dss/VS/DIABP_EXT/VSDTC>,
        <https://w3id.org/cdisc/cosmos/dss/VS/DIABP_EXT/VSLAT>,
        <https://w3id.org/cdisc/cosmos/dss/VS/DIABP_EXT/VSLOC>,
        <https://w3id.org/cdisc/cosmos/dss/VS/DIABP_EXT/VSORRES>,
        <https://w3id.org/cdisc/cosmos/dss/VS/DIABP_EXT/VSORRESU>,
        <https://w3id.org/cdisc/cosmos/dss/VS/DIABP_EXT/VSPOS>,
        <https://w3id.org/cdisc/cosmos/dss/VS/DIABP_EXT/VSSTRESC>,
        <https://w3id.org/cdisc/cosmos/dss/VS/DIABP_EXT/VSSTRESN>,
        <https://w3id.org/cdisc/cosmos/dss/VS/DIABP_EXT/VSSTRESU>,
        <https://w3id.org/cdisc/cosmos/dss/VS/DIABP_EXT/VSTEST>,
        <https://w3id.org/cdisc/cosmos/dss/VS/DIABP_EXT/VSTESTCD> .

<https://w3id.org/cdisc/cosmos/dss/VS/ECW> a cosmos_sdtm:SDTMGroup ;
    dcterms:identifier "ECW" ;
    rdf:_1 <https://w3id.org/cdisc/cosmos/dss/VS/ECW/VSTESTCD> ;
    rdf:_2 <https://w3id.org/cdisc/cosmos/dss/VS/ECW/VSTEST> ;
    rdf:_3 <https://w3id.org/cdisc/cosmos/dss/VS/ECW/VSORRES> ;
    rdf:_4 <https://w3id.org/cdisc/cosmos/dss/VS/ECW/VSORRESU> ;
    rdf:_5 <https://w3id.org/cdisc/cosmos/dss/VS/ECW/VSSTRESC> ;
    rdf:_6 <https://w3id.org/cdisc/cosmos/dss/VS/ECW/VSSTRESN> ;
    rdf:_7 <https://w3id.org/cdisc/cosmos/dss/VS/ECW/VSSTRESU> ;
    rdf:_8 <https://w3id.org/cdisc/cosmos/dss/VS/ECW/VSDTC> ;
    cosmos_sdtm:biomedicalConceptId NCIT:C191364 ;
    cosmos_sdtm:domain "VS" ;
    cosmos_sdtm:packageDate "2026-05-26"^^xsd:date ;
    cosmos_sdtm:packageType <https://www.cdisc.org/cosmos/sdtm_v1.0/PackageTypeEnum#sdtm> ;
    cosmos_sdtm:sdtmigStartVersion "3-2" ;
    cosmos_sdtm:shortName "Extracellular Water" ;
    cosmos_sdtm:source "VS.VSTESTCD" ;
    cosmos_sdtm:variables <https://w3id.org/cdisc/cosmos/dss/VS/ECW/VSDTC>,
        <https://w3id.org/cdisc/cosmos/dss/VS/ECW/VSORRES>,
        <https://w3id.org/cdisc/cosmos/dss/VS/ECW/VSORRESU>,
        <https://w3id.org/cdisc/cosmos/dss/VS/ECW/VSSTRESC>,
        <https://w3id.org/cdisc/cosmos/dss/VS/ECW/VSSTRESN>,
        <https://w3id.org/cdisc/cosmos/dss/VS/ECW/VSSTRESU>,
        <https://w3id.org/cdisc/cosmos/dss/VS/ECW/VSTEST>,
        <https://w3id.org/cdisc/cosmos/dss/VS/ECW/VSTESTCD> .

<https://w3id.org/cdisc/cosmos/dss/VS/ECWTBW> a cosmos_sdtm:SDTMGroup ;
    dcterms:identifier "ECWTBW" ;
    rdf:_1 <https://w3id.org/cdisc/cosmos/dss/VS/ECWTBW/VSTESTCD> ;
    rdf:_2 <https://w3id.org/cdisc/cosmos/dss/VS/ECWTBW/VSTEST> ;
    rdf:_3 <https://w3id.org/cdisc/cosmos/dss/VS/ECWTBW/VSORRES> ;
    rdf:_4 <https://w3id.org/cdisc/cosmos/dss/VS/ECWTBW/VSORRESU> ;
    rdf:_5 <https://w3id.org/cdisc/cosmos/dss/VS/ECWTBW/VSSTRESC> ;
    rdf:_6 <https://w3id.org/cdisc/cosmos/dss/VS/ECWTBW/VSSTRESN> ;
    rdf:_7 <https://w3id.org/cdisc/cosmos/dss/VS/ECWTBW/VSSTRESU> ;
    rdf:_8 <https://w3id.org/cdisc/cosmos/dss/VS/ECWTBW/VSDTC> ;
    cosmos_sdtm:biomedicalConceptId NCIT:C191363 ;
    cosmos_sdtm:domain "VS" ;
    cosmos_sdtm:packageDate "2026-05-26"^^xsd:date ;
    cosmos_sdtm:packageType <https://www.cdisc.org/cosmos/sdtm_v1.0/PackageTypeEnum#sdtm> ;
    cosmos_sdtm:sdtmigStartVersion "3-2" ;
    cosmos_sdtm:shortName "Extracellular Water/Total Body Water" ;
    cosmos_sdtm:source "VS.VSTESTCD" ;
    cosmos_sdtm:variables <https://w3id.org/cdisc/cosmos/dss/VS/ECWTBW/VSDTC>,
        <https://w3id.org/cdisc/cosmos/dss/VS/ECWTBW/VSORRES>,
        <https://w3id.org/cdisc/cosmos/dss/VS/ECWTBW/VSORRESU>,
        <https://w3id.org/cdisc/cosmos/dss/VS/ECWTBW/VSSTRESC>,
        <https://w3id.org/cdisc/cosmos/dss/VS/ECWTBW/VSSTRESN>,
        <https://w3id.org/cdisc/cosmos/dss/VS/ECWTBW/VSSTRESU>,
        <https://w3id.org/cdisc/cosmos/dss/VS/ECWTBW/VSTEST>,
        <https://w3id.org/cdisc/cosmos/dss/VS/ECWTBW/VSTESTCD> .

<https://w3id.org/cdisc/cosmos/dss/VS/ENRGEXP> a cosmos_sdtm:SDTMGroup ;
    dcterms:identifier "ENRGEXP" ;
    rdf:_1 <https://w3id.org/cdisc/cosmos/dss/VS/ENRGEXP/VSTESTCD> ;
    rdf:_2 <https://w3id.org/cdisc/cosmos/dss/VS/ENRGEXP/VSTEST> ;
    rdf:_3 <https://w3id.org/cdisc/cosmos/dss/VS/ENRGEXP/VSORRES> ;
    rdf:_4 <https://w3id.org/cdisc/cosmos/dss/VS/ENRGEXP/VSORRESU> ;
    rdf:_5 <https://w3id.org/cdisc/cosmos/dss/VS/ENRGEXP/VSSTRESC> ;
    rdf:_6 <https://w3id.org/cdisc/cosmos/dss/VS/ENRGEXP/VSSTRESN> ;
    rdf:_7 <https://w3id.org/cdisc/cosmos/dss/VS/ENRGEXP/VSSTRESU> ;
    rdf:_8 <https://w3id.org/cdisc/cosmos/dss/VS/ENRGEXP/VSDTC> ;
    cosmos_sdtm:biomedicalConceptId NCIT:C147491 ;
    cosmos_sdtm:domain "VS" ;
    cosmos_sdtm:packageDate "2026-05-26"^^xsd:date ;
    cosmos_sdtm:packageType <https://www.cdisc.org/cosmos/sdtm_v1.0/PackageTypeEnum#sdtm> ;
    cosmos_sdtm:sdtmigStartVersion "3-2" ;
    cosmos_sdtm:shortName "Energy Expenditure" ;
    cosmos_sdtm:source "VS.VSTESTCD" ;
    cosmos_sdtm:variables <https://w3id.org/cdisc/cosmos/dss/VS/ENRGEXP/VSDTC>,
        <https://w3id.org/cdisc/cosmos/dss/VS/ENRGEXP/VSORRES>,
        <https://w3id.org/cdisc/cosmos/dss/VS/ENRGEXP/VSORRESU>,
        <https://w3id.org/cdisc/cosmos/dss/VS/ENRGEXP/VSSTRESC>,
        <https://w3id.org/cdisc/cosmos/dss/VS/ENRGEXP/VSSTRESN>,
        <https://w3id.org/cdisc/cosmos/dss/VS/ENRGEXP/VSSTRESU>,
        <https://w3id.org/cdisc/cosmos/dss/VS/ENRGEXP/VSTEST>,
        <https://w3id.org/cdisc/cosmos/dss/VS/ENRGEXP/VSTESTCD> .

<https://w3id.org/cdisc/cosmos/dss/VS/EWEIGHT> a cosmos_sdtm:SDTMGroup ;
    dcterms:identifier "EWEIGHT" ;
    rdf:_1 <https://w3id.org/cdisc/cosmos/dss/VS/EWEIGHT/VSTESTCD> ;
    rdf:_2 <https://w3id.org/cdisc/cosmos/dss/VS/EWEIGHT/VSTEST> ;
    rdf:_3 <https://w3id.org/cdisc/cosmos/dss/VS/EWEIGHT/VSORRES> ;
    rdf:_4 <https://w3id.org/cdisc/cosmos/dss/VS/EWEIGHT/VSORRESU> ;
    rdf:_5 <https://w3id.org/cdisc/cosmos/dss/VS/EWEIGHT/VSSTRESC> ;
    rdf:_6 <https://w3id.org/cdisc/cosmos/dss/VS/EWEIGHT/VSSTRESN> ;
    rdf:_7 <https://w3id.org/cdisc/cosmos/dss/VS/EWEIGHT/VSSTRESU> ;
    rdf:_8 <https://w3id.org/cdisc/cosmos/dss/VS/EWEIGHT/VSDTC> ;
    cosmos_sdtm:biomedicalConceptId NCIT:C132482 ;
    cosmos_sdtm:domain "VS" ;
    cosmos_sdtm:packageDate "2026-05-26"^^xsd:date ;
    cosmos_sdtm:packageType <https://www.cdisc.org/cosmos/sdtm_v1.0/PackageTypeEnum#sdtm> ;
    cosmos_sdtm:sdtmigStartVersion "3-2" ;
    cosmos_sdtm:shortName "Estimated Weight" ;
    cosmos_sdtm:source "VS.VSTESTCD" ;
    cosmos_sdtm:variables <https://w3id.org/cdisc/cosmos/dss/VS/EWEIGHT/VSDTC>,
        <https://w3id.org/cdisc/cosmos/dss/VS/EWEIGHT/VSORRES>,
        <https://w3id.org/cdisc/cosmos/dss/VS/EWEIGHT/VSORRESU>,
        <https://w3id.org/cdisc/cosmos/dss/VS/EWEIGHT/VSSTRESC>,
        <https://w3id.org/cdisc/cosmos/dss/VS/EWEIGHT/VSSTRESN>,
        <https://w3id.org/cdisc/cosmos/dss/VS/EWEIGHT/VSSTRESU>,
        <https://w3id.org/cdisc/cosmos/dss/VS/EWEIGHT/VSTEST>,
        <https://w3id.org/cdisc/cosmos/dss/VS/EWEIGHT/VSTESTCD> .

<https://w3id.org/cdisc/cosmos/dss/VS/FARMCIR> a cosmos_sdtm:SDTMGroup ;
    dcterms:identifier "FARMCIR" ;
    rdf:_1 <https://w3id.org/cdisc/cosmos/dss/VS/FARMCIR/VSTESTCD> ;
    rdf:_2 <https://w3id.org/cdisc/cosmos/dss/VS/FARMCIR/VSTEST> ;
    rdf:_3 <https://w3id.org/cdisc/cosmos/dss/VS/FARMCIR/VSORRES> ;
    rdf:_4 <https://w3id.org/cdisc/cosmos/dss/VS/FARMCIR/VSORRESU> ;
    rdf:_5 <https://w3id.org/cdisc/cosmos/dss/VS/FARMCIR/VSSTRESC> ;
    rdf:_6 <https://w3id.org/cdisc/cosmos/dss/VS/FARMCIR/VSSTRESN> ;
    rdf:_7 <https://w3id.org/cdisc/cosmos/dss/VS/FARMCIR/VSSTRESU> ;
    rdf:_8 <https://w3id.org/cdisc/cosmos/dss/VS/FARMCIR/VSDTC> ;
    cosmos_sdtm:biomedicalConceptId NCIT:C100946 ;
    cosmos_sdtm:domain "VS" ;
    cosmos_sdtm:packageDate "2026-05-26"^^xsd:date ;
    cosmos_sdtm:packageType <https://www.cdisc.org/cosmos/sdtm_v1.0/PackageTypeEnum#sdtm> ;
    cosmos_sdtm:sdtmigStartVersion "3-2" ;
    cosmos_sdtm:shortName "Forearm Circumference" ;
    cosmos_sdtm:source "VS.VSTESTCD" ;
    cosmos_sdtm:variables <https://w3id.org/cdisc/cosmos/dss/VS/FARMCIR/VSDTC>,
        <https://w3id.org/cdisc/cosmos/dss/VS/FARMCIR/VSORRES>,
        <https://w3id.org/cdisc/cosmos/dss/VS/FARMCIR/VSORRESU>,
        <https://w3id.org/cdisc/cosmos/dss/VS/FARMCIR/VSSTRESC>,
        <https://w3id.org/cdisc/cosmos/dss/VS/FARMCIR/VSSTRESN>,
        <https://w3id.org/cdisc/cosmos/dss/VS/FARMCIR/VSSTRESU>,
        <https://w3id.org/cdisc/cosmos/dss/VS/FARMCIR/VSTEST>,
        <https://w3id.org/cdisc/cosmos/dss/VS/FARMCIR/VSTESTCD> .

<https://w3id.org/cdisc/cosmos/dss/VS/FIO2> a cosmos_sdtm:SDTMGroup ;
    dcterms:identifier "FIO2" ;
    rdf:_1 <https://w3id.org/cdisc/cosmos/dss/VS/FIO2/VSTESTCD> ;
    rdf:_2 <https://w3id.org/cdisc/cosmos/dss/VS/FIO2/VSTEST> ;
    rdf:_3 <https://w3id.org/cdisc/cosmos/dss/VS/FIO2/VSORRES> ;
    rdf:_4 <https://w3id.org/cdisc/cosmos/dss/VS/FIO2/VSORRESU> ;
    rdf:_5 <https://w3id.org/cdisc/cosmos/dss/VS/FIO2/VSSTRESC> ;
    rdf:_6 <https://w3id.org/cdisc/cosmos/dss/VS/FIO2/VSSTRESN> ;
    rdf:_7 <https://w3id.org/cdisc/cosmos/dss/VS/FIO2/VSSTRESU> ;
    rdf:_8 <https://w3id.org/cdisc/cosmos/dss/VS/FIO2/VSDTC> ;
    cosmos_sdtm:biomedicalConceptId NCIT:C38082 ;
    cosmos_sdtm:domain "VS" ;
    cosmos_sdtm:packageDate "2026-05-26"^^xsd:date ;
    cosmos_sdtm:packageType <https://www.cdisc.org/cosmos/sdtm_v1.0/PackageTypeEnum#sdtm> ;
    cosmos_sdtm:sdtmigStartVersion "3-2" ;
    cosmos_sdtm:shortName "Fraction of Inspired Oxygen" ;
    cosmos_sdtm:source "VS.VSTESTCD" ;
    cosmos_sdtm:variables <https://w3id.org/cdisc/cosmos/dss/VS/FIO2/VSDTC>,
        <https://w3id.org/cdisc/cosmos/dss/VS/FIO2/VSORRES>,
        <https://w3id.org/cdisc/cosmos/dss/VS/FIO2/VSORRESU>,
        <https://w3id.org/cdisc/cosmos/dss/VS/FIO2/VSSTRESC>,
        <https://w3id.org/cdisc/cosmos/dss/VS/FIO2/VSSTRESN>,
        <https://w3id.org/cdisc/cosmos/dss/VS/FIO2/VSSTRESU>,
        <https://w3id.org/cdisc/cosmos/dss/VS/FIO2/VSTEST>,
        <https://w3id.org/cdisc/cosmos/dss/VS/FIO2/VSTESTCD> .

<https://w3id.org/cdisc/cosmos/dss/VS/FRMSIZE> a cosmos_sdtm:SDTMGroup ;
    dcterms:identifier "FRMSIZE" ;
    rdf:_1 <https://w3id.org/cdisc/cosmos/dss/VS/FRMSIZE/VSTESTCD> ;
    rdf:_2 <https://w3id.org/cdisc/cosmos/dss/VS/FRMSIZE/VSTEST> ;
    rdf:_3 <https://w3id.org/cdisc/cosmos/dss/VS/FRMSIZE/VSORRES> ;
    rdf:_4 <https://w3id.org/cdisc/cosmos/dss/VS/FRMSIZE/VSSTRESC> ;
    rdf:_5 <https://w3id.org/cdisc/cosmos/dss/VS/FRMSIZE/VSDTC> ;
    cosmos_sdtm:biomedicalConceptId NCIT:C49680 ;
    cosmos_sdtm:domain "VS" ;
    cosmos_sdtm:packageDate "2026-05-26"^^xsd:date ;
    cosmos_sdtm:packageType <https://www.cdisc.org/cosmos/sdtm_v1.0/PackageTypeEnum#sdtm> ;
    cosmos_sdtm:sdtmigStartVersion "3-2" ;
    cosmos_sdtm:shortName "Frame Size" ;
    cosmos_sdtm:source "VS.VSTESTCD" ;
    cosmos_sdtm:variables <https://w3id.org/cdisc/cosmos/dss/VS/FRMSIZE/VSDTC>,
        <https://w3id.org/cdisc/cosmos/dss/VS/FRMSIZE/VSORRES>,
        <https://w3id.org/cdisc/cosmos/dss/VS/FRMSIZE/VSSTRESC>,
        <https://w3id.org/cdisc/cosmos/dss/VS/FRMSIZE/VSTEST>,
        <https://w3id.org/cdisc/cosmos/dss/VS/FRMSIZE/VSTESTCD> .

<https://w3id.org/cdisc/cosmos/dss/VS/FTEWT> a cosmos_sdtm:SDTMGroup ;
    dcterms:identifier "FTEWT" ;
    rdf:_1 <https://w3id.org/cdisc/cosmos/dss/VS/FTEWT/VSTESTCD> ;
    rdf:_2 <https://w3id.org/cdisc/cosmos/dss/VS/FTEWT/VSTEST> ;
    rdf:_3 <https://w3id.org/cdisc/cosmos/dss/VS/FTEWT/VSORRES> ;
    rdf:_4 <https://w3id.org/cdisc/cosmos/dss/VS/FTEWT/VSORRESU> ;
    rdf:_5 <https://w3id.org/cdisc/cosmos/dss/VS/FTEWT/VSSTRESC> ;
    rdf:_6 <https://w3id.org/cdisc/cosmos/dss/VS/FTEWT/VSSTRESN> ;
    rdf:_7 <https://w3id.org/cdisc/cosmos/dss/VS/FTEWT/VSSTRESU> ;
    rdf:_8 <https://w3id.org/cdisc/cosmos/dss/VS/FTEWT/VSDTC> ;
    cosmos_sdtm:biomedicalConceptId NCIT:C174372 ;
    cosmos_sdtm:domain "VS" ;
    cosmos_sdtm:packageDate "2026-05-26"^^xsd:date ;
    cosmos_sdtm:packageType <https://www.cdisc.org/cosmos/sdtm_v1.0/PackageTypeEnum#sdtm> ;
    cosmos_sdtm:sdtmigStartVersion "3-2" ;
    cosmos_sdtm:shortName "Fetal Estimated Weight" ;
    cosmos_sdtm:source "VS.VSTESTCD" ;
    cosmos_sdtm:variables <https://w3id.org/cdisc/cosmos/dss/VS/FTEWT/VSDTC>,
        <https://w3id.org/cdisc/cosmos/dss/VS/FTEWT/VSORRES>,
        <https://w3id.org/cdisc/cosmos/dss/VS/FTEWT/VSORRESU>,
        <https://w3id.org/cdisc/cosmos/dss/VS/FTEWT/VSSTRESC>,
        <https://w3id.org/cdisc/cosmos/dss/VS/FTEWT/VSSTRESN>,
        <https://w3id.org/cdisc/cosmos/dss/VS/FTEWT/VSSTRESU>,
        <https://w3id.org/cdisc/cosmos/dss/VS/FTEWT/VSTEST>,
        <https://w3id.org/cdisc/cosmos/dss/VS/FTEWT/VSTESTCD> .

<https://w3id.org/cdisc/cosmos/dss/VS/FTHDCIRC> a cosmos_sdtm:SDTMGroup ;
    dcterms:identifier "FTHDCIRC" ;
    rdf:_1 <https://w3id.org/cdisc/cosmos/dss/VS/FTHDCIRC/VSTESTCD> ;
    rdf:_2 <https://w3id.org/cdisc/cosmos/dss/VS/FTHDCIRC/VSTEST> ;
    rdf:_3 <https://w3id.org/cdisc/cosmos/dss/VS/FTHDCIRC/VSORRES> ;
    rdf:_4 <https://w3id.org/cdisc/cosmos/dss/VS/FTHDCIRC/VSORRESU> ;
    rdf:_5 <https://w3id.org/cdisc/cosmos/dss/VS/FTHDCIRC/VSSTRESC> ;
    rdf:_6 <https://w3id.org/cdisc/cosmos/dss/VS/FTHDCIRC/VSSTRESN> ;
    rdf:_7 <https://w3id.org/cdisc/cosmos/dss/VS/FTHDCIRC/VSSTRESU> ;
    rdf:_8 <https://w3id.org/cdisc/cosmos/dss/VS/FTHDCIRC/VSDTC> ;
    cosmos_sdtm:biomedicalConceptId NCIT:C158297 ;
    cosmos_sdtm:domain "VS" ;
    cosmos_sdtm:packageDate "2026-05-26"^^xsd:date ;
    cosmos_sdtm:packageType <https://www.cdisc.org/cosmos/sdtm_v1.0/PackageTypeEnum#sdtm> ;
    cosmos_sdtm:sdtmigStartVersion "3-2" ;
    cosmos_sdtm:shortName "Fetal Head Circumference" ;
    cosmos_sdtm:source "VS.VSTESTCD" ;
    cosmos_sdtm:variables <https://w3id.org/cdisc/cosmos/dss/VS/FTHDCIRC/VSDTC>,
        <https://w3id.org/cdisc/cosmos/dss/VS/FTHDCIRC/VSORRES>,
        <https://w3id.org/cdisc/cosmos/dss/VS/FTHDCIRC/VSORRESU>,
        <https://w3id.org/cdisc/cosmos/dss/VS/FTHDCIRC/VSSTRESC>,
        <https://w3id.org/cdisc/cosmos/dss/VS/FTHDCIRC/VSSTRESN>,
        <https://w3id.org/cdisc/cosmos/dss/VS/FTHDCIRC/VSSTRESU>,
        <https://w3id.org/cdisc/cosmos/dss/VS/FTHDCIRC/VSTEST>,
        <https://w3id.org/cdisc/cosmos/dss/VS/FTHDCIRC/VSTESTCD> .

<https://w3id.org/cdisc/cosmos/dss/VS/FTHR> a cosmos_sdtm:SDTMGroup ;
    dcterms:identifier "FTHR" ;
    rdf:_1 <https://w3id.org/cdisc/cosmos/dss/VS/FTHR/VSTESTCD> ;
    rdf:_2 <https://w3id.org/cdisc/cosmos/dss/VS/FTHR/VSTEST> ;
    rdf:_3 <https://w3id.org/cdisc/cosmos/dss/VS/FTHR/VSORRES> ;
    rdf:_4 <https://w3id.org/cdisc/cosmos/dss/VS/FTHR/VSORRESU> ;
    rdf:_5 <https://w3id.org/cdisc/cosmos/dss/VS/FTHR/VSSTRESC> ;
    rdf:_6 <https://w3id.org/cdisc/cosmos/dss/VS/FTHR/VSSTRESN> ;
    rdf:_7 <https://w3id.org/cdisc/cosmos/dss/VS/FTHR/VSSTRESU> ;
    rdf:_8 <https://w3id.org/cdisc/cosmos/dss/VS/FTHR/VSDTC> ;
    cosmos_sdtm:biomedicalConceptId NCIT:C92716 ;
    cosmos_sdtm:domain "VS" ;
    cosmos_sdtm:packageDate "2026-05-26"^^xsd:date ;
    cosmos_sdtm:packageType <https://www.cdisc.org/cosmos/sdtm_v1.0/PackageTypeEnum#sdtm> ;
    cosmos_sdtm:sdtmigStartVersion "3-2" ;
    cosmos_sdtm:shortName "Fetal Heart Rate" ;
    cosmos_sdtm:source "VS.VSTESTCD" ;
    cosmos_sdtm:variables <https://w3id.org/cdisc/cosmos/dss/VS/FTHR/VSDTC>,
        <https://w3id.org/cdisc/cosmos/dss/VS/FTHR/VSORRES>,
        <https://w3id.org/cdisc/cosmos/dss/VS/FTHR/VSORRESU>,
        <https://w3id.org/cdisc/cosmos/dss/VS/FTHR/VSSTRESC>,
        <https://w3id.org/cdisc/cosmos/dss/VS/FTHR/VSSTRESN>,
        <https://w3id.org/cdisc/cosmos/dss/VS/FTHR/VSSTRESU>,
        <https://w3id.org/cdisc/cosmos/dss/VS/FTHR/VSTEST>,
        <https://w3id.org/cdisc/cosmos/dss/VS/FTHR/VSTESTCD> .

<https://w3id.org/cdisc/cosmos/dss/VS/FTMANDL> a cosmos_sdtm:SDTMGroup ;
    dcterms:identifier "FTMANDL" ;
    rdf:_1 <https://w3id.org/cdisc/cosmos/dss/VS/FTMANDL/VSTESTCD> ;
    rdf:_2 <https://w3id.org/cdisc/cosmos/dss/VS/FTMANDL/VSTEST> ;
    rdf:_3 <https://w3id.org/cdisc/cosmos/dss/VS/FTMANDL/VSORRES> ;
    rdf:_4 <https://w3id.org/cdisc/cosmos/dss/VS/FTMANDL/VSORRESU> ;
    rdf:_5 <https://w3id.org/cdisc/cosmos/dss/VS/FTMANDL/VSSTRESC> ;
    rdf:_6 <https://w3id.org/cdisc/cosmos/dss/VS/FTMANDL/VSSTRESN> ;
    rdf:_7 <https://w3id.org/cdisc/cosmos/dss/VS/FTMANDL/VSSTRESU> ;
    rdf:_8 <https://w3id.org/cdisc/cosmos/dss/VS/FTMANDL/VSDTC> ;
    cosmos_sdtm:biomedicalConceptId NCIT:C174375 ;
    cosmos_sdtm:domain "VS" ;
    cosmos_sdtm:packageDate "2026-05-26"^^xsd:date ;
    cosmos_sdtm:packageType <https://www.cdisc.org/cosmos/sdtm_v1.0/PackageTypeEnum#sdtm> ;
    cosmos_sdtm:sdtmigStartVersion "3-2" ;
    cosmos_sdtm:shortName "Fetal Mandibular Length" ;
    cosmos_sdtm:source "VS.VSTESTCD" ;
    cosmos_sdtm:variables <https://w3id.org/cdisc/cosmos/dss/VS/FTMANDL/VSDTC>,
        <https://w3id.org/cdisc/cosmos/dss/VS/FTMANDL/VSORRES>,
        <https://w3id.org/cdisc/cosmos/dss/VS/FTMANDL/VSORRESU>,
        <https://w3id.org/cdisc/cosmos/dss/VS/FTMANDL/VSSTRESC>,
        <https://w3id.org/cdisc/cosmos/dss/VS/FTMANDL/VSSTRESN>,
        <https://w3id.org/cdisc/cosmos/dss/VS/FTMANDL/VSSTRESU>,
        <https://w3id.org/cdisc/cosmos/dss/VS/FTMANDL/VSTEST>,
        <https://w3id.org/cdisc/cosmos/dss/VS/FTMANDL/VSTESTCD> .

<https://w3id.org/cdisc/cosmos/dss/VS/FTSAD> a cosmos_sdtm:SDTMGroup ;
    dcterms:identifier "FTSAD" ;
    rdf:_1 <https://w3id.org/cdisc/cosmos/dss/VS/FTSAD/VSTESTCD> ;
    rdf:_2 <https://w3id.org/cdisc/cosmos/dss/VS/FTSAD/VSTEST> ;
    rdf:_3 <https://w3id.org/cdisc/cosmos/dss/VS/FTSAD/VSORRES> ;
    rdf:_4 <https://w3id.org/cdisc/cosmos/dss/VS/FTSAD/VSORRESU> ;
    rdf:_5 <https://w3id.org/cdisc/cosmos/dss/VS/FTSAD/VSSTRESC> ;
    rdf:_6 <https://w3id.org/cdisc/cosmos/dss/VS/FTSAD/VSSTRESN> ;
    rdf:_7 <https://w3id.org/cdisc/cosmos/dss/VS/FTSAD/VSSTRESU> ;
    rdf:_8 <https://w3id.org/cdisc/cosmos/dss/VS/FTSAD/VSDTC> ;
    cosmos_sdtm:biomedicalConceptId NCIT:C174373 ;
    cosmos_sdtm:domain "VS" ;
    cosmos_sdtm:packageDate "2026-05-26"^^xsd:date ;
    cosmos_sdtm:packageType <https://www.cdisc.org/cosmos/sdtm_v1.0/PackageTypeEnum#sdtm> ;
    cosmos_sdtm:sdtmigStartVersion "3-2" ;
    cosmos_sdtm:shortName "Fetal Sagittal Abdominal Diameter" ;
    cosmos_sdtm:source "VS.VSTESTCD" ;
    cosmos_sdtm:variables <https://w3id.org/cdisc/cosmos/dss/VS/FTSAD/VSDTC>,
        <https://w3id.org/cdisc/cosmos/dss/VS/FTSAD/VSORRES>,
        <https://w3id.org/cdisc/cosmos/dss/VS/FTSAD/VSORRESU>,
        <https://w3id.org/cdisc/cosmos/dss/VS/FTSAD/VSSTRESC>,
        <https://w3id.org/cdisc/cosmos/dss/VS/FTSAD/VSSTRESN>,
        <https://w3id.org/cdisc/cosmos/dss/VS/FTSAD/VSSTRESU>,
        <https://w3id.org/cdisc/cosmos/dss/VS/FTSAD/VSTEST>,
        <https://w3id.org/cdisc/cosmos/dss/VS/FTSAD/VSTESTCD> .

<https://w3id.org/cdisc/cosmos/dss/VS/FTSZGAC> a cosmos_sdtm:SDTMGroup ;
    dcterms:identifier "FTSZGAC" ;
    rdf:_1 <https://w3id.org/cdisc/cosmos/dss/VS/FTSZGAC/VSTESTCD> ;
    rdf:_2 <https://w3id.org/cdisc/cosmos/dss/VS/FTSZGAC/VSTEST> ;
    rdf:_3 <https://w3id.org/cdisc/cosmos/dss/VS/FTSZGAC/VSORRES> ;
    rdf:_4 <https://w3id.org/cdisc/cosmos/dss/VS/FTSZGAC/VSSTRESC> ;
    rdf:_5 <https://w3id.org/cdisc/cosmos/dss/VS/FTSZGAC/VSDTC> ;
    cosmos_sdtm:biomedicalConceptId NCIT:C214762 ;
    cosmos_sdtm:domain "VS" ;
    cosmos_sdtm:packageDate "2026-05-26"^^xsd:date ;
    cosmos_sdtm:packageType <https://www.cdisc.org/cosmos/sdtm_v1.0/PackageTypeEnum#sdtm> ;
    cosmos_sdtm:sdtmigStartVersion "3-2" ;
    cosmos_sdtm:shortName "Fetal Size-for-Gestational Age Category" ;
    cosmos_sdtm:source "VS.VSTESTCD" ;
    cosmos_sdtm:variables <https://w3id.org/cdisc/cosmos/dss/VS/FTSZGAC/VSDTC>,
        <https://w3id.org/cdisc/cosmos/dss/VS/FTSZGAC/VSORRES>,
        <https://w3id.org/cdisc/cosmos/dss/VS/FTSZGAC/VSSTRESC>,
        <https://w3id.org/cdisc/cosmos/dss/VS/FTSZGAC/VSTEST>,
        <https://w3id.org/cdisc/cosmos/dss/VS/FTSZGAC/VSTESTCD> .

<https://w3id.org/cdisc/cosmos/dss/VS/FTWTGAPL> a cosmos_sdtm:SDTMGroup ;
    dcterms:identifier "FTWTGAPL" ;
    rdf:_1 <https://w3id.org/cdisc/cosmos/dss/VS/FTWTGAPL/VSTESTCD> ;
    rdf:_2 <https://w3id.org/cdisc/cosmos/dss/VS/FTWTGAPL/VSTEST> ;
    rdf:_3 <https://w3id.org/cdisc/cosmos/dss/VS/FTWTGAPL/VSORRES> ;
    rdf:_4 <https://w3id.org/cdisc/cosmos/dss/VS/FTWTGAPL/VSSTRESC> ;
    rdf:_5 <https://w3id.org/cdisc/cosmos/dss/VS/FTWTGAPL/VSSTRESN> ;
    rdf:_6 <https://w3id.org/cdisc/cosmos/dss/VS/FTWTGAPL/VSDTC> ;
    cosmos_sdtm:biomedicalConceptId NCIT:C174374 ;
    cosmos_sdtm:domain "VS" ;
    cosmos_sdtm:packageDate "2026-05-26"^^xsd:date ;
    cosmos_sdtm:packageType <https://www.cdisc.org/cosmos/sdtm_v1.0/PackageTypeEnum#sdtm> ;
    cosmos_sdtm:sdtmigStartVersion "3-2" ;
    cosmos_sdtm:shortName "Fetal Weight-for-Gest Age Percentile" ;
    cosmos_sdtm:source "VS.VSTESTCD" ;
    cosmos_sdtm:variables <https://w3id.org/cdisc/cosmos/dss/VS/FTWTGAPL/VSDTC>,
        <https://w3id.org/cdisc/cosmos/dss/VS/FTWTGAPL/VSORRES>,
        <https://w3id.org/cdisc/cosmos/dss/VS/FTWTGAPL/VSSTRESC>,
        <https://w3id.org/cdisc/cosmos/dss/VS/FTWTGAPL/VSSTRESN>,
        <https://w3id.org/cdisc/cosmos/dss/VS/FTWTGAPL/VSTEST>,
        <https://w3id.org/cdisc/cosmos/dss/VS/FTWTGAPL/VSTESTCD> .

<https://w3id.org/cdisc/cosmos/dss/VS/HCRAPCTL> a cosmos_sdtm:SDTMGroup ;
    dcterms:identifier "HCRAPCTL" ;
    rdf:_1 <https://w3id.org/cdisc/cosmos/dss/VS/HCRAPCTL/VSTESTCD> ;
    rdf:_2 <https://w3id.org/cdisc/cosmos/dss/VS/HCRAPCTL/VSTEST> ;
    rdf:_3 <https://w3id.org/cdisc/cosmos/dss/VS/HCRAPCTL/VSORRES> ;
    rdf:_4 <https://w3id.org/cdisc/cosmos/dss/VS/HCRAPCTL/VSSTRESC> ;
    rdf:_5 <https://w3id.org/cdisc/cosmos/dss/VS/HCRAPCTL/VSSTRESN> ;
    rdf:_6 <https://w3id.org/cdisc/cosmos/dss/VS/HCRAPCTL/VSDTC> ;
    cosmos_sdtm:biomedicalConceptId NCIT:C205753 ;
    cosmos_sdtm:domain "VS" ;
    cosmos_sdtm:packageDate "2026-05-26"^^xsd:date ;
    cosmos_sdtm:packageType <https://www.cdisc.org/cosmos/sdtm_v1.0/PackageTypeEnum#sdtm> ;
    cosmos_sdtm:sdtmigStartVersion "3-2" ;
    cosmos_sdtm:shortName "Head Circumference-for-Age Percentile" ;
    cosmos_sdtm:source "VS.VSTESTCD" ;
    cosmos_sdtm:variables <https://w3id.org/cdisc/cosmos/dss/VS/HCRAPCTL/VSDTC>,
        <https://w3id.org/cdisc/cosmos/dss/VS/HCRAPCTL/VSORRES>,
        <https://w3id.org/cdisc/cosmos/dss/VS/HCRAPCTL/VSSTRESC>,
        <https://w3id.org/cdisc/cosmos/dss/VS/HCRAPCTL/VSSTRESN>,
        <https://w3id.org/cdisc/cosmos/dss/VS/HCRAPCTL/VSTEST>,
        <https://w3id.org/cdisc/cosmos/dss/VS/HCRAPCTL/VSTESTCD> .

<https://w3id.org/cdisc/cosmos/dss/VS/HDCIRC> a cosmos_sdtm:SDTMGroup ;
    dcterms:identifier "HDCIRC" ;
    rdf:_1 <https://w3id.org/cdisc/cosmos/dss/VS/HDCIRC/VSTESTCD> ;
    rdf:_2 <https://w3id.org/cdisc/cosmos/dss/VS/HDCIRC/VSTEST> ;
    rdf:_3 <https://w3id.org/cdisc/cosmos/dss/VS/HDCIRC/VSORRES> ;
    rdf:_4 <https://w3id.org/cdisc/cosmos/dss/VS/HDCIRC/VSORRESU> ;
    rdf:_5 <https://w3id.org/cdisc/cosmos/dss/VS/HDCIRC/VSSTRESC> ;
    rdf:_6 <https://w3id.org/cdisc/cosmos/dss/VS/HDCIRC/VSSTRESN> ;
    rdf:_7 <https://w3id.org/cdisc/cosmos/dss/VS/HDCIRC/VSSTRESU> ;
    rdf:_8 <https://w3id.org/cdisc/cosmos/dss/VS/HDCIRC/VSDTC> ;
    cosmos_sdtm:biomedicalConceptId NCIT:C81255 ;
    cosmos_sdtm:domain "VS" ;
    cosmos_sdtm:packageDate "2026-05-26"^^xsd:date ;
    cosmos_sdtm:packageType <https://www.cdisc.org/cosmos/sdtm_v1.0/PackageTypeEnum#sdtm> ;
    cosmos_sdtm:sdtmigStartVersion "3-2" ;
    cosmos_sdtm:shortName "Head Circumference" ;
    cosmos_sdtm:source "VS.VSTESTCD" ;
    cosmos_sdtm:variables <https://w3id.org/cdisc/cosmos/dss/VS/HDCIRC/VSDTC>,
        <https://w3id.org/cdisc/cosmos/dss/VS/HDCIRC/VSORRES>,
        <https://w3id.org/cdisc/cosmos/dss/VS/HDCIRC/VSORRESU>,
        <https://w3id.org/cdisc/cosmos/dss/VS/HDCIRC/VSSTRESC>,
        <https://w3id.org/cdisc/cosmos/dss/VS/HDCIRC/VSSTRESN>,
        <https://w3id.org/cdisc/cosmos/dss/VS/HDCIRC/VSSTRESU>,
        <https://w3id.org/cdisc/cosmos/dss/VS/HDCIRC/VSTEST>,
        <https://w3id.org/cdisc/cosmos/dss/VS/HDCIRC/VSTESTCD> .

<https://w3id.org/cdisc/cosmos/dss/VS/HEIGHT> a cosmos_sdtm:SDTMGroup ;
    dcterms:identifier "HEIGHT" ;
    rdf:_1 <https://w3id.org/cdisc/cosmos/dss/VS/HEIGHT/VSTESTCD> ;
    rdf:_2 <https://w3id.org/cdisc/cosmos/dss/VS/HEIGHT/VSTEST> ;
    rdf:_3 <https://w3id.org/cdisc/cosmos/dss/VS/HEIGHT/VSORRES> ;
    rdf:_4 <https://w3id.org/cdisc/cosmos/dss/VS/HEIGHT/VSORRESU> ;
    rdf:_5 <https://w3id.org/cdisc/cosmos/dss/VS/HEIGHT/VSSTRESC> ;
    rdf:_6 <https://w3id.org/cdisc/cosmos/dss/VS/HEIGHT/VSSTRESN> ;
    rdf:_7 <https://w3id.org/cdisc/cosmos/dss/VS/HEIGHT/VSSTRESU> ;
    rdf:_8 <https://w3id.org/cdisc/cosmos/dss/VS/HEIGHT/VSDTC> ;
    cosmos_sdtm:biomedicalConceptId NCIT:C164634 ;
    cosmos_sdtm:domain "VS" ;
    cosmos_sdtm:packageDate "2026-05-26"^^xsd:date ;
    cosmos_sdtm:packageType <https://www.cdisc.org/cosmos/sdtm_v1.0/PackageTypeEnum#sdtm> ;
    cosmos_sdtm:sdtmigStartVersion "3-2" ;
    cosmos_sdtm:shortName "Height" ;
    cosmos_sdtm:source "VS.VSTESTCD" ;
    cosmos_sdtm:variables <https://w3id.org/cdisc/cosmos/dss/VS/HEIGHT/VSDTC>,
        <https://w3id.org/cdisc/cosmos/dss/VS/HEIGHT/VSORRES>,
        <https://w3id.org/cdisc/cosmos/dss/VS/HEIGHT/VSORRESU>,
        <https://w3id.org/cdisc/cosmos/dss/VS/HEIGHT/VSSTRESC>,
        <https://w3id.org/cdisc/cosmos/dss/VS/HEIGHT/VSSTRESN>,
        <https://w3id.org/cdisc/cosmos/dss/VS/HEIGHT/VSSTRESU>,
        <https://w3id.org/cdisc/cosmos/dss/VS/HEIGHT/VSTEST>,
        <https://w3id.org/cdisc/cosmos/dss/VS/HEIGHT/VSTESTCD> .

<https://w3id.org/cdisc/cosmos/dss/VS/HIPCIR> a cosmos_sdtm:SDTMGroup ;
    dcterms:identifier "HIPCIR" ;
    rdf:_1 <https://w3id.org/cdisc/cosmos/dss/VS/HIPCIR/VSTESTCD> ;
    rdf:_2 <https://w3id.org/cdisc/cosmos/dss/VS/HIPCIR/VSTEST> ;
    rdf:_3 <https://w3id.org/cdisc/cosmos/dss/VS/HIPCIR/VSORRES> ;
    rdf:_4 <https://w3id.org/cdisc/cosmos/dss/VS/HIPCIR/VSORRESU> ;
    rdf:_5 <https://w3id.org/cdisc/cosmos/dss/VS/HIPCIR/VSSTRESC> ;
    rdf:_6 <https://w3id.org/cdisc/cosmos/dss/VS/HIPCIR/VSSTRESN> ;
    rdf:_7 <https://w3id.org/cdisc/cosmos/dss/VS/HIPCIR/VSSTRESU> ;
    rdf:_8 <https://w3id.org/cdisc/cosmos/dss/VS/HIPCIR/VSDTC> ;
    cosmos_sdtm:biomedicalConceptId NCIT:C100947 ;
    cosmos_sdtm:domain "VS" ;
    cosmos_sdtm:packageDate "2026-05-26"^^xsd:date ;
    cosmos_sdtm:packageType <https://www.cdisc.org/cosmos/sdtm_v1.0/PackageTypeEnum#sdtm> ;
    cosmos_sdtm:sdtmigStartVersion "3-2" ;
    cosmos_sdtm:shortName "Hip Circumference" ;
    cosmos_sdtm:source "VS.VSTESTCD" ;
    cosmos_sdtm:variables <https://w3id.org/cdisc/cosmos/dss/VS/HIPCIR/VSDTC>,
        <https://w3id.org/cdisc/cosmos/dss/VS/HIPCIR/VSORRES>,
        <https://w3id.org/cdisc/cosmos/dss/VS/HIPCIR/VSORRESU>,
        <https://w3id.org/cdisc/cosmos/dss/VS/HIPCIR/VSSTRESC>,
        <https://w3id.org/cdisc/cosmos/dss/VS/HIPCIR/VSSTRESN>,
        <https://w3id.org/cdisc/cosmos/dss/VS/HIPCIR/VSSTRESU>,
        <https://w3id.org/cdisc/cosmos/dss/VS/HIPCIR/VSTEST>,
        <https://w3id.org/cdisc/cosmos/dss/VS/HIPCIR/VSTESTCD> .

<https://w3id.org/cdisc/cosmos/dss/VS/HR> a cosmos_sdtm:SDTMGroup ;
    dcterms:identifier "HR" ;
    rdf:_1 <https://w3id.org/cdisc/cosmos/dss/VS/HR/VSTESTCD> ;
    rdf:_10 <https://w3id.org/cdisc/cosmos/dss/VS/HR/VSLAT> ;
    rdf:_11 <https://w3id.org/cdisc/cosmos/dss/VS/HR/VSDTC> ;
    rdf:_2 <https://w3id.org/cdisc/cosmos/dss/VS/HR/VSTEST> ;
    rdf:_3 <https://w3id.org/cdisc/cosmos/dss/VS/HR/VSORRES> ;
    rdf:_4 <https://w3id.org/cdisc/cosmos/dss/VS/HR/VSORRESU> ;
    rdf:_5 <https://w3id.org/cdisc/cosmos/dss/VS/HR/VSSTRESC> ;
    rdf:_6 <https://w3id.org/cdisc/cosmos/dss/VS/HR/VSSTRESN> ;
    rdf:_7 <https://w3id.org/cdisc/cosmos/dss/VS/HR/VSSTRESU> ;
    rdf:_8 <https://w3id.org/cdisc/cosmos/dss/VS/HR/VSPOS> ;
    rdf:_9 <https://w3id.org/cdisc/cosmos/dss/VS/HR/VSLOC> ;
    cosmos_sdtm:biomedicalConceptId NCIT:C49677 ;
    cosmos_sdtm:domain "VS" ;
    cosmos_sdtm:packageDate "2026-05-26"^^xsd:date ;
    cosmos_sdtm:packageType <https://www.cdisc.org/cosmos/sdtm_v1.0/PackageTypeEnum#sdtm> ;
    cosmos_sdtm:sdtmigStartVersion "3-2" ;
    cosmos_sdtm:shortName "Heart Rate" ;
    cosmos_sdtm:source "VS.VSTESTCD" ;
    cosmos_sdtm:variables <https://w3id.org/cdisc/cosmos/dss/VS/HR/VSDTC>,
        <https://w3id.org/cdisc/cosmos/dss/VS/HR/VSLAT>,
        <https://w3id.org/cdisc/cosmos/dss/VS/HR/VSLOC>,
        <https://w3id.org/cdisc/cosmos/dss/VS/HR/VSORRES>,
        <https://w3id.org/cdisc/cosmos/dss/VS/HR/VSORRESU>,
        <https://w3id.org/cdisc/cosmos/dss/VS/HR/VSPOS>,
        <https://w3id.org/cdisc/cosmos/dss/VS/HR/VSSTRESC>,
        <https://w3id.org/cdisc/cosmos/dss/VS/HR/VSSTRESN>,
        <https://w3id.org/cdisc/cosmos/dss/VS/HR/VSSTRESU>,
        <https://w3id.org/cdisc/cosmos/dss/VS/HR/VSTEST>,
        <https://w3id.org/cdisc/cosmos/dss/VS/HR/VSTESTCD> .

<https://w3id.org/cdisc/cosmos/dss/VS/HRVSDANN> a cosmos_sdtm:SDTMGroup ;
    dcterms:identifier "HRVSDANN" ;
    rdf:_1 <https://w3id.org/cdisc/cosmos/dss/VS/HRVSDANN/VSTESTCD> ;
    rdf:_2 <https://w3id.org/cdisc/cosmos/dss/VS/HRVSDANN/VSTEST> ;
    rdf:_3 <https://w3id.org/cdisc/cosmos/dss/VS/HRVSDANN/VSORRES> ;
    rdf:_4 <https://w3id.org/cdisc/cosmos/dss/VS/HRVSDANN/VSORRESU> ;
    rdf:_5 <https://w3id.org/cdisc/cosmos/dss/VS/HRVSDANN/VSSTRESC> ;
    rdf:_6 <https://w3id.org/cdisc/cosmos/dss/VS/HRVSDANN/VSSTRESN> ;
    rdf:_7 <https://w3id.org/cdisc/cosmos/dss/VS/HRVSDANN/VSSTRESU> ;
    rdf:_8 <https://w3id.org/cdisc/cosmos/dss/VS/HRVSDANN/VSDTC> ;
    cosmos_sdtm:biomedicalConceptId NCIT:C199998 ;
    cosmos_sdtm:domain "VS" ;
    cosmos_sdtm:packageDate "2026-05-26"^^xsd:date ;
    cosmos_sdtm:packageType <https://www.cdisc.org/cosmos/sdtm_v1.0/PackageTypeEnum#sdtm> ;
    cosmos_sdtm:sdtmigStartVersion "3-2" ;
    cosmos_sdtm:shortName "Heart Rate Variability, SDANN" ;
    cosmos_sdtm:source "VS.VSTESTCD" ;
    cosmos_sdtm:variables <https://w3id.org/cdisc/cosmos/dss/VS/HRVSDANN/VSDTC>,
        <https://w3id.org/cdisc/cosmos/dss/VS/HRVSDANN/VSORRES>,
        <https://w3id.org/cdisc/cosmos/dss/VS/HRVSDANN/VSORRESU>,
        <https://w3id.org/cdisc/cosmos/dss/VS/HRVSDANN/VSSTRESC>,
        <https://w3id.org/cdisc/cosmos/dss/VS/HRVSDANN/VSSTRESN>,
        <https://w3id.org/cdisc/cosmos/dss/VS/HRVSDANN/VSSTRESU>,
        <https://w3id.org/cdisc/cosmos/dss/VS/HRVSDANN/VSTEST>,
        <https://w3id.org/cdisc/cosmos/dss/VS/HRVSDANN/VSTESTCD> .

<https://w3id.org/cdisc/cosmos/dss/VS/HRVSDNN> a cosmos_sdtm:SDTMGroup ;
    dcterms:identifier "HRVSDNN" ;
    rdf:_1 <https://w3id.org/cdisc/cosmos/dss/VS/HRVSDNN/VSTESTCD> ;
    rdf:_2 <https://w3id.org/cdisc/cosmos/dss/VS/HRVSDNN/VSTEST> ;
    rdf:_3 <https://w3id.org/cdisc/cosmos/dss/VS/HRVSDNN/VSORRES> ;
    rdf:_4 <https://w3id.org/cdisc/cosmos/dss/VS/HRVSDNN/VSORRESU> ;
    rdf:_5 <https://w3id.org/cdisc/cosmos/dss/VS/HRVSDNN/VSSTRESC> ;
    rdf:_6 <https://w3id.org/cdisc/cosmos/dss/VS/HRVSDNN/VSSTRESN> ;
    rdf:_7 <https://w3id.org/cdisc/cosmos/dss/VS/HRVSDNN/VSSTRESU> ;
    rdf:_8 <https://w3id.org/cdisc/cosmos/dss/VS/HRVSDNN/VSDTC> ;
    cosmos_sdtm:biomedicalConceptId NCIT:C199682 ;
    cosmos_sdtm:domain "VS" ;
    cosmos_sdtm:packageDate "2026-05-26"^^xsd:date ;
    cosmos_sdtm:packageType <https://www.cdisc.org/cosmos/sdtm_v1.0/PackageTypeEnum#sdtm> ;
    cosmos_sdtm:sdtmigStartVersion "3-2" ;
    cosmos_sdtm:shortName "Heart Rate Variability, SDNN" ;
    cosmos_sdtm:source "VS.VSTESTCD" ;
    cosmos_sdtm:variables <https://w3id.org/cdisc/cosmos/dss/VS/HRVSDNN/VSDTC>,
        <https://w3id.org/cdisc/cosmos/dss/VS/HRVSDNN/VSORRES>,
        <https://w3id.org/cdisc/cosmos/dss/VS/HRVSDNN/VSORRESU>,
        <https://w3id.org/cdisc/cosmos/dss/VS/HRVSDNN/VSSTRESC>,
        <https://w3id.org/cdisc/cosmos/dss/VS/HRVSDNN/VSSTRESN>,
        <https://w3id.org/cdisc/cosmos/dss/VS/HRVSDNN/VSSTRESU>,
        <https://w3id.org/cdisc/cosmos/dss/VS/HRVSDNN/VSTEST>,
        <https://w3id.org/cdisc/cosmos/dss/VS/HRVSDNN/VSTESTCD> .

<https://w3id.org/cdisc/cosmos/dss/VS/HR_EXT> a cosmos_sdtm:SDTMGroup ;
    dcterms:identifier "HR_EXT" ;
    rdf:_1 <https://w3id.org/cdisc/cosmos/dss/VS/HR_EXT/VSTESTCD> ;
    rdf:_10 <https://w3id.org/cdisc/cosmos/dss/VS/HR_EXT/VSLAT> ;
    rdf:_11 <https://w3id.org/cdisc/cosmos/dss/VS/HR_EXT/VSDTC> ;
    rdf:_2 <https://w3id.org/cdisc/cosmos/dss/VS/HR_EXT/VSTEST> ;
    rdf:_3 <https://w3id.org/cdisc/cosmos/dss/VS/HR_EXT/VSORRES> ;
    rdf:_4 <https://w3id.org/cdisc/cosmos/dss/VS/HR_EXT/VSORRESU> ;
    rdf:_5 <https://w3id.org/cdisc/cosmos/dss/VS/HR_EXT/VSSTRESC> ;
    rdf:_6 <https://w3id.org/cdisc/cosmos/dss/VS/HR_EXT/VSSTRESN> ;
    rdf:_7 <https://w3id.org/cdisc/cosmos/dss/VS/HR_EXT/VSSTRESU> ;
    rdf:_8 <https://w3id.org/cdisc/cosmos/dss/VS/HR_EXT/VSPOS> ;
    rdf:_9 <https://w3id.org/cdisc/cosmos/dss/VS/HR_EXT/VSLOC> ;
    cosmos_sdtm:biomedicalConceptId NCIT:C49677 ;
    cosmos_sdtm:domain "VS" ;
    cosmos_sdtm:packageDate "2026-05-26"^^xsd:date ;
    cosmos_sdtm:packageType <https://www.cdisc.org/cosmos/sdtm_v1.0/PackageTypeEnum#sdtm> ;
    cosmos_sdtm:sdtmigStartVersion "3-2" ;
    cosmos_sdtm:shortName "Heart Rate Extended" ;
    cosmos_sdtm:source "VS.VSTESTCD" ;
    cosmos_sdtm:variables <https://w3id.org/cdisc/cosmos/dss/VS/HR_EXT/VSDTC>,
        <https://w3id.org/cdisc/cosmos/dss/VS/HR_EXT/VSLAT>,
        <https://w3id.org/cdisc/cosmos/dss/VS/HR_EXT/VSLOC>,
        <https://w3id.org/cdisc/cosmos/dss/VS/HR_EXT/VSORRES>,
        <https://w3id.org/cdisc/cosmos/dss/VS/HR_EXT/VSORRESU>,
        <https://w3id.org/cdisc/cosmos/dss/VS/HR_EXT/VSPOS>,
        <https://w3id.org/cdisc/cosmos/dss/VS/HR_EXT/VSSTRESC>,
        <https://w3id.org/cdisc/cosmos/dss/VS/HR_EXT/VSSTRESN>,
        <https://w3id.org/cdisc/cosmos/dss/VS/HR_EXT/VSSTRESU>,
        <https://w3id.org/cdisc/cosmos/dss/VS/HR_EXT/VSTEST>,
        <https://w3id.org/cdisc/cosmos/dss/VS/HR_EXT/VSTESTCD> .

<https://w3id.org/cdisc/cosmos/dss/VS/HTAPCTL> a cosmos_sdtm:SDTMGroup ;
    dcterms:identifier "HTAPCTL" ;
    rdf:_1 <https://w3id.org/cdisc/cosmos/dss/VS/HTAPCTL/VSTESTCD> ;
    rdf:_2 <https://w3id.org/cdisc/cosmos/dss/VS/HTAPCTL/VSTEST> ;
    rdf:_3 <https://w3id.org/cdisc/cosmos/dss/VS/HTAPCTL/VSORRES> ;
    rdf:_4 <https://w3id.org/cdisc/cosmos/dss/VS/HTAPCTL/VSSTRESC> ;
    rdf:_5 <https://w3id.org/cdisc/cosmos/dss/VS/HTAPCTL/VSSTRESN> ;
    rdf:_6 <https://w3id.org/cdisc/cosmos/dss/VS/HTAPCTL/VSDTC> ;
    cosmos_sdtm:biomedicalConceptId NCIT:C163568 ;
    cosmos_sdtm:domain "VS" ;
    cosmos_sdtm:packageDate "2026-05-26"^^xsd:date ;
    cosmos_sdtm:packageType <https://www.cdisc.org/cosmos/sdtm_v1.0/PackageTypeEnum#sdtm> ;
    cosmos_sdtm:sdtmigStartVersion "3-2" ;
    cosmos_sdtm:shortName "Height-for-Age Percentile" ;
    cosmos_sdtm:source "VS.VSTESTCD" ;
    cosmos_sdtm:variables <https://w3id.org/cdisc/cosmos/dss/VS/HTAPCTL/VSDTC>,
        <https://w3id.org/cdisc/cosmos/dss/VS/HTAPCTL/VSORRES>,
        <https://w3id.org/cdisc/cosmos/dss/VS/HTAPCTL/VSSTRESC>,
        <https://w3id.org/cdisc/cosmos/dss/VS/HTAPCTL/VSSTRESN>,
        <https://w3id.org/cdisc/cosmos/dss/VS/HTAPCTL/VSTEST>,
        <https://w3id.org/cdisc/cosmos/dss/VS/HTAPCTL/VSTESTCD> .

<https://w3id.org/cdisc/cosmos/dss/VS/IDEALWT> a cosmos_sdtm:SDTMGroup ;
    dcterms:identifier "IDEALWT" ;
    rdf:_1 <https://w3id.org/cdisc/cosmos/dss/VS/IDEALWT/VSTESTCD> ;
    rdf:_2 <https://w3id.org/cdisc/cosmos/dss/VS/IDEALWT/VSTEST> ;
    rdf:_3 <https://w3id.org/cdisc/cosmos/dss/VS/IDEALWT/VSORRES> ;
    rdf:_4 <https://w3id.org/cdisc/cosmos/dss/VS/IDEALWT/VSORRESU> ;
    rdf:_5 <https://w3id.org/cdisc/cosmos/dss/VS/IDEALWT/VSSTRESC> ;
    rdf:_6 <https://w3id.org/cdisc/cosmos/dss/VS/IDEALWT/VSSTRESN> ;
    rdf:_7 <https://w3id.org/cdisc/cosmos/dss/VS/IDEALWT/VSSTRESU> ;
    rdf:_8 <https://w3id.org/cdisc/cosmos/dss/VS/IDEALWT/VSDTC> ;
    cosmos_sdtm:biomedicalConceptId NCIT:C117976 ;
    cosmos_sdtm:domain "VS" ;
    cosmos_sdtm:packageDate "2026-05-26"^^xsd:date ;
    cosmos_sdtm:packageType <https://www.cdisc.org/cosmos/sdtm_v1.0/PackageTypeEnum#sdtm> ;
    cosmos_sdtm:sdtmigStartVersion "3-2" ;
    cosmos_sdtm:shortName "Ideal Body Weight" ;
    cosmos_sdtm:source "VS.VSTESTCD" ;
    cosmos_sdtm:variables <https://w3id.org/cdisc/cosmos/dss/VS/IDEALWT/VSDTC>,
        <https://w3id.org/cdisc/cosmos/dss/VS/IDEALWT/VSORRES>,
        <https://w3id.org/cdisc/cosmos/dss/VS/IDEALWT/VSORRESU>,
        <https://w3id.org/cdisc/cosmos/dss/VS/IDEALWT/VSSTRESC>,
        <https://w3id.org/cdisc/cosmos/dss/VS/IDEALWT/VSSTRESN>,
        <https://w3id.org/cdisc/cosmos/dss/VS/IDEALWT/VSSTRESU>,
        <https://w3id.org/cdisc/cosmos/dss/VS/IDEALWT/VSTEST>,
        <https://w3id.org/cdisc/cosmos/dss/VS/IDEALWT/VSTESTCD> .

<https://w3id.org/cdisc/cosmos/dss/VS/KNEEHEEL> a cosmos_sdtm:SDTMGroup ;
    dcterms:identifier "KNEEHEEL" ;
    rdf:_1 <https://w3id.org/cdisc/cosmos/dss/VS/KNEEHEEL/VSTESTCD> ;
    rdf:_2 <https://w3id.org/cdisc/cosmos/dss/VS/KNEEHEEL/VSTEST> ;
    rdf:_3 <https://w3id.org/cdisc/cosmos/dss/VS/KNEEHEEL/VSORRES> ;
    rdf:_4 <https://w3id.org/cdisc/cosmos/dss/VS/KNEEHEEL/VSORRESU> ;
    rdf:_5 <https://w3id.org/cdisc/cosmos/dss/VS/KNEEHEEL/VSSTRESC> ;
    rdf:_6 <https://w3id.org/cdisc/cosmos/dss/VS/KNEEHEEL/VSSTRESN> ;
    rdf:_7 <https://w3id.org/cdisc/cosmos/dss/VS/KNEEHEEL/VSSTRESU> ;
    rdf:_8 <https://w3id.org/cdisc/cosmos/dss/VS/KNEEHEEL/VSDTC> ;
    cosmos_sdtm:biomedicalConceptId NCIT:C84372 ;
    cosmos_sdtm:domain "VS" ;
    cosmos_sdtm:packageDate "2026-05-26"^^xsd:date ;
    cosmos_sdtm:packageType <https://www.cdisc.org/cosmos/sdtm_v1.0/PackageTypeEnum#sdtm> ;
    cosmos_sdtm:sdtmigStartVersion "3-2" ;
    cosmos_sdtm:shortName "Knee to Heel Length" ;
    cosmos_sdtm:source "VS.VSTESTCD" ;
    cosmos_sdtm:variables <https://w3id.org/cdisc/cosmos/dss/VS/KNEEHEEL/VSDTC>,
        <https://w3id.org/cdisc/cosmos/dss/VS/KNEEHEEL/VSORRES>,
        <https://w3id.org/cdisc/cosmos/dss/VS/KNEEHEEL/VSORRESU>,
        <https://w3id.org/cdisc/cosmos/dss/VS/KNEEHEEL/VSSTRESC>,
        <https://w3id.org/cdisc/cosmos/dss/VS/KNEEHEEL/VSSTRESN>,
        <https://w3id.org/cdisc/cosmos/dss/VS/KNEEHEEL/VSSTRESU>,
        <https://w3id.org/cdisc/cosmos/dss/VS/KNEEHEEL/VSTEST>,
        <https://w3id.org/cdisc/cosmos/dss/VS/KNEEHEEL/VSTESTCD> .

<https://w3id.org/cdisc/cosmos/dss/VS/LBM> a cosmos_sdtm:SDTMGroup ;
    dcterms:identifier "LBM" ;
    rdf:_1 <https://w3id.org/cdisc/cosmos/dss/VS/LBM/VSTESTCD> ;
    rdf:_2 <https://w3id.org/cdisc/cosmos/dss/VS/LBM/VSTEST> ;
    rdf:_3 <https://w3id.org/cdisc/cosmos/dss/VS/LBM/VSORRES> ;
    rdf:_4 <https://w3id.org/cdisc/cosmos/dss/VS/LBM/VSORRESU> ;
    rdf:_5 <https://w3id.org/cdisc/cosmos/dss/VS/LBM/VSSTRESC> ;
    rdf:_6 <https://w3id.org/cdisc/cosmos/dss/VS/LBM/VSSTRESN> ;
    rdf:_7 <https://w3id.org/cdisc/cosmos/dss/VS/LBM/VSSTRESU> ;
    rdf:_8 <https://w3id.org/cdisc/cosmos/dss/VS/LBM/VSDTC> ;
    cosmos_sdtm:biomedicalConceptId NCIT:C71258 ;
    cosmos_sdtm:domain "VS" ;
    cosmos_sdtm:packageDate "2026-05-26"^^xsd:date ;
    cosmos_sdtm:packageType <https://www.cdisc.org/cosmos/sdtm_v1.0/PackageTypeEnum#sdtm> ;
    cosmos_sdtm:sdtmigStartVersion "3-2" ;
    cosmos_sdtm:shortName "Lean Body Mass" ;
    cosmos_sdtm:source "VS.VSTESTCD" ;
    cosmos_sdtm:variables <https://w3id.org/cdisc/cosmos/dss/VS/LBM/VSDTC>,
        <https://w3id.org/cdisc/cosmos/dss/VS/LBM/VSORRES>,
        <https://w3id.org/cdisc/cosmos/dss/VS/LBM/VSORRESU>,
        <https://w3id.org/cdisc/cosmos/dss/VS/LBM/VSSTRESC>,
        <https://w3id.org/cdisc/cosmos/dss/VS/LBM/VSSTRESN>,
        <https://w3id.org/cdisc/cosmos/dss/VS/LBM/VSSTRESU>,
        <https://w3id.org/cdisc/cosmos/dss/VS/LBM/VSTEST>,
        <https://w3id.org/cdisc/cosmos/dss/VS/LBM/VSTESTCD> .

<https://w3id.org/cdisc/cosmos/dss/VS/LBMTBMR> a cosmos_sdtm:SDTMGroup ;
    dcterms:identifier "LBMTBMR" ;
    rdf:_1 <https://w3id.org/cdisc/cosmos/dss/VS/LBMTBMR/VSTESTCD> ;
    rdf:_2 <https://w3id.org/cdisc/cosmos/dss/VS/LBMTBMR/VSTEST> ;
    rdf:_3 <https://w3id.org/cdisc/cosmos/dss/VS/LBMTBMR/VSORRES> ;
    rdf:_4 <https://w3id.org/cdisc/cosmos/dss/VS/LBMTBMR/VSORRESU> ;
    rdf:_5 <https://w3id.org/cdisc/cosmos/dss/VS/LBMTBMR/VSSTRESC> ;
    rdf:_6 <https://w3id.org/cdisc/cosmos/dss/VS/LBMTBMR/VSSTRESN> ;
    rdf:_7 <https://w3id.org/cdisc/cosmos/dss/VS/LBMTBMR/VSSTRESU> ;
    rdf:_8 <https://w3id.org/cdisc/cosmos/dss/VS/LBMTBMR/VSDTC> ;
    cosmos_sdtm:biomedicalConceptId NCIT:C139219 ;
    cosmos_sdtm:domain "VS" ;
    cosmos_sdtm:packageDate "2026-05-26"^^xsd:date ;
    cosmos_sdtm:packageType <https://www.cdisc.org/cosmos/sdtm_v1.0/PackageTypeEnum#sdtm> ;
    cosmos_sdtm:sdtmigStartVersion "3-2" ;
    cosmos_sdtm:shortName "Lean Body Mass/Total Body Mass" ;
    cosmos_sdtm:source "VS.VSTESTCD" ;
    cosmos_sdtm:variables <https://w3id.org/cdisc/cosmos/dss/VS/LBMTBMR/VSDTC>,
        <https://w3id.org/cdisc/cosmos/dss/VS/LBMTBMR/VSORRES>,
        <https://w3id.org/cdisc/cosmos/dss/VS/LBMTBMR/VSORRESU>,
        <https://w3id.org/cdisc/cosmos/dss/VS/LBMTBMR/VSSTRESC>,
        <https://w3id.org/cdisc/cosmos/dss/VS/LBMTBMR/VSSTRESN>,
        <https://w3id.org/cdisc/cosmos/dss/VS/LBMTBMR/VSSTRESU>,
        <https://w3id.org/cdisc/cosmos/dss/VS/LBMTBMR/VSTEST>,
        <https://w3id.org/cdisc/cosmos/dss/VS/LBMTBMR/VSTESTCD> .

<https://w3id.org/cdisc/cosmos/dss/VS/LTM> a cosmos_sdtm:SDTMGroup ;
    dcterms:identifier "LTM" ;
    rdf:_1 <https://w3id.org/cdisc/cosmos/dss/VS/LTM/VSTESTCD> ;
    rdf:_2 <https://w3id.org/cdisc/cosmos/dss/VS/LTM/VSTEST> ;
    rdf:_3 <https://w3id.org/cdisc/cosmos/dss/VS/LTM/VSORRES> ;
    rdf:_4 <https://w3id.org/cdisc/cosmos/dss/VS/LTM/VSORRESU> ;
    rdf:_5 <https://w3id.org/cdisc/cosmos/dss/VS/LTM/VSSTRESC> ;
    rdf:_6 <https://w3id.org/cdisc/cosmos/dss/VS/LTM/VSSTRESN> ;
    rdf:_7 <https://w3id.org/cdisc/cosmos/dss/VS/LTM/VSSTRESU> ;
    rdf:_8 <https://w3id.org/cdisc/cosmos/dss/VS/LTM/VSDTC> ;
    cosmos_sdtm:biomedicalConceptId NCIT:C199997 ;
    cosmos_sdtm:domain "VS" ;
    cosmos_sdtm:packageDate "2026-05-26"^^xsd:date ;
    cosmos_sdtm:packageType <https://www.cdisc.org/cosmos/sdtm_v1.0/PackageTypeEnum#sdtm> ;
    cosmos_sdtm:sdtmigStartVersion "3-2" ;
    cosmos_sdtm:shortName "Lean Tissue Mass" ;
    cosmos_sdtm:source "VS.VSTESTCD" ;
    cosmos_sdtm:variables <https://w3id.org/cdisc/cosmos/dss/VS/LTM/VSDTC>,
        <https://w3id.org/cdisc/cosmos/dss/VS/LTM/VSORRES>,
        <https://w3id.org/cdisc/cosmos/dss/VS/LTM/VSORRESU>,
        <https://w3id.org/cdisc/cosmos/dss/VS/LTM/VSSTRESC>,
        <https://w3id.org/cdisc/cosmos/dss/VS/LTM/VSSTRESN>,
        <https://w3id.org/cdisc/cosmos/dss/VS/LTM/VSSTRESU>,
        <https://w3id.org/cdisc/cosmos/dss/VS/LTM/VSTEST>,
        <https://w3id.org/cdisc/cosmos/dss/VS/LTM/VSTESTCD> .

<https://w3id.org/cdisc/cosmos/dss/VS/MANDL> a cosmos_sdtm:SDTMGroup ;
    dcterms:identifier "MANDL" ;
    rdf:_1 <https://w3id.org/cdisc/cosmos/dss/VS/MANDL/VSTESTCD> ;
    rdf:_2 <https://w3id.org/cdisc/cosmos/dss/VS/MANDL/VSTEST> ;
    rdf:_3 <https://w3id.org/cdisc/cosmos/dss/VS/MANDL/VSORRES> ;
    rdf:_4 <https://w3id.org/cdisc/cosmos/dss/VS/MANDL/VSORRESU> ;
    rdf:_5 <https://w3id.org/cdisc/cosmos/dss/VS/MANDL/VSSTRESC> ;
    rdf:_6 <https://w3id.org/cdisc/cosmos/dss/VS/MANDL/VSSTRESN> ;
    rdf:_7 <https://w3id.org/cdisc/cosmos/dss/VS/MANDL/VSSTRESU> ;
    rdf:_8 <https://w3id.org/cdisc/cosmos/dss/VS/MANDL/VSDTC> ;
    cosmos_sdtm:biomedicalConceptId NCIT:C174233 ;
    cosmos_sdtm:domain "VS" ;
    cosmos_sdtm:packageDate "2026-05-26"^^xsd:date ;
    cosmos_sdtm:packageType <https://www.cdisc.org/cosmos/sdtm_v1.0/PackageTypeEnum#sdtm> ;
    cosmos_sdtm:sdtmigStartVersion "3-2" ;
    cosmos_sdtm:shortName "Mandibular Length" ;
    cosmos_sdtm:source "VS.VSTESTCD" ;
    cosmos_sdtm:variables <https://w3id.org/cdisc/cosmos/dss/VS/MANDL/VSDTC>,
        <https://w3id.org/cdisc/cosmos/dss/VS/MANDL/VSORRES>,
        <https://w3id.org/cdisc/cosmos/dss/VS/MANDL/VSORRESU>,
        <https://w3id.org/cdisc/cosmos/dss/VS/MANDL/VSSTRESC>,
        <https://w3id.org/cdisc/cosmos/dss/VS/MANDL/VSSTRESN>,
        <https://w3id.org/cdisc/cosmos/dss/VS/MANDL/VSSTRESU>,
        <https://w3id.org/cdisc/cosmos/dss/VS/MANDL/VSTEST>,
        <https://w3id.org/cdisc/cosmos/dss/VS/MANDL/VSTESTCD> .

<https://w3id.org/cdisc/cosmos/dss/VS/MAP> a cosmos_sdtm:SDTMGroup ;
    dcterms:identifier "MAP" ;
    rdf:_1 <https://w3id.org/cdisc/cosmos/dss/VS/MAP/VSTESTCD> ;
    rdf:_2 <https://w3id.org/cdisc/cosmos/dss/VS/MAP/VSTEST> ;
    rdf:_3 <https://w3id.org/cdisc/cosmos/dss/VS/MAP/VSORRES> ;
    rdf:_4 <https://w3id.org/cdisc/cosmos/dss/VS/MAP/VSORRESU> ;
    rdf:_5 <https://w3id.org/cdisc/cosmos/dss/VS/MAP/VSSTRESC> ;
    rdf:_6 <https://w3id.org/cdisc/cosmos/dss/VS/MAP/VSSTRESN> ;
    rdf:_7 <https://w3id.org/cdisc/cosmos/dss/VS/MAP/VSSTRESU> ;
    rdf:_8 <https://w3id.org/cdisc/cosmos/dss/VS/MAP/VSDTC> ;
    cosmos_sdtm:biomedicalConceptId NCIT:C49679 ;
    cosmos_sdtm:domain "VS" ;
    cosmos_sdtm:packageDate "2026-05-26"^^xsd:date ;
    cosmos_sdtm:packageType <https://www.cdisc.org/cosmos/sdtm_v1.0/PackageTypeEnum#sdtm> ;
    cosmos_sdtm:sdtmigStartVersion "3-2" ;
    cosmos_sdtm:shortName "Mean Arterial Pressure" ;
    cosmos_sdtm:source "VS.VSTESTCD" ;
    cosmos_sdtm:variables <https://w3id.org/cdisc/cosmos/dss/VS/MAP/VSDTC>,
        <https://w3id.org/cdisc/cosmos/dss/VS/MAP/VSORRES>,
        <https://w3id.org/cdisc/cosmos/dss/VS/MAP/VSORRESU>,
        <https://w3id.org/cdisc/cosmos/dss/VS/MAP/VSSTRESC>,
        <https://w3id.org/cdisc/cosmos/dss/VS/MAP/VSSTRESN>,
        <https://w3id.org/cdisc/cosmos/dss/VS/MAP/VSSTRESU>,
        <https://w3id.org/cdisc/cosmos/dss/VS/MAP/VSTEST>,
        <https://w3id.org/cdisc/cosmos/dss/VS/MAP/VSTESTCD> .

<https://w3id.org/cdisc/cosmos/dss/VS/MAXPREHR> a cosmos_sdtm:SDTMGroup ;
    dcterms:identifier "MAXPREHR" ;
    rdf:_1 <https://w3id.org/cdisc/cosmos/dss/VS/MAXPREHR/VSTESTCD> ;
    rdf:_2 <https://w3id.org/cdisc/cosmos/dss/VS/MAXPREHR/VSTEST> ;
    rdf:_3 <https://w3id.org/cdisc/cosmos/dss/VS/MAXPREHR/VSORRES> ;
    rdf:_4 <https://w3id.org/cdisc/cosmos/dss/VS/MAXPREHR/VSORRESU> ;
    rdf:_5 <https://w3id.org/cdisc/cosmos/dss/VS/MAXPREHR/VSSTRESC> ;
    rdf:_6 <https://w3id.org/cdisc/cosmos/dss/VS/MAXPREHR/VSSTRESN> ;
    rdf:_7 <https://w3id.org/cdisc/cosmos/dss/VS/MAXPREHR/VSSTRESU> ;
    rdf:_8 <https://w3id.org/cdisc/cosmos/dss/VS/MAXPREHR/VSDTC> ;
    cosmos_sdtm:biomedicalConceptId NCIT:C147492 ;
    cosmos_sdtm:domain "VS" ;
    cosmos_sdtm:packageDate "2026-05-26"^^xsd:date ;
    cosmos_sdtm:packageType <https://www.cdisc.org/cosmos/sdtm_v1.0/PackageTypeEnum#sdtm> ;
    cosmos_sdtm:sdtmigStartVersion "3-2" ;
    cosmos_sdtm:shortName "Maximum Predicted Heart Rate" ;
    cosmos_sdtm:source "VS.VSTESTCD" ;
    cosmos_sdtm:variables <https://w3id.org/cdisc/cosmos/dss/VS/MAXPREHR/VSDTC>,
        <https://w3id.org/cdisc/cosmos/dss/VS/MAXPREHR/VSORRES>,
        <https://w3id.org/cdisc/cosmos/dss/VS/MAXPREHR/VSORRESU>,
        <https://w3id.org/cdisc/cosmos/dss/VS/MAXPREHR/VSSTRESC>,
        <https://w3id.org/cdisc/cosmos/dss/VS/MAXPREHR/VSSTRESN>,
        <https://w3id.org/cdisc/cosmos/dss/VS/MAXPREHR/VSSTRESU>,
        <https://w3id.org/cdisc/cosmos/dss/VS/MAXPREHR/VSTEST>,
        <https://w3id.org/cdisc/cosmos/dss/VS/MAXPREHR/VSTESTCD> .

<https://w3id.org/cdisc/cosmos/dss/VS/MUARMCIR> a cosmos_sdtm:SDTMGroup ;
    dcterms:identifier "MUARMCIR" ;
    rdf:_1 <https://w3id.org/cdisc/cosmos/dss/VS/MUARMCIR/VSTESTCD> ;
    rdf:_2 <https://w3id.org/cdisc/cosmos/dss/VS/MUARMCIR/VSTEST> ;
    rdf:_3 <https://w3id.org/cdisc/cosmos/dss/VS/MUARMCIR/VSORRES> ;
    rdf:_4 <https://w3id.org/cdisc/cosmos/dss/VS/MUARMCIR/VSORRESU> ;
    rdf:_5 <https://w3id.org/cdisc/cosmos/dss/VS/MUARMCIR/VSSTRESC> ;
    rdf:_6 <https://w3id.org/cdisc/cosmos/dss/VS/MUARMCIR/VSSTRESN> ;
    rdf:_7 <https://w3id.org/cdisc/cosmos/dss/VS/MUARMCIR/VSSTRESU> ;
    rdf:_8 <https://w3id.org/cdisc/cosmos/dss/VS/MUARMCIR/VSDTC> ;
    cosmos_sdtm:biomedicalConceptId NCIT:C124475 ;
    cosmos_sdtm:domain "VS" ;
    cosmos_sdtm:packageDate "2026-05-26"^^xsd:date ;
    cosmos_sdtm:packageType <https://www.cdisc.org/cosmos/sdtm_v1.0/PackageTypeEnum#sdtm> ;
    cosmos_sdtm:sdtmigStartVersion "3-2" ;
    cosmos_sdtm:shortName "Mid-Upper Arm Circumference" ;
    cosmos_sdtm:source "VS.VSTESTCD" ;
    cosmos_sdtm:variables <https://w3id.org/cdisc/cosmos/dss/VS/MUARMCIR/VSDTC>,
        <https://w3id.org/cdisc/cosmos/dss/VS/MUARMCIR/VSORRES>,
        <https://w3id.org/cdisc/cosmos/dss/VS/MUARMCIR/VSORRESU>,
        <https://w3id.org/cdisc/cosmos/dss/VS/MUARMCIR/VSSTRESC>,
        <https://w3id.org/cdisc/cosmos/dss/VS/MUARMCIR/VSSTRESN>,
        <https://w3id.org/cdisc/cosmos/dss/VS/MUARMCIR/VSSTRESU>,
        <https://w3id.org/cdisc/cosmos/dss/VS/MUARMCIR/VSTEST>,
        <https://w3id.org/cdisc/cosmos/dss/VS/MUARMCIR/VSTESTCD> .

<https://w3id.org/cdisc/cosmos/dss/VS/NECKCIR> a cosmos_sdtm:SDTMGroup ;
    dcterms:identifier "NECKCIR" ;
    rdf:_1 <https://w3id.org/cdisc/cosmos/dss/VS/NECKCIR/VSTESTCD> ;
    rdf:_2 <https://w3id.org/cdisc/cosmos/dss/VS/NECKCIR/VSTEST> ;
    rdf:_3 <https://w3id.org/cdisc/cosmos/dss/VS/NECKCIR/VSORRES> ;
    rdf:_4 <https://w3id.org/cdisc/cosmos/dss/VS/NECKCIR/VSORRESU> ;
    rdf:_5 <https://w3id.org/cdisc/cosmos/dss/VS/NECKCIR/VSSTRESC> ;
    rdf:_6 <https://w3id.org/cdisc/cosmos/dss/VS/NECKCIR/VSSTRESN> ;
    rdf:_7 <https://w3id.org/cdisc/cosmos/dss/VS/NECKCIR/VSSTRESU> ;
    rdf:_8 <https://w3id.org/cdisc/cosmos/dss/VS/NECKCIR/VSDTC> ;
    cosmos_sdtm:biomedicalConceptId NCIT:C154891 ;
    cosmos_sdtm:domain "VS" ;
    cosmos_sdtm:packageDate "2026-05-26"^^xsd:date ;
    cosmos_sdtm:packageType <https://www.cdisc.org/cosmos/sdtm_v1.0/PackageTypeEnum#sdtm> ;
    cosmos_sdtm:sdtmigStartVersion "3-2" ;
    cosmos_sdtm:shortName "Neck Circumference" ;
    cosmos_sdtm:source "VS.VSTESTCD" ;
    cosmos_sdtm:variables <https://w3id.org/cdisc/cosmos/dss/VS/NECKCIR/VSDTC>,
        <https://w3id.org/cdisc/cosmos/dss/VS/NECKCIR/VSORRES>,
        <https://w3id.org/cdisc/cosmos/dss/VS/NECKCIR/VSORRESU>,
        <https://w3id.org/cdisc/cosmos/dss/VS/NECKCIR/VSSTRESC>,
        <https://w3id.org/cdisc/cosmos/dss/VS/NECKCIR/VSSTRESN>,
        <https://w3id.org/cdisc/cosmos/dss/VS/NECKCIR/VSSTRESU>,
        <https://w3id.org/cdisc/cosmos/dss/VS/NECKCIR/VSTEST>,
        <https://w3id.org/cdisc/cosmos/dss/VS/NECKCIR/VSTESTCD> .

<https://w3id.org/cdisc/cosmos/dss/VS/OXYSAT> a cosmos_sdtm:SDTMGroup ;
    dcterms:identifier "OXYSAT" ;
    rdf:_1 <https://w3id.org/cdisc/cosmos/dss/VS/OXYSAT/VSTESTCD> ;
    rdf:_10 <https://w3id.org/cdisc/cosmos/dss/VS/OXYSAT/VSLAT> ;
    rdf:_11 <https://w3id.org/cdisc/cosmos/dss/VS/OXYSAT/VSDTC> ;
    rdf:_2 <https://w3id.org/cdisc/cosmos/dss/VS/OXYSAT/VSTEST> ;
    rdf:_3 <https://w3id.org/cdisc/cosmos/dss/VS/OXYSAT/VSORRES> ;
    rdf:_4 <https://w3id.org/cdisc/cosmos/dss/VS/OXYSAT/VSORRESU> ;
    rdf:_5 <https://w3id.org/cdisc/cosmos/dss/VS/OXYSAT/VSSTRESC> ;
    rdf:_6 <https://w3id.org/cdisc/cosmos/dss/VS/OXYSAT/VSSTRESN> ;
    rdf:_7 <https://w3id.org/cdisc/cosmos/dss/VS/OXYSAT/VSSTRESU> ;
    rdf:_8 <https://w3id.org/cdisc/cosmos/dss/VS/OXYSAT/VSMETHOD> ;
    rdf:_9 <https://w3id.org/cdisc/cosmos/dss/VS/OXYSAT/VSLOC> ;
    cosmos_sdtm:biomedicalConceptId NCIT:C60832 ;
    cosmos_sdtm:domain "VS" ;
    cosmos_sdtm:packageDate "2026-05-26"^^xsd:date ;
    cosmos_sdtm:packageType <https://www.cdisc.org/cosmos/sdtm_v1.0/PackageTypeEnum#sdtm> ;
    cosmos_sdtm:sdtmigStartVersion "3-2" ;
    cosmos_sdtm:shortName "Oxygen Saturation" ;
    cosmos_sdtm:source "VS.VSTESTCD" ;
    cosmos_sdtm:variables <https://w3id.org/cdisc/cosmos/dss/VS/OXYSAT/VSDTC>,
        <https://w3id.org/cdisc/cosmos/dss/VS/OXYSAT/VSLAT>,
        <https://w3id.org/cdisc/cosmos/dss/VS/OXYSAT/VSLOC>,
        <https://w3id.org/cdisc/cosmos/dss/VS/OXYSAT/VSMETHOD>,
        <https://w3id.org/cdisc/cosmos/dss/VS/OXYSAT/VSORRES>,
        <https://w3id.org/cdisc/cosmos/dss/VS/OXYSAT/VSORRESU>,
        <https://w3id.org/cdisc/cosmos/dss/VS/OXYSAT/VSSTRESC>,
        <https://w3id.org/cdisc/cosmos/dss/VS/OXYSAT/VSSTRESN>,
        <https://w3id.org/cdisc/cosmos/dss/VS/OXYSAT/VSSTRESU>,
        <https://w3id.org/cdisc/cosmos/dss/VS/OXYSAT/VSTEST>,
        <https://w3id.org/cdisc/cosmos/dss/VS/OXYSAT/VSTESTCD> .

<https://w3id.org/cdisc/cosmos/dss/VS/PULSE> a cosmos_sdtm:SDTMGroup ;
    dcterms:identifier "PULSE" ;
    rdf:_1 <https://w3id.org/cdisc/cosmos/dss/VS/PULSE/VSTESTCD> ;
    rdf:_10 <https://w3id.org/cdisc/cosmos/dss/VS/PULSE/VSLAT> ;
    rdf:_11 <https://w3id.org/cdisc/cosmos/dss/VS/PULSE/VSDTC> ;
    rdf:_2 <https://w3id.org/cdisc/cosmos/dss/VS/PULSE/VSTEST> ;
    rdf:_3 <https://w3id.org/cdisc/cosmos/dss/VS/PULSE/VSORRES> ;
    rdf:_4 <https://w3id.org/cdisc/cosmos/dss/VS/PULSE/VSORRESU> ;
    rdf:_5 <https://w3id.org/cdisc/cosmos/dss/VS/PULSE/VSSTRESC> ;
    rdf:_6 <https://w3id.org/cdisc/cosmos/dss/VS/PULSE/VSSTRESN> ;
    rdf:_7 <https://w3id.org/cdisc/cosmos/dss/VS/PULSE/VSSTRESU> ;
    rdf:_8 <https://w3id.org/cdisc/cosmos/dss/VS/PULSE/VSPOS> ;
    rdf:_9 <https://w3id.org/cdisc/cosmos/dss/VS/PULSE/VSLOC> ;
    cosmos_sdtm:biomedicalConceptId NCIT:C49676 ;
    cosmos_sdtm:domain "VS" ;
    cosmos_sdtm:packageDate "2026-05-26"^^xsd:date ;
    cosmos_sdtm:packageType <https://www.cdisc.org/cosmos/sdtm_v1.0/PackageTypeEnum#sdtm> ;
    cosmos_sdtm:sdtmigStartVersion "3-2" ;
    cosmos_sdtm:shortName "Pulse" ;
    cosmos_sdtm:source "VS.VSTESTCD" ;
    cosmos_sdtm:variables <https://w3id.org/cdisc/cosmos/dss/VS/PULSE/VSDTC>,
        <https://w3id.org/cdisc/cosmos/dss/VS/PULSE/VSLAT>,
        <https://w3id.org/cdisc/cosmos/dss/VS/PULSE/VSLOC>,
        <https://w3id.org/cdisc/cosmos/dss/VS/PULSE/VSORRES>,
        <https://w3id.org/cdisc/cosmos/dss/VS/PULSE/VSORRESU>,
        <https://w3id.org/cdisc/cosmos/dss/VS/PULSE/VSPOS>,
        <https://w3id.org/cdisc/cosmos/dss/VS/PULSE/VSSTRESC>,
        <https://w3id.org/cdisc/cosmos/dss/VS/PULSE/VSSTRESN>,
        <https://w3id.org/cdisc/cosmos/dss/VS/PULSE/VSSTRESU>,
        <https://w3id.org/cdisc/cosmos/dss/VS/PULSE/VSTEST>,
        <https://w3id.org/cdisc/cosmos/dss/VS/PULSE/VSTESTCD> .

<https://w3id.org/cdisc/cosmos/dss/VS/PULSEPR> a cosmos_sdtm:SDTMGroup ;
    dcterms:identifier "PULSEPR" ;
    rdf:_1 <https://w3id.org/cdisc/cosmos/dss/VS/PULSEPR/VSTESTCD> ;
    rdf:_2 <https://w3id.org/cdisc/cosmos/dss/VS/PULSEPR/VSTEST> ;
    rdf:_3 <https://w3id.org/cdisc/cosmos/dss/VS/PULSEPR/VSORRES> ;
    rdf:_4 <https://w3id.org/cdisc/cosmos/dss/VS/PULSEPR/VSORRESU> ;
    rdf:_5 <https://w3id.org/cdisc/cosmos/dss/VS/PULSEPR/VSSTRESC> ;
    rdf:_6 <https://w3id.org/cdisc/cosmos/dss/VS/PULSEPR/VSSTRESN> ;
    rdf:_7 <https://w3id.org/cdisc/cosmos/dss/VS/PULSEPR/VSSTRESU> ;
    rdf:_8 <https://w3id.org/cdisc/cosmos/dss/VS/PULSEPR/VSPOS> ;
    rdf:_9 <https://w3id.org/cdisc/cosmos/dss/VS/PULSEPR/VSDTC> ;
    cosmos_sdtm:biomedicalConceptId NCIT:C100945 ;
    cosmos_sdtm:domain "VS" ;
    cosmos_sdtm:packageDate "2026-05-26"^^xsd:date ;
    cosmos_sdtm:packageType <https://www.cdisc.org/cosmos/sdtm_v1.0/PackageTypeEnum#sdtm> ;
    cosmos_sdtm:sdtmigStartVersion "3-2" ;
    cosmos_sdtm:shortName "Pulse Pressure" ;
    cosmos_sdtm:source "VS.VSTESTCD" ;
    cosmos_sdtm:variables <https://w3id.org/cdisc/cosmos/dss/VS/PULSEPR/VSDTC>,
        <https://w3id.org/cdisc/cosmos/dss/VS/PULSEPR/VSORRES>,
        <https://w3id.org/cdisc/cosmos/dss/VS/PULSEPR/VSORRESU>,
        <https://w3id.org/cdisc/cosmos/dss/VS/PULSEPR/VSPOS>,
        <https://w3id.org/cdisc/cosmos/dss/VS/PULSEPR/VSSTRESC>,
        <https://w3id.org/cdisc/cosmos/dss/VS/PULSEPR/VSSTRESN>,
        <https://w3id.org/cdisc/cosmos/dss/VS/PULSEPR/VSSTRESU>,
        <https://w3id.org/cdisc/cosmos/dss/VS/PULSEPR/VSTEST>,
        <https://w3id.org/cdisc/cosmos/dss/VS/PULSEPR/VSTESTCD> .

<https://w3id.org/cdisc/cosmos/dss/VS/PULSE_EXT> a cosmos_sdtm:SDTMGroup ;
    dcterms:identifier "PULSE_EXT" ;
    rdf:_1 <https://w3id.org/cdisc/cosmos/dss/VS/PULSE_EXT/VSTESTCD> ;
    rdf:_10 <https://w3id.org/cdisc/cosmos/dss/VS/PULSE_EXT/VSLAT> ;
    rdf:_11 <https://w3id.org/cdisc/cosmos/dss/VS/PULSE_EXT/VSDTC> ;
    rdf:_2 <https://w3id.org/cdisc/cosmos/dss/VS/PULSE_EXT/VSTEST> ;
    rdf:_3 <https://w3id.org/cdisc/cosmos/dss/VS/PULSE_EXT/VSORRES> ;
    rdf:_4 <https://w3id.org/cdisc/cosmos/dss/VS/PULSE_EXT/VSORRESU> ;
    rdf:_5 <https://w3id.org/cdisc/cosmos/dss/VS/PULSE_EXT/VSSTRESC> ;
    rdf:_6 <https://w3id.org/cdisc/cosmos/dss/VS/PULSE_EXT/VSSTRESN> ;
    rdf:_7 <https://w3id.org/cdisc/cosmos/dss/VS/PULSE_EXT/VSSTRESU> ;
    rdf:_8 <https://w3id.org/cdisc/cosmos/dss/VS/PULSE_EXT/VSPOS> ;
    rdf:_9 <https://w3id.org/cdisc/cosmos/dss/VS/PULSE_EXT/VSLOC> ;
    cosmos_sdtm:biomedicalConceptId NCIT:C49676 ;
    cosmos_sdtm:domain "VS" ;
    cosmos_sdtm:packageDate "2026-05-26"^^xsd:date ;
    cosmos_sdtm:packageType <https://www.cdisc.org/cosmos/sdtm_v1.0/PackageTypeEnum#sdtm> ;
    cosmos_sdtm:sdtmigStartVersion "3-2" ;
    cosmos_sdtm:shortName "Pulse Extended" ;
    cosmos_sdtm:source "VS.VSTESTCD" ;
    cosmos_sdtm:variables <https://w3id.org/cdisc/cosmos/dss/VS/PULSE_EXT/VSDTC>,
        <https://w3id.org/cdisc/cosmos/dss/VS/PULSE_EXT/VSLAT>,
        <https://w3id.org/cdisc/cosmos/dss/VS/PULSE_EXT/VSLOC>,
        <https://w3id.org/cdisc/cosmos/dss/VS/PULSE_EXT/VSORRES>,
        <https://w3id.org/cdisc/cosmos/dss/VS/PULSE_EXT/VSORRESU>,
        <https://w3id.org/cdisc/cosmos/dss/VS/PULSE_EXT/VSPOS>,
        <https://w3id.org/cdisc/cosmos/dss/VS/PULSE_EXT/VSSTRESC>,
        <https://w3id.org/cdisc/cosmos/dss/VS/PULSE_EXT/VSSTRESN>,
        <https://w3id.org/cdisc/cosmos/dss/VS/PULSE_EXT/VSSTRESU>,
        <https://w3id.org/cdisc/cosmos/dss/VS/PULSE_EXT/VSTEST>,
        <https://w3id.org/cdisc/cosmos/dss/VS/PULSE_EXT/VSTESTCD> .

<https://w3id.org/cdisc/cosmos/dss/VS/RESP> a cosmos_sdtm:SDTMGroup ;
    dcterms:identifier "RESP" ;
    rdf:_1 <https://w3id.org/cdisc/cosmos/dss/VS/RESP/VSTESTCD> ;
    rdf:_2 <https://w3id.org/cdisc/cosmos/dss/VS/RESP/VSTEST> ;
    rdf:_3 <https://w3id.org/cdisc/cosmos/dss/VS/RESP/VSORRES> ;
    rdf:_4 <https://w3id.org/cdisc/cosmos/dss/VS/RESP/VSORRESU> ;
    rdf:_5 <https://w3id.org/cdisc/cosmos/dss/VS/RESP/VSSTRESC> ;
    rdf:_6 <https://w3id.org/cdisc/cosmos/dss/VS/RESP/VSSTRESN> ;
    rdf:_7 <https://w3id.org/cdisc/cosmos/dss/VS/RESP/VSSTRESU> ;
    rdf:_8 <https://w3id.org/cdisc/cosmos/dss/VS/RESP/VSDTC> ;
    cosmos_sdtm:biomedicalConceptId NCIT:C49678 ;
    cosmos_sdtm:domain "VS" ;
    cosmos_sdtm:packageDate "2026-05-26"^^xsd:date ;
    cosmos_sdtm:packageType <https://www.cdisc.org/cosmos/sdtm_v1.0/PackageTypeEnum#sdtm> ;
    cosmos_sdtm:sdtmigStartVersion "3-2" ;
    cosmos_sdtm:shortName "Respiratory Rate" ;
    cosmos_sdtm:source "VS.VSTESTCD" ;
    cosmos_sdtm:variables <https://w3id.org/cdisc/cosmos/dss/VS/RESP/VSDTC>,
        <https://w3id.org/cdisc/cosmos/dss/VS/RESP/VSORRES>,
        <https://w3id.org/cdisc/cosmos/dss/VS/RESP/VSORRESU>,
        <https://w3id.org/cdisc/cosmos/dss/VS/RESP/VSSTRESC>,
        <https://w3id.org/cdisc/cosmos/dss/VS/RESP/VSSTRESN>,
        <https://w3id.org/cdisc/cosmos/dss/VS/RESP/VSSTRESU>,
        <https://w3id.org/cdisc/cosmos/dss/VS/RESP/VSTEST>,
        <https://w3id.org/cdisc/cosmos/dss/VS/RESP/VSTESTCD> .

<https://w3id.org/cdisc/cosmos/dss/VS/SAD> a cosmos_sdtm:SDTMGroup ;
    dcterms:identifier "SAD" ;
    rdf:_1 <https://w3id.org/cdisc/cosmos/dss/VS/SAD/VSTESTCD> ;
    rdf:_2 <https://w3id.org/cdisc/cosmos/dss/VS/SAD/VSTEST> ;
    rdf:_3 <https://w3id.org/cdisc/cosmos/dss/VS/SAD/VSORRES> ;
    rdf:_4 <https://w3id.org/cdisc/cosmos/dss/VS/SAD/VSORRESU> ;
    rdf:_5 <https://w3id.org/cdisc/cosmos/dss/VS/SAD/VSSTRESC> ;
    rdf:_6 <https://w3id.org/cdisc/cosmos/dss/VS/SAD/VSSTRESN> ;
    rdf:_7 <https://w3id.org/cdisc/cosmos/dss/VS/SAD/VSSTRESU> ;
    rdf:_8 <https://w3id.org/cdisc/cosmos/dss/VS/SAD/VSDTC> ;
    cosmos_sdtm:biomedicalConceptId NCIT:C87054 ;
    cosmos_sdtm:domain "VS" ;
    cosmos_sdtm:packageDate "2026-05-26"^^xsd:date ;
    cosmos_sdtm:packageType <https://www.cdisc.org/cosmos/sdtm_v1.0/PackageTypeEnum#sdtm> ;
    cosmos_sdtm:sdtmigStartVersion "3-2" ;
    cosmos_sdtm:shortName "Sagittal Abdominal Diameter" ;
    cosmos_sdtm:source "VS.VSTESTCD" ;
    cosmos_sdtm:variables <https://w3id.org/cdisc/cosmos/dss/VS/SAD/VSDTC>,
        <https://w3id.org/cdisc/cosmos/dss/VS/SAD/VSORRES>,
        <https://w3id.org/cdisc/cosmos/dss/VS/SAD/VSORRESU>,
        <https://w3id.org/cdisc/cosmos/dss/VS/SAD/VSSTRESC>,
        <https://w3id.org/cdisc/cosmos/dss/VS/SAD/VSSTRESN>,
        <https://w3id.org/cdisc/cosmos/dss/VS/SAD/VSSTRESU>,
        <https://w3id.org/cdisc/cosmos/dss/VS/SAD/VSTEST>,
        <https://w3id.org/cdisc/cosmos/dss/VS/SAD/VSTESTCD> .

<https://w3id.org/cdisc/cosmos/dss/VS/SAO2FIO2> a cosmos_sdtm:SDTMGroup ;
    dcterms:identifier "SAO2FIO2" ;
    rdf:_1 <https://w3id.org/cdisc/cosmos/dss/VS/SAO2FIO2/VSTESTCD> ;
    rdf:_2 <https://w3id.org/cdisc/cosmos/dss/VS/SAO2FIO2/VSTEST> ;
    rdf:_3 <https://w3id.org/cdisc/cosmos/dss/VS/SAO2FIO2/VSORRES> ;
    rdf:_4 <https://w3id.org/cdisc/cosmos/dss/VS/SAO2FIO2/VSORRESU> ;
    rdf:_5 <https://w3id.org/cdisc/cosmos/dss/VS/SAO2FIO2/VSSTRESC> ;
    rdf:_6 <https://w3id.org/cdisc/cosmos/dss/VS/SAO2FIO2/VSSTRESN> ;
    rdf:_7 <https://w3id.org/cdisc/cosmos/dss/VS/SAO2FIO2/VSSTRESU> ;
    rdf:_8 <https://w3id.org/cdisc/cosmos/dss/VS/SAO2FIO2/VSDTC> ;
    cosmos_sdtm:biomedicalConceptId NCIT:C174311 ;
    cosmos_sdtm:domain "VS" ;
    cosmos_sdtm:packageDate "2026-05-26"^^xsd:date ;
    cosmos_sdtm:packageType <https://www.cdisc.org/cosmos/sdtm_v1.0/PackageTypeEnum#sdtm> ;
    cosmos_sdtm:sdtmigStartVersion "3-2" ;
    cosmos_sdtm:shortName "Oxygen Saturation/Fraction Inspired O2" ;
    cosmos_sdtm:source "VS.VSTESTCD" ;
    cosmos_sdtm:variables <https://w3id.org/cdisc/cosmos/dss/VS/SAO2FIO2/VSDTC>,
        <https://w3id.org/cdisc/cosmos/dss/VS/SAO2FIO2/VSORRES>,
        <https://w3id.org/cdisc/cosmos/dss/VS/SAO2FIO2/VSORRESU>,
        <https://w3id.org/cdisc/cosmos/dss/VS/SAO2FIO2/VSSTRESC>,
        <https://w3id.org/cdisc/cosmos/dss/VS/SAO2FIO2/VSSTRESN>,
        <https://w3id.org/cdisc/cosmos/dss/VS/SAO2FIO2/VSSTRESU>,
        <https://w3id.org/cdisc/cosmos/dss/VS/SAO2FIO2/VSTEST>,
        <https://w3id.org/cdisc/cosmos/dss/VS/SAO2FIO2/VSTESTCD> .

<https://w3id.org/cdisc/cosmos/dss/VS/SBPAPCTL> a cosmos_sdtm:SDTMGroup ;
    dcterms:identifier "SBPAPCTL" ;
    rdf:_1 <https://w3id.org/cdisc/cosmos/dss/VS/SBPAPCTL/VSTESTCD> ;
    rdf:_2 <https://w3id.org/cdisc/cosmos/dss/VS/SBPAPCTL/VSTEST> ;
    rdf:_3 <https://w3id.org/cdisc/cosmos/dss/VS/SBPAPCTL/VSORRES> ;
    rdf:_4 <https://w3id.org/cdisc/cosmos/dss/VS/SBPAPCTL/VSSTRESC> ;
    rdf:_5 <https://w3id.org/cdisc/cosmos/dss/VS/SBPAPCTL/VSSTRESN> ;
    rdf:_6 <https://w3id.org/cdisc/cosmos/dss/VS/SBPAPCTL/VSDTC> ;
    cosmos_sdtm:biomedicalConceptId NCIT:C172608 ;
    cosmos_sdtm:domain "VS" ;
    cosmos_sdtm:packageDate "2026-05-26"^^xsd:date ;
    cosmos_sdtm:packageType <https://www.cdisc.org/cosmos/sdtm_v1.0/PackageTypeEnum#sdtm> ;
    cosmos_sdtm:sdtmigStartVersion "3-2" ;
    cosmos_sdtm:shortName "Systolic BP-for-Age Percentile" ;
    cosmos_sdtm:source "VS.VSTESTCD" ;
    cosmos_sdtm:variables <https://w3id.org/cdisc/cosmos/dss/VS/SBPAPCTL/VSDTC>,
        <https://w3id.org/cdisc/cosmos/dss/VS/SBPAPCTL/VSORRES>,
        <https://w3id.org/cdisc/cosmos/dss/VS/SBPAPCTL/VSSTRESC>,
        <https://w3id.org/cdisc/cosmos/dss/VS/SBPAPCTL/VSSTRESN>,
        <https://w3id.org/cdisc/cosmos/dss/VS/SBPAPCTL/VSTEST>,
        <https://w3id.org/cdisc/cosmos/dss/VS/SBPAPCTL/VSTESTCD> .

<https://w3id.org/cdisc/cosmos/dss/VS/SBPHPCTL> a cosmos_sdtm:SDTMGroup ;
    dcterms:identifier "SBPHPCTL" ;
    rdf:_1 <https://w3id.org/cdisc/cosmos/dss/VS/SBPHPCTL/VSTESTCD> ;
    rdf:_2 <https://w3id.org/cdisc/cosmos/dss/VS/SBPHPCTL/VSTEST> ;
    rdf:_3 <https://w3id.org/cdisc/cosmos/dss/VS/SBPHPCTL/VSORRES> ;
    rdf:_4 <https://w3id.org/cdisc/cosmos/dss/VS/SBPHPCTL/VSSTRESC> ;
    rdf:_5 <https://w3id.org/cdisc/cosmos/dss/VS/SBPHPCTL/VSSTRESN> ;
    rdf:_6 <https://w3id.org/cdisc/cosmos/dss/VS/SBPHPCTL/VSDTC> ;
    cosmos_sdtm:biomedicalConceptId NCIT:C172607 ;
    cosmos_sdtm:domain "VS" ;
    cosmos_sdtm:packageDate "2026-05-26"^^xsd:date ;
    cosmos_sdtm:packageType <https://www.cdisc.org/cosmos/sdtm_v1.0/PackageTypeEnum#sdtm> ;
    cosmos_sdtm:sdtmigStartVersion "3-2" ;
    cosmos_sdtm:shortName "Systolic BP-for-Height Percentile" ;
    cosmos_sdtm:source "VS.VSTESTCD" ;
    cosmos_sdtm:variables <https://w3id.org/cdisc/cosmos/dss/VS/SBPHPCTL/VSDTC>,
        <https://w3id.org/cdisc/cosmos/dss/VS/SBPHPCTL/VSORRES>,
        <https://w3id.org/cdisc/cosmos/dss/VS/SBPHPCTL/VSSTRESC>,
        <https://w3id.org/cdisc/cosmos/dss/VS/SBPHPCTL/VSSTRESN>,
        <https://w3id.org/cdisc/cosmos/dss/VS/SBPHPCTL/VSTEST>,
        <https://w3id.org/cdisc/cosmos/dss/VS/SBPHPCTL/VSTESTCD> .

<https://w3id.org/cdisc/cosmos/dss/VS/SSSKNF> a cosmos_sdtm:SDTMGroup ;
    dcterms:identifier "SSSKNF" ;
    rdf:_1 <https://w3id.org/cdisc/cosmos/dss/VS/SSSKNF/VSTESTCD> ;
    rdf:_2 <https://w3id.org/cdisc/cosmos/dss/VS/SSSKNF/VSTEST> ;
    rdf:_3 <https://w3id.org/cdisc/cosmos/dss/VS/SSSKNF/VSORRES> ;
    rdf:_4 <https://w3id.org/cdisc/cosmos/dss/VS/SSSKNF/VSORRESU> ;
    rdf:_5 <https://w3id.org/cdisc/cosmos/dss/VS/SSSKNF/VSSTRESC> ;
    rdf:_6 <https://w3id.org/cdisc/cosmos/dss/VS/SSSKNF/VSSTRESN> ;
    rdf:_7 <https://w3id.org/cdisc/cosmos/dss/VS/SSSKNF/VSSTRESU> ;
    rdf:_8 <https://w3id.org/cdisc/cosmos/dss/VS/SSSKNF/VSDTC> ;
    cosmos_sdtm:biomedicalConceptId NCIT:C98785 ;
    cosmos_sdtm:domain "VS" ;
    cosmos_sdtm:packageDate "2026-05-26"^^xsd:date ;
    cosmos_sdtm:packageType <https://www.cdisc.org/cosmos/sdtm_v1.0/PackageTypeEnum#sdtm> ;
    cosmos_sdtm:sdtmigStartVersion "3-2" ;
    cosmos_sdtm:shortName "Subscapular Skinfold Thickness" ;
    cosmos_sdtm:source "VS.VSTESTCD" ;
    cosmos_sdtm:variables <https://w3id.org/cdisc/cosmos/dss/VS/SSSKNF/VSDTC>,
        <https://w3id.org/cdisc/cosmos/dss/VS/SSSKNF/VSORRES>,
        <https://w3id.org/cdisc/cosmos/dss/VS/SSSKNF/VSORRESU>,
        <https://w3id.org/cdisc/cosmos/dss/VS/SSSKNF/VSSTRESC>,
        <https://w3id.org/cdisc/cosmos/dss/VS/SSSKNF/VSSTRESN>,
        <https://w3id.org/cdisc/cosmos/dss/VS/SSSKNF/VSSTRESU>,
        <https://w3id.org/cdisc/cosmos/dss/VS/SSSKNF/VSTEST>,
        <https://w3id.org/cdisc/cosmos/dss/VS/SSSKNF/VSTESTCD> .

<https://w3id.org/cdisc/cosmos/dss/VS/SYSBP> a cosmos_sdtm:SDTMGroup ;
    dcterms:identifier "SYSBP" ;
    rdf:_1 <https://w3id.org/cdisc/cosmos/dss/VS/SYSBP/VSTESTCD> ;
    rdf:_10 <https://w3id.org/cdisc/cosmos/dss/VS/SYSBP/VSLAT> ;
    rdf:_11 <https://w3id.org/cdisc/cosmos/dss/VS/SYSBP/VSDTC> ;
    rdf:_2 <https://w3id.org/cdisc/cosmos/dss/VS/SYSBP/VSTEST> ;
    rdf:_3 <https://w3id.org/cdisc/cosmos/dss/VS/SYSBP/VSORRES> ;
    rdf:_4 <https://w3id.org/cdisc/cosmos/dss/VS/SYSBP/VSORRESU> ;
    rdf:_5 <https://w3id.org/cdisc/cosmos/dss/VS/SYSBP/VSSTRESC> ;
    rdf:_6 <https://w3id.org/cdisc/cosmos/dss/VS/SYSBP/VSSTRESN> ;
    rdf:_7 <https://w3id.org/cdisc/cosmos/dss/VS/SYSBP/VSSTRESU> ;
    rdf:_8 <https://w3id.org/cdisc/cosmos/dss/VS/SYSBP/VSPOS> ;
    rdf:_9 <https://w3id.org/cdisc/cosmos/dss/VS/SYSBP/VSLOC> ;
    cosmos_sdtm:biomedicalConceptId NCIT:C25298 ;
    cosmos_sdtm:domain "VS" ;
    cosmos_sdtm:packageDate "2026-05-26"^^xsd:date ;
    cosmos_sdtm:packageType <https://www.cdisc.org/cosmos/sdtm_v1.0/PackageTypeEnum#sdtm> ;
    cosmos_sdtm:sdtmigStartVersion "3-2" ;
    cosmos_sdtm:shortName "Systolic Blood Pressure" ;
    cosmos_sdtm:source "VS.VSTESTCD" ;
    cosmos_sdtm:variables <https://w3id.org/cdisc/cosmos/dss/VS/SYSBP/VSDTC>,
        <https://w3id.org/cdisc/cosmos/dss/VS/SYSBP/VSLAT>,
        <https://w3id.org/cdisc/cosmos/dss/VS/SYSBP/VSLOC>,
        <https://w3id.org/cdisc/cosmos/dss/VS/SYSBP/VSORRES>,
        <https://w3id.org/cdisc/cosmos/dss/VS/SYSBP/VSORRESU>,
        <https://w3id.org/cdisc/cosmos/dss/VS/SYSBP/VSPOS>,
        <https://w3id.org/cdisc/cosmos/dss/VS/SYSBP/VSSTRESC>,
        <https://w3id.org/cdisc/cosmos/dss/VS/SYSBP/VSSTRESN>,
        <https://w3id.org/cdisc/cosmos/dss/VS/SYSBP/VSSTRESU>,
        <https://w3id.org/cdisc/cosmos/dss/VS/SYSBP/VSTEST>,
        <https://w3id.org/cdisc/cosmos/dss/VS/SYSBP/VSTESTCD> .

<https://w3id.org/cdisc/cosmos/dss/VS/SYSBP_EXT> a cosmos_sdtm:SDTMGroup ;
    dcterms:identifier "SYSBP_EXT" ;
    rdf:_1 <https://w3id.org/cdisc/cosmos/dss/VS/SYSBP_EXT/VSTESTCD> ;
    rdf:_10 <https://w3id.org/cdisc/cosmos/dss/VS/SYSBP_EXT/VSLAT> ;
    rdf:_11 <https://w3id.org/cdisc/cosmos/dss/VS/SYSBP_EXT/VSDTC> ;
    rdf:_2 <https://w3id.org/cdisc/cosmos/dss/VS/SYSBP_EXT/VSTEST> ;
    rdf:_3 <https://w3id.org/cdisc/cosmos/dss/VS/SYSBP_EXT/VSORRES> ;
    rdf:_4 <https://w3id.org/cdisc/cosmos/dss/VS/SYSBP_EXT/VSORRESU> ;
    rdf:_5 <https://w3id.org/cdisc/cosmos/dss/VS/SYSBP_EXT/VSSTRESC> ;
    rdf:_6 <https://w3id.org/cdisc/cosmos/dss/VS/SYSBP_EXT/VSSTRESN> ;
    rdf:_7 <https://w3id.org/cdisc/cosmos/dss/VS/SYSBP_EXT/VSSTRESU> ;
    rdf:_8 <https://w3id.org/cdisc/cosmos/dss/VS/SYSBP_EXT/VSPOS> ;
    rdf:_9 <https://w3id.org/cdisc/cosmos/dss/VS/SYSBP_EXT/VSLOC> ;
    cosmos_sdtm:biomedicalConceptId NCIT:C25298 ;
    cosmos_sdtm:domain "VS" ;
    cosmos_sdtm:packageDate "2026-05-26"^^xsd:date ;
    cosmos_sdtm:packageType <https://www.cdisc.org/cosmos/sdtm_v1.0/PackageTypeEnum#sdtm> ;
    cosmos_sdtm:sdtmigStartVersion "3-2" ;
    cosmos_sdtm:shortName "Systolic Blood Pressure Extended" ;
    cosmos_sdtm:source "VS.VSTESTCD" ;
    cosmos_sdtm:variables <https://w3id.org/cdisc/cosmos/dss/VS/SYSBP_EXT/VSDTC>,
        <https://w3id.org/cdisc/cosmos/dss/VS/SYSBP_EXT/VSLAT>,
        <https://w3id.org/cdisc/cosmos/dss/VS/SYSBP_EXT/VSLOC>,
        <https://w3id.org/cdisc/cosmos/dss/VS/SYSBP_EXT/VSORRES>,
        <https://w3id.org/cdisc/cosmos/dss/VS/SYSBP_EXT/VSORRESU>,
        <https://w3id.org/cdisc/cosmos/dss/VS/SYSBP_EXT/VSPOS>,
        <https://w3id.org/cdisc/cosmos/dss/VS/SYSBP_EXT/VSSTRESC>,
        <https://w3id.org/cdisc/cosmos/dss/VS/SYSBP_EXT/VSSTRESN>,
        <https://w3id.org/cdisc/cosmos/dss/VS/SYSBP_EXT/VSSTRESU>,
        <https://w3id.org/cdisc/cosmos/dss/VS/SYSBP_EXT/VSTEST>,
        <https://w3id.org/cdisc/cosmos/dss/VS/SYSBP_EXT/VSTESTCD> .

<https://w3id.org/cdisc/cosmos/dss/VS/TBW> a cosmos_sdtm:SDTMGroup ;
    dcterms:identifier "TBW" ;
    rdf:_1 <https://w3id.org/cdisc/cosmos/dss/VS/TBW/VSTESTCD> ;
    rdf:_2 <https://w3id.org/cdisc/cosmos/dss/VS/TBW/VSTEST> ;
    rdf:_3 <https://w3id.org/cdisc/cosmos/dss/VS/TBW/VSORRES> ;
    rdf:_4 <https://w3id.org/cdisc/cosmos/dss/VS/TBW/VSORRESU> ;
    rdf:_5 <https://w3id.org/cdisc/cosmos/dss/VS/TBW/VSSTRESC> ;
    rdf:_6 <https://w3id.org/cdisc/cosmos/dss/VS/TBW/VSSTRESN> ;
    rdf:_7 <https://w3id.org/cdisc/cosmos/dss/VS/TBW/VSSTRESU> ;
    rdf:_8 <https://w3id.org/cdisc/cosmos/dss/VS/TBW/VSDTC> ;
    cosmos_sdtm:biomedicalConceptId NCIT:C104622 ;
    cosmos_sdtm:domain "VS" ;
    cosmos_sdtm:packageDate "2026-05-26"^^xsd:date ;
    cosmos_sdtm:packageType <https://www.cdisc.org/cosmos/sdtm_v1.0/PackageTypeEnum#sdtm> ;
    cosmos_sdtm:sdtmigStartVersion "3-2" ;
    cosmos_sdtm:shortName "Total Body Water" ;
    cosmos_sdtm:source "VS.VSTESTCD" ;
    cosmos_sdtm:variables <https://w3id.org/cdisc/cosmos/dss/VS/TBW/VSDTC>,
        <https://w3id.org/cdisc/cosmos/dss/VS/TBW/VSORRES>,
        <https://w3id.org/cdisc/cosmos/dss/VS/TBW/VSORRESU>,
        <https://w3id.org/cdisc/cosmos/dss/VS/TBW/VSSTRESC>,
        <https://w3id.org/cdisc/cosmos/dss/VS/TBW/VSSTRESN>,
        <https://w3id.org/cdisc/cosmos/dss/VS/TBW/VSSTRESU>,
        <https://w3id.org/cdisc/cosmos/dss/VS/TBW/VSTEST>,
        <https://w3id.org/cdisc/cosmos/dss/VS/TBW/VSTESTCD> .

<https://w3id.org/cdisc/cosmos/dss/VS/TEMP> a cosmos_sdtm:SDTMGroup ;
    dcterms:identifier "TEMP" ;
    rdf:_1 <https://w3id.org/cdisc/cosmos/dss/VS/TEMP/VSTESTCD> ;
    rdf:_2 <https://w3id.org/cdisc/cosmos/dss/VS/TEMP/VSTEST> ;
    rdf:_3 <https://w3id.org/cdisc/cosmos/dss/VS/TEMP/VSORRES> ;
    rdf:_4 <https://w3id.org/cdisc/cosmos/dss/VS/TEMP/VSORRESU> ;
    rdf:_5 <https://w3id.org/cdisc/cosmos/dss/VS/TEMP/VSSTRESC> ;
    rdf:_6 <https://w3id.org/cdisc/cosmos/dss/VS/TEMP/VSSTRESN> ;
    rdf:_7 <https://w3id.org/cdisc/cosmos/dss/VS/TEMP/VSSTRESU> ;
    rdf:_8 <https://w3id.org/cdisc/cosmos/dss/VS/TEMP/VSLOC> ;
    rdf:_9 <https://w3id.org/cdisc/cosmos/dss/VS/TEMP/VSDTC> ;
    cosmos_sdtm:biomedicalConceptId NCIT:C174446 ;
    cosmos_sdtm:domain "VS" ;
    cosmos_sdtm:packageDate "2026-05-26"^^xsd:date ;
    cosmos_sdtm:packageType <https://www.cdisc.org/cosmos/sdtm_v1.0/PackageTypeEnum#sdtm> ;
    cosmos_sdtm:sdtmigStartVersion "3-2" ;
    cosmos_sdtm:shortName "Temperature" ;
    cosmos_sdtm:source "VS.VSTESTCD" ;
    cosmos_sdtm:variables <https://w3id.org/cdisc/cosmos/dss/VS/TEMP/VSDTC>,
        <https://w3id.org/cdisc/cosmos/dss/VS/TEMP/VSLOC>,
        <https://w3id.org/cdisc/cosmos/dss/VS/TEMP/VSORRES>,
        <https://w3id.org/cdisc/cosmos/dss/VS/TEMP/VSORRESU>,
        <https://w3id.org/cdisc/cosmos/dss/VS/TEMP/VSSTRESC>,
        <https://w3id.org/cdisc/cosmos/dss/VS/TEMP/VSSTRESN>,
        <https://w3id.org/cdisc/cosmos/dss/VS/TEMP/VSSTRESU>,
        <https://w3id.org/cdisc/cosmos/dss/VS/TEMP/VSTEST>,
        <https://w3id.org/cdisc/cosmos/dss/VS/TEMP/VSTESTCD> .

<https://w3id.org/cdisc/cosmos/dss/VS/TEMPCB> a cosmos_sdtm:SDTMGroup ;
    dcterms:identifier "TEMPCB" ;
    rdf:_1 <https://w3id.org/cdisc/cosmos/dss/VS/TEMPCB/VSTESTCD> ;
    rdf:_2 <https://w3id.org/cdisc/cosmos/dss/VS/TEMPCB/VSTEST> ;
    rdf:_3 <https://w3id.org/cdisc/cosmos/dss/VS/TEMPCB/VSORRES> ;
    rdf:_4 <https://w3id.org/cdisc/cosmos/dss/VS/TEMPCB/VSORRESU> ;
    rdf:_5 <https://w3id.org/cdisc/cosmos/dss/VS/TEMPCB/VSSTRESC> ;
    rdf:_6 <https://w3id.org/cdisc/cosmos/dss/VS/TEMPCB/VSSTRESN> ;
    rdf:_7 <https://w3id.org/cdisc/cosmos/dss/VS/TEMPCB/VSSTRESU> ;
    rdf:_8 <https://w3id.org/cdisc/cosmos/dss/VS/TEMPCB/VSLOC> ;
    rdf:_9 <https://w3id.org/cdisc/cosmos/dss/VS/TEMPCB/VSDTC> ;
    cosmos_sdtm:biomedicalConceptId NCIT:C174370 ;
    cosmos_sdtm:domain "VS" ;
    cosmos_sdtm:packageDate "2026-05-26"^^xsd:date ;
    cosmos_sdtm:packageType <https://www.cdisc.org/cosmos/sdtm_v1.0/PackageTypeEnum#sdtm> ;
    cosmos_sdtm:sdtmigStartVersion "3-2" ;
    cosmos_sdtm:shortName "Core Body Temperature" ;
    cosmos_sdtm:source "VS.VSTESTCD" ;
    cosmos_sdtm:variables <https://w3id.org/cdisc/cosmos/dss/VS/TEMPCB/VSDTC>,
        <https://w3id.org/cdisc/cosmos/dss/VS/TEMPCB/VSLOC>,
        <https://w3id.org/cdisc/cosmos/dss/VS/TEMPCB/VSORRES>,
        <https://w3id.org/cdisc/cosmos/dss/VS/TEMPCB/VSORRESU>,
        <https://w3id.org/cdisc/cosmos/dss/VS/TEMPCB/VSSTRESC>,
        <https://w3id.org/cdisc/cosmos/dss/VS/TEMPCB/VSSTRESN>,
        <https://w3id.org/cdisc/cosmos/dss/VS/TEMPCB/VSSTRESU>,
        <https://w3id.org/cdisc/cosmos/dss/VS/TEMPCB/VSTEST>,
        <https://w3id.org/cdisc/cosmos/dss/VS/TEMPCB/VSTESTCD> .

<https://w3id.org/cdisc/cosmos/dss/VS/TEMPPB> a cosmos_sdtm:SDTMGroup ;
    dcterms:identifier "TEMPPB" ;
    rdf:_1 <https://w3id.org/cdisc/cosmos/dss/VS/TEMPPB/VSTESTCD> ;
    rdf:_2 <https://w3id.org/cdisc/cosmos/dss/VS/TEMPPB/VSTEST> ;
    rdf:_3 <https://w3id.org/cdisc/cosmos/dss/VS/TEMPPB/VSORRES> ;
    rdf:_4 <https://w3id.org/cdisc/cosmos/dss/VS/TEMPPB/VSORRESU> ;
    rdf:_5 <https://w3id.org/cdisc/cosmos/dss/VS/TEMPPB/VSSTRESC> ;
    rdf:_6 <https://w3id.org/cdisc/cosmos/dss/VS/TEMPPB/VSSTRESN> ;
    rdf:_7 <https://w3id.org/cdisc/cosmos/dss/VS/TEMPPB/VSSTRESU> ;
    rdf:_8 <https://w3id.org/cdisc/cosmos/dss/VS/TEMPPB/VSLOC> ;
    rdf:_9 <https://w3id.org/cdisc/cosmos/dss/VS/TEMPPB/VSDTC> ;
    cosmos_sdtm:biomedicalConceptId NCIT:C174371 ;
    cosmos_sdtm:domain "VS" ;
    cosmos_sdtm:packageDate "2026-05-26"^^xsd:date ;
    cosmos_sdtm:packageType <https://www.cdisc.org/cosmos/sdtm_v1.0/PackageTypeEnum#sdtm> ;
    cosmos_sdtm:sdtmigStartVersion "3-2" ;
    cosmos_sdtm:shortName "Peripheral Body Temperature" ;
    cosmos_sdtm:source "VS.VSTESTCD" ;
    cosmos_sdtm:variables <https://w3id.org/cdisc/cosmos/dss/VS/TEMPPB/VSDTC>,
        <https://w3id.org/cdisc/cosmos/dss/VS/TEMPPB/VSLOC>,
        <https://w3id.org/cdisc/cosmos/dss/VS/TEMPPB/VSORRES>,
        <https://w3id.org/cdisc/cosmos/dss/VS/TEMPPB/VSORRESU>,
        <https://w3id.org/cdisc/cosmos/dss/VS/TEMPPB/VSSTRESC>,
        <https://w3id.org/cdisc/cosmos/dss/VS/TEMPPB/VSSTRESN>,
        <https://w3id.org/cdisc/cosmos/dss/VS/TEMPPB/VSSTRESU>,
        <https://w3id.org/cdisc/cosmos/dss/VS/TEMPPB/VSTEST>,
        <https://w3id.org/cdisc/cosmos/dss/VS/TEMPPB/VSTESTCD> .

<https://w3id.org/cdisc/cosmos/dss/VS/TIBIAL> a cosmos_sdtm:SDTMGroup ;
    dcterms:identifier "TIBIAL" ;
    rdf:_1 <https://w3id.org/cdisc/cosmos/dss/VS/TIBIAL/VSTESTCD> ;
    rdf:_2 <https://w3id.org/cdisc/cosmos/dss/VS/TIBIAL/VSTEST> ;
    rdf:_3 <https://w3id.org/cdisc/cosmos/dss/VS/TIBIAL/VSORRES> ;
    rdf:_4 <https://w3id.org/cdisc/cosmos/dss/VS/TIBIAL/VSORRESU> ;
    rdf:_5 <https://w3id.org/cdisc/cosmos/dss/VS/TIBIAL/VSSTRESC> ;
    rdf:_6 <https://w3id.org/cdisc/cosmos/dss/VS/TIBIAL/VSSTRESN> ;
    rdf:_7 <https://w3id.org/cdisc/cosmos/dss/VS/TIBIAL/VSSTRESU> ;
    rdf:_8 <https://w3id.org/cdisc/cosmos/dss/VS/TIBIAL/VSDTC> ;
    cosmos_sdtm:biomedicalConceptId NCIT:C191365 ;
    cosmos_sdtm:domain "VS" ;
    cosmos_sdtm:packageDate "2026-05-26"^^xsd:date ;
    cosmos_sdtm:packageType <https://www.cdisc.org/cosmos/sdtm_v1.0/PackageTypeEnum#sdtm> ;
    cosmos_sdtm:sdtmigStartVersion "3-2" ;
    cosmos_sdtm:shortName "Tibial Length" ;
    cosmos_sdtm:source "VS.VSTESTCD" ;
    cosmos_sdtm:variables <https://w3id.org/cdisc/cosmos/dss/VS/TIBIAL/VSDTC>,
        <https://w3id.org/cdisc/cosmos/dss/VS/TIBIAL/VSORRES>,
        <https://w3id.org/cdisc/cosmos/dss/VS/TIBIAL/VSORRESU>,
        <https://w3id.org/cdisc/cosmos/dss/VS/TIBIAL/VSSTRESC>,
        <https://w3id.org/cdisc/cosmos/dss/VS/TIBIAL/VSSTRESN>,
        <https://w3id.org/cdisc/cosmos/dss/VS/TIBIAL/VSSTRESU>,
        <https://w3id.org/cdisc/cosmos/dss/VS/TIBIAL/VSTEST>,
        <https://w3id.org/cdisc/cosmos/dss/VS/TIBIAL/VSTESTCD> .

<https://w3id.org/cdisc/cosmos/dss/VS/TRSKNF> a cosmos_sdtm:SDTMGroup ;
    dcterms:identifier "TRSKNF" ;
    rdf:_1 <https://w3id.org/cdisc/cosmos/dss/VS/TRSKNF/VSTESTCD> ;
    rdf:_2 <https://w3id.org/cdisc/cosmos/dss/VS/TRSKNF/VSTEST> ;
    rdf:_3 <https://w3id.org/cdisc/cosmos/dss/VS/TRSKNF/VSORRES> ;
    rdf:_4 <https://w3id.org/cdisc/cosmos/dss/VS/TRSKNF/VSORRESU> ;
    rdf:_5 <https://w3id.org/cdisc/cosmos/dss/VS/TRSKNF/VSSTRESC> ;
    rdf:_6 <https://w3id.org/cdisc/cosmos/dss/VS/TRSKNF/VSSTRESN> ;
    rdf:_7 <https://w3id.org/cdisc/cosmos/dss/VS/TRSKNF/VSSTRESU> ;
    rdf:_8 <https://w3id.org/cdisc/cosmos/dss/VS/TRSKNF/VSDTC> ;
    cosmos_sdtm:biomedicalConceptId NCIT:C98793 ;
    cosmos_sdtm:domain "VS" ;
    cosmos_sdtm:packageDate "2026-05-26"^^xsd:date ;
    cosmos_sdtm:packageType <https://www.cdisc.org/cosmos/sdtm_v1.0/PackageTypeEnum#sdtm> ;
    cosmos_sdtm:sdtmigStartVersion "3-2" ;
    cosmos_sdtm:shortName "Triceps Skinfold Thickness" ;
    cosmos_sdtm:source "VS.VSTESTCD" ;
    cosmos_sdtm:variables <https://w3id.org/cdisc/cosmos/dss/VS/TRSKNF/VSDTC>,
        <https://w3id.org/cdisc/cosmos/dss/VS/TRSKNF/VSORRES>,
        <https://w3id.org/cdisc/cosmos/dss/VS/TRSKNF/VSORRESU>,
        <https://w3id.org/cdisc/cosmos/dss/VS/TRSKNF/VSSTRESC>,
        <https://w3id.org/cdisc/cosmos/dss/VS/TRSKNF/VSSTRESN>,
        <https://w3id.org/cdisc/cosmos/dss/VS/TRSKNF/VSSTRESU>,
        <https://w3id.org/cdisc/cosmos/dss/VS/TRSKNF/VSTEST>,
        <https://w3id.org/cdisc/cosmos/dss/VS/TRSKNF/VSTESTCD> .

<https://w3id.org/cdisc/cosmos/dss/VS/ULNARL> a cosmos_sdtm:SDTMGroup ;
    dcterms:identifier "ULNARL" ;
    rdf:_1 <https://w3id.org/cdisc/cosmos/dss/VS/ULNARL/VSTESTCD> ;
    rdf:_2 <https://w3id.org/cdisc/cosmos/dss/VS/ULNARL/VSTEST> ;
    rdf:_3 <https://w3id.org/cdisc/cosmos/dss/VS/ULNARL/VSORRES> ;
    rdf:_4 <https://w3id.org/cdisc/cosmos/dss/VS/ULNARL/VSORRESU> ;
    rdf:_5 <https://w3id.org/cdisc/cosmos/dss/VS/ULNARL/VSSTRESC> ;
    rdf:_6 <https://w3id.org/cdisc/cosmos/dss/VS/ULNARL/VSSTRESN> ;
    rdf:_7 <https://w3id.org/cdisc/cosmos/dss/VS/ULNARL/VSSTRESU> ;
    rdf:_8 <https://w3id.org/cdisc/cosmos/dss/VS/ULNARL/VSDTC> ;
    cosmos_sdtm:biomedicalConceptId NCIT:C174376 ;
    cosmos_sdtm:domain "VS" ;
    cosmos_sdtm:packageDate "2026-05-26"^^xsd:date ;
    cosmos_sdtm:packageType <https://www.cdisc.org/cosmos/sdtm_v1.0/PackageTypeEnum#sdtm> ;
    cosmos_sdtm:sdtmigStartVersion "3-2" ;
    cosmos_sdtm:shortName "Ulnar Length" ;
    cosmos_sdtm:source "VS.VSTESTCD" ;
    cosmos_sdtm:variables <https://w3id.org/cdisc/cosmos/dss/VS/ULNARL/VSDTC>,
        <https://w3id.org/cdisc/cosmos/dss/VS/ULNARL/VSORRES>,
        <https://w3id.org/cdisc/cosmos/dss/VS/ULNARL/VSORRESU>,
        <https://w3id.org/cdisc/cosmos/dss/VS/ULNARL/VSSTRESC>,
        <https://w3id.org/cdisc/cosmos/dss/VS/ULNARL/VSSTRESN>,
        <https://w3id.org/cdisc/cosmos/dss/VS/ULNARL/VSSTRESU>,
        <https://w3id.org/cdisc/cosmos/dss/VS/ULNARL/VSTEST>,
        <https://w3id.org/cdisc/cosmos/dss/VS/ULNARL/VSTESTCD> .

<https://w3id.org/cdisc/cosmos/dss/VS/WAISTHIP> a cosmos_sdtm:SDTMGroup ;
    dcterms:identifier "WAISTHIP" ;
    rdf:_1 <https://w3id.org/cdisc/cosmos/dss/VS/WAISTHIP/VSTESTCD> ;
    rdf:_2 <https://w3id.org/cdisc/cosmos/dss/VS/WAISTHIP/VSTEST> ;
    rdf:_3 <https://w3id.org/cdisc/cosmos/dss/VS/WAISTHIP/VSORRES> ;
    rdf:_4 <https://w3id.org/cdisc/cosmos/dss/VS/WAISTHIP/VSORRESU> ;
    rdf:_5 <https://w3id.org/cdisc/cosmos/dss/VS/WAISTHIP/VSSTRESC> ;
    rdf:_6 <https://w3id.org/cdisc/cosmos/dss/VS/WAISTHIP/VSSTRESN> ;
    rdf:_7 <https://w3id.org/cdisc/cosmos/dss/VS/WAISTHIP/VSSTRESU> ;
    rdf:_8 <https://w3id.org/cdisc/cosmos/dss/VS/WAISTHIP/VSDTC> ;
    cosmos_sdtm:biomedicalConceptId NCIT:C17651 ;
    cosmos_sdtm:domain "VS" ;
    cosmos_sdtm:packageDate "2026-05-26"^^xsd:date ;
    cosmos_sdtm:packageType <https://www.cdisc.org/cosmos/sdtm_v1.0/PackageTypeEnum#sdtm> ;
    cosmos_sdtm:sdtmigStartVersion "3-2" ;
    cosmos_sdtm:shortName "Waist to Hip Ratio" ;
    cosmos_sdtm:source "VS.VSTESTCD" ;
    cosmos_sdtm:variables <https://w3id.org/cdisc/cosmos/dss/VS/WAISTHIP/VSDTC>,
        <https://w3id.org/cdisc/cosmos/dss/VS/WAISTHIP/VSORRES>,
        <https://w3id.org/cdisc/cosmos/dss/VS/WAISTHIP/VSORRESU>,
        <https://w3id.org/cdisc/cosmos/dss/VS/WAISTHIP/VSSTRESC>,
        <https://w3id.org/cdisc/cosmos/dss/VS/WAISTHIP/VSSTRESN>,
        <https://w3id.org/cdisc/cosmos/dss/VS/WAISTHIP/VSSTRESU>,
        <https://w3id.org/cdisc/cosmos/dss/VS/WAISTHIP/VSTEST>,
        <https://w3id.org/cdisc/cosmos/dss/VS/WAISTHIP/VSTESTCD> .

<https://w3id.org/cdisc/cosmos/dss/VS/WASTHEEL> a cosmos_sdtm:SDTMGroup ;
    dcterms:identifier "WASTHEEL" ;
    rdf:_1 <https://w3id.org/cdisc/cosmos/dss/VS/WASTHEEL/VSTESTCD> ;
    rdf:_2 <https://w3id.org/cdisc/cosmos/dss/VS/WASTHEEL/VSTEST> ;
    rdf:_3 <https://w3id.org/cdisc/cosmos/dss/VS/WASTHEEL/VSORRES> ;
    rdf:_4 <https://w3id.org/cdisc/cosmos/dss/VS/WASTHEEL/VSORRESU> ;
    rdf:_5 <https://w3id.org/cdisc/cosmos/dss/VS/WASTHEEL/VSSTRESC> ;
    rdf:_6 <https://w3id.org/cdisc/cosmos/dss/VS/WASTHEEL/VSSTRESN> ;
    rdf:_7 <https://w3id.org/cdisc/cosmos/dss/VS/WASTHEEL/VSSTRESU> ;
    rdf:_8 <https://w3id.org/cdisc/cosmos/dss/VS/WASTHEEL/VSDTC> ;
    cosmos_sdtm:biomedicalConceptId NCIT:C181552 ;
    cosmos_sdtm:domain "VS" ;
    cosmos_sdtm:packageDate "2026-05-26"^^xsd:date ;
    cosmos_sdtm:packageType <https://www.cdisc.org/cosmos/sdtm_v1.0/PackageTypeEnum#sdtm> ;
    cosmos_sdtm:sdtmigStartVersion "3-2" ;
    cosmos_sdtm:shortName "Waist to Heel Length" ;
    cosmos_sdtm:source "VS.VSTESTCD" ;
    cosmos_sdtm:variables <https://w3id.org/cdisc/cosmos/dss/VS/WASTHEEL/VSDTC>,
        <https://w3id.org/cdisc/cosmos/dss/VS/WASTHEEL/VSORRES>,
        <https://w3id.org/cdisc/cosmos/dss/VS/WASTHEEL/VSORRESU>,
        <https://w3id.org/cdisc/cosmos/dss/VS/WASTHEEL/VSSTRESC>,
        <https://w3id.org/cdisc/cosmos/dss/VS/WASTHEEL/VSSTRESN>,
        <https://w3id.org/cdisc/cosmos/dss/VS/WASTHEEL/VSSTRESU>,
        <https://w3id.org/cdisc/cosmos/dss/VS/WASTHEEL/VSTEST>,
        <https://w3id.org/cdisc/cosmos/dss/VS/WASTHEEL/VSTESTCD> .

<https://w3id.org/cdisc/cosmos/dss/VS/WEIGHT> a cosmos_sdtm:SDTMGroup ;
    dcterms:identifier "WEIGHT" ;
    rdf:_1 <https://w3id.org/cdisc/cosmos/dss/VS/WEIGHT/VSTESTCD> ;
    rdf:_2 <https://w3id.org/cdisc/cosmos/dss/VS/WEIGHT/VSTEST> ;
    rdf:_3 <https://w3id.org/cdisc/cosmos/dss/VS/WEIGHT/VSORRES> ;
    rdf:_4 <https://w3id.org/cdisc/cosmos/dss/VS/WEIGHT/VSORRESU> ;
    rdf:_5 <https://w3id.org/cdisc/cosmos/dss/VS/WEIGHT/VSSTRESC> ;
    rdf:_6 <https://w3id.org/cdisc/cosmos/dss/VS/WEIGHT/VSSTRESN> ;
    rdf:_7 <https://w3id.org/cdisc/cosmos/dss/VS/WEIGHT/VSSTRESU> ;
    rdf:_8 <https://w3id.org/cdisc/cosmos/dss/VS/WEIGHT/VSDTC> ;
    cosmos_sdtm:biomedicalConceptId NCIT:C81328 ;
    cosmos_sdtm:domain "VS" ;
    cosmos_sdtm:packageDate "2026-05-26"^^xsd:date ;
    cosmos_sdtm:packageType <https://www.cdisc.org/cosmos/sdtm_v1.0/PackageTypeEnum#sdtm> ;
    cosmos_sdtm:sdtmigStartVersion "3-2" ;
    cosmos_sdtm:shortName "Weight" ;
    cosmos_sdtm:source "VS.VSTESTCD" ;
    cosmos_sdtm:variables <https://w3id.org/cdisc/cosmos/dss/VS/WEIGHT/VSDTC>,
        <https://w3id.org/cdisc/cosmos/dss/VS/WEIGHT/VSORRES>,
        <https://w3id.org/cdisc/cosmos/dss/VS/WEIGHT/VSORRESU>,
        <https://w3id.org/cdisc/cosmos/dss/VS/WEIGHT/VSSTRESC>,
        <https://w3id.org/cdisc/cosmos/dss/VS/WEIGHT/VSSTRESN>,
        <https://w3id.org/cdisc/cosmos/dss/VS/WEIGHT/VSSTRESU>,
        <https://w3id.org/cdisc/cosmos/dss/VS/WEIGHT/VSTEST>,
        <https://w3id.org/cdisc/cosmos/dss/VS/WEIGHT/VSTESTCD> .

<https://w3id.org/cdisc/cosmos/dss/VS/WSTCIR> a cosmos_sdtm:SDTMGroup ;
    dcterms:identifier "WSTCIR" ;
    rdf:_1 <https://w3id.org/cdisc/cosmos/dss/VS/WSTCIR/VSTESTCD> ;
    rdf:_2 <https://w3id.org/cdisc/cosmos/dss/VS/WSTCIR/VSTEST> ;
    rdf:_3 <https://w3id.org/cdisc/cosmos/dss/VS/WSTCIR/VSORRES> ;
    rdf:_4 <https://w3id.org/cdisc/cosmos/dss/VS/WSTCIR/VSORRESU> ;
    rdf:_5 <https://w3id.org/cdisc/cosmos/dss/VS/WSTCIR/VSSTRESC> ;
    rdf:_6 <https://w3id.org/cdisc/cosmos/dss/VS/WSTCIR/VSSTRESN> ;
    rdf:_7 <https://w3id.org/cdisc/cosmos/dss/VS/WSTCIR/VSSTRESU> ;
    rdf:_8 <https://w3id.org/cdisc/cosmos/dss/VS/WSTCIR/VSLOC> ;
    rdf:_9 <https://w3id.org/cdisc/cosmos/dss/VS/WSTCIR/VSDTC> ;
    cosmos_sdtm:biomedicalConceptId NCIT:C100948 ;
    cosmos_sdtm:domain "VS" ;
    cosmos_sdtm:packageDate "2026-05-26"^^xsd:date ;
    cosmos_sdtm:packageType <https://www.cdisc.org/cosmos/sdtm_v1.0/PackageTypeEnum#sdtm> ;
    cosmos_sdtm:sdtmigStartVersion "3-2" ;
    cosmos_sdtm:shortName "Waist Circumference" ;
    cosmos_sdtm:source "VS.VSTESTCD" ;
    cosmos_sdtm:variables <https://w3id.org/cdisc/cosmos/dss/VS/WSTCIR/VSDTC>,
        <https://w3id.org/cdisc/cosmos/dss/VS/WSTCIR/VSLOC>,
        <https://w3id.org/cdisc/cosmos/dss/VS/WSTCIR/VSORRES>,
        <https://w3id.org/cdisc/cosmos/dss/VS/WSTCIR/VSORRESU>,
        <https://w3id.org/cdisc/cosmos/dss/VS/WSTCIR/VSSTRESC>,
        <https://w3id.org/cdisc/cosmos/dss/VS/WSTCIR/VSSTRESN>,
        <https://w3id.org/cdisc/cosmos/dss/VS/WSTCIR/VSSTRESU>,
        <https://w3id.org/cdisc/cosmos/dss/VS/WSTCIR/VSTEST>,
        <https://w3id.org/cdisc/cosmos/dss/VS/WSTCIR/VSTESTCD> .

<https://w3id.org/cdisc/cosmos/dss/VS/WTAPCTL> a cosmos_sdtm:SDTMGroup ;
    dcterms:identifier "WTAPCTL" ;
    rdf:_1 <https://w3id.org/cdisc/cosmos/dss/VS/WTAPCTL/VSTESTCD> ;
    rdf:_2 <https://w3id.org/cdisc/cosmos/dss/VS/WTAPCTL/VSTEST> ;
    rdf:_3 <https://w3id.org/cdisc/cosmos/dss/VS/WTAPCTL/VSORRES> ;
    rdf:_4 <https://w3id.org/cdisc/cosmos/dss/VS/WTAPCTL/VSSTRESC> ;
    rdf:_5 <https://w3id.org/cdisc/cosmos/dss/VS/WTAPCTL/VSSTRESN> ;
    rdf:_6 <https://w3id.org/cdisc/cosmos/dss/VS/WTAPCTL/VSDTC> ;
    cosmos_sdtm:biomedicalConceptId NCIT:C163569 ;
    cosmos_sdtm:domain "VS" ;
    cosmos_sdtm:packageDate "2026-05-26"^^xsd:date ;
    cosmos_sdtm:packageType <https://www.cdisc.org/cosmos/sdtm_v1.0/PackageTypeEnum#sdtm> ;
    cosmos_sdtm:sdtmigStartVersion "3-2" ;
    cosmos_sdtm:shortName "Weight-for-Age Percentile" ;
    cosmos_sdtm:source "VS.VSTESTCD" ;
    cosmos_sdtm:variables <https://w3id.org/cdisc/cosmos/dss/VS/WTAPCTL/VSDTC>,
        <https://w3id.org/cdisc/cosmos/dss/VS/WTAPCTL/VSORRES>,
        <https://w3id.org/cdisc/cosmos/dss/VS/WTAPCTL/VSSTRESC>,
        <https://w3id.org/cdisc/cosmos/dss/VS/WTAPCTL/VSSTRESN>,
        <https://w3id.org/cdisc/cosmos/dss/VS/WTAPCTL/VSTEST>,
        <https://w3id.org/cdisc/cosmos/dss/VS/WTAPCTL/VSTESTCD> .

<https://w3id.org/cdisc/cosmos/dss/VS/WTHTPCTL> a cosmos_sdtm:SDTMGroup ;
    dcterms:identifier "WTHTPCTL" ;
    rdf:_1 <https://w3id.org/cdisc/cosmos/dss/VS/WTHTPCTL/VSTESTCD> ;
    rdf:_2 <https://w3id.org/cdisc/cosmos/dss/VS/WTHTPCTL/VSTEST> ;
    rdf:_3 <https://w3id.org/cdisc/cosmos/dss/VS/WTHTPCTL/VSORRES> ;
    rdf:_4 <https://w3id.org/cdisc/cosmos/dss/VS/WTHTPCTL/VSSTRESC> ;
    rdf:_5 <https://w3id.org/cdisc/cosmos/dss/VS/WTHTPCTL/VSSTRESN> ;
    rdf:_6 <https://w3id.org/cdisc/cosmos/dss/VS/WTHTPCTL/VSDTC> ;
    cosmos_sdtm:biomedicalConceptId NCIT:C163570 ;
    cosmos_sdtm:domain "VS" ;
    cosmos_sdtm:packageDate "2026-05-26"^^xsd:date ;
    cosmos_sdtm:packageType <https://www.cdisc.org/cosmos/sdtm_v1.0/PackageTypeEnum#sdtm> ;
    cosmos_sdtm:sdtmigStartVersion "3-2" ;
    cosmos_sdtm:shortName "Weight-for-Height Percentile" ;
    cosmos_sdtm:source "VS.VSTESTCD" ;
    cosmos_sdtm:variables <https://w3id.org/cdisc/cosmos/dss/VS/WTHTPCTL/VSDTC>,
        <https://w3id.org/cdisc/cosmos/dss/VS/WTHTPCTL/VSORRES>,
        <https://w3id.org/cdisc/cosmos/dss/VS/WTHTPCTL/VSSTRESC>,
        <https://w3id.org/cdisc/cosmos/dss/VS/WTHTPCTL/VSSTRESN>,
        <https://w3id.org/cdisc/cosmos/dss/VS/WTHTPCTL/VSTEST>,
        <https://w3id.org/cdisc/cosmos/dss/VS/WTHTPCTL/VSTESTCD> .

NCIT:C71620 a cosmos_sdtm:CodeList ;
    dcterms:identifier "C71620" ;
    skos:exactMatch <http://ncicb.nci.nih.gov/xml/owl/EVS/Thesaurus.owl#C71620> ;
    cosmos_sdtm:submissionValue "UNIT" .

NCIT:C85492 a cosmos_sdtm:CodeList ;
    dcterms:identifier "C85492" ;
    skos:exactMatch <http://ncicb.nci.nih.gov/xml/owl/EVS/Thesaurus.owl#C85492> ;
    cosmos_sdtm:submissionValue "METHOD" .

<https://w3id.org/cdisc/cosmos/dss/VS/ABI/VSDTC/relationship> a cosmos_sdtm:RelationShip ;
    cosmos_sdtm:linkingPhrase <https://www.cdisc.org/cosmos/sdtm_v1.0/LinkingPhraseEnum#is%20the%20date%20of%20occurrence%20for> ;
    cosmos_sdtm:object "VSTESTCD" ;
    cosmos_sdtm:predicateTerm <https://www.cdisc.org/cosmos/sdtm_v1.0/PredicateTermEnum#IS_TIMING_FOR> ;
    cosmos_sdtm:subject "VSDTC" .

<https://w3id.org/cdisc/cosmos/dss/VS/ABI/VSORRES/relationship> a cosmos_sdtm:RelationShip ;
    cosmos_sdtm:linkingPhrase <https://www.cdisc.org/cosmos/sdtm_v1.0/LinkingPhraseEnum#is%20the%20result%20of%20the%20test%20in> ;
    cosmos_sdtm:object "VSTESTCD" ;
    cosmos_sdtm:predicateTerm <https://www.cdisc.org/cosmos/sdtm_v1.0/PredicateTermEnum#IS_RESULT_OF> ;
    cosmos_sdtm:subject "VSORRES" .

<https://w3id.org/cdisc/cosmos/dss/VS/ABI/VSSTRESC/relationship> a cosmos_sdtm:RelationShip ;
    cosmos_sdtm:linkingPhrase <https://www.cdisc.org/cosmos/sdtm_v1.0/LinkingPhraseEnum#is%20the%20result%20of%20the%20test%20in> ;
    cosmos_sdtm:object "VSTESTCD" ;
    cosmos_sdtm:predicateTerm <https://www.cdisc.org/cosmos/sdtm_v1.0/PredicateTermEnum#IS_RESULT_OF> ;
    cosmos_sdtm:subject "VSSTRESC" .

<https://w3id.org/cdisc/cosmos/dss/VS/ABI/VSSTRESN/relationship> a cosmos_sdtm:RelationShip ;
    cosmos_sdtm:linkingPhrase <https://www.cdisc.org/cosmos/sdtm_v1.0/LinkingPhraseEnum#is%20the%20result%20of%20the%20test%20in> ;
    cosmos_sdtm:object "VSTESTCD" ;
    cosmos_sdtm:predicateTerm <https://www.cdisc.org/cosmos/sdtm_v1.0/PredicateTermEnum#IS_RESULT_OF> ;
    cosmos_sdtm:subject "VSSTRESN" .

<https://w3id.org/cdisc/cosmos/dss/VS/ABI/VSTEST/assignedTerm> a cosmos_sdtm:AssignedTerm ;
    cosmos_sdtm:conceptId NCIT:C87304 ;
    cosmos_sdtm:value "Ankle-Brachial Index" .

<https://w3id.org/cdisc/cosmos/dss/VS/ABI/VSTEST/relationship> a cosmos_sdtm:RelationShip ;
    cosmos_sdtm:linkingPhrase <https://www.cdisc.org/cosmos/sdtm_v1.0/LinkingPhraseEnum#decodes%20the%20value%20in> ;
    cosmos_sdtm:object "VSTESTCD" ;
    cosmos_sdtm:predicateTerm <https://www.cdisc.org/cosmos/sdtm_v1.0/PredicateTermEnum#DECODES> ;
    cosmos_sdtm:subject "VSTEST" .

<https://w3id.org/cdisc/cosmos/dss/VS/ABI/VSTESTCD/assignedTerm> a cosmos_sdtm:AssignedTerm ;
    cosmos_sdtm:conceptId NCIT:C87304 ;
    cosmos_sdtm:value "ABI" .

<https://w3id.org/cdisc/cosmos/dss/VS/ABI/VSTESTCD/relationship> a cosmos_sdtm:RelationShip ;
    cosmos_sdtm:linkingPhrase <https://www.cdisc.org/cosmos/sdtm_v1.0/LinkingPhraseEnum#is%20the%20code%20for%20the%20value%20in> ;
    cosmos_sdtm:object "VSTEST" ;
    cosmos_sdtm:predicateTerm <https://www.cdisc.org/cosmos/sdtm_v1.0/PredicateTermEnum#IS_DECODED_BY> ;
    cosmos_sdtm:subject "VSTESTCD" .

<https://w3id.org/cdisc/cosmos/dss/VS/ABSKNF/VSDTC/relationship> a cosmos_sdtm:RelationShip ;
    cosmos_sdtm:linkingPhrase <https://www.cdisc.org/cosmos/sdtm_v1.0/LinkingPhraseEnum#is%20the%20date%20of%20occurrence%20for> ;
    cosmos_sdtm:object "VSTESTCD" ;
    cosmos_sdtm:predicateTerm <https://www.cdisc.org/cosmos/sdtm_v1.0/PredicateTermEnum#IS_TIMING_FOR> ;
    cosmos_sdtm:subject "VSDTC" .

<https://w3id.org/cdisc/cosmos/dss/VS/ABSKNF/VSORRES/relationship> a cosmos_sdtm:RelationShip ;
    cosmos_sdtm:linkingPhrase <https://www.cdisc.org/cosmos/sdtm_v1.0/LinkingPhraseEnum#is%20the%20result%20of%20the%20test%20in> ;
    cosmos_sdtm:object "VSTESTCD" ;
    cosmos_sdtm:predicateTerm <https://www.cdisc.org/cosmos/sdtm_v1.0/PredicateTermEnum#IS_RESULT_OF> ;
    cosmos_sdtm:subject "VSORRES" .

<https://w3id.org/cdisc/cosmos/dss/VS/ABSKNF/VSORRESU/relationship> a cosmos_sdtm:RelationShip ;
    cosmos_sdtm:linkingPhrase <https://www.cdisc.org/cosmos/sdtm_v1.0/LinkingPhraseEnum#is%20the%20unit%20for%20the%20value%20in> ;
    cosmos_sdtm:object "VSORRES" ;
    cosmos_sdtm:predicateTerm <https://www.cdisc.org/cosmos/sdtm_v1.0/PredicateTermEnum#IS_UNIT_FOR> ;
    cosmos_sdtm:subject "VSORRESU" .

<https://w3id.org/cdisc/cosmos/dss/VS/ABSKNF/VSSTRESC/relationship> a cosmos_sdtm:RelationShip ;
    cosmos_sdtm:linkingPhrase <https://www.cdisc.org/cosmos/sdtm_v1.0/LinkingPhraseEnum#is%20the%20result%20of%20the%20test%20in> ;
    cosmos_sdtm:object "VSTESTCD" ;
    cosmos_sdtm:predicateTerm <https://www.cdisc.org/cosmos/sdtm_v1.0/PredicateTermEnum#IS_RESULT_OF> ;
    cosmos_sdtm:subject "VSSTRESC" .

<https://w3id.org/cdisc/cosmos/dss/VS/ABSKNF/VSSTRESN/relationship> a cosmos_sdtm:RelationShip ;
    cosmos_sdtm:linkingPhrase <https://www.cdisc.org/cosmos/sdtm_v1.0/LinkingPhraseEnum#is%20the%20result%20of%20the%20test%20in> ;
    cosmos_sdtm:object "VSTESTCD" ;
    cosmos_sdtm:predicateTerm <https://www.cdisc.org/cosmos/sdtm_v1.0/PredicateTermEnum#IS_RESULT_OF> ;
    cosmos_sdtm:subject "VSSTRESN" .

<https://w3id.org/cdisc/cosmos/dss/VS/ABSKNF/VSSTRESU/relationship> a cosmos_sdtm:RelationShip ;
    cosmos_sdtm:linkingPhrase <https://www.cdisc.org/cosmos/sdtm_v1.0/LinkingPhraseEnum#is%20the%20unit%20for%20the%20value%20in> ;
    cosmos_sdtm:object "VSSTRESN" ;
    cosmos_sdtm:predicateTerm <https://www.cdisc.org/cosmos/sdtm_v1.0/PredicateTermEnum#IS_UNIT_FOR> ;
    cosmos_sdtm:subject "VSSTRESU" .

<https://w3id.org/cdisc/cosmos/dss/VS/ABSKNF/VSTEST/assignedTerm> a cosmos_sdtm:AssignedTerm ;
    cosmos_sdtm:conceptId NCIT:C103346 ;
    cosmos_sdtm:value "Abdominal Skinfold Thickness" .

<https://w3id.org/cdisc/cosmos/dss/VS/ABSKNF/VSTEST/relationship> a cosmos_sdtm:RelationShip ;
    cosmos_sdtm:linkingPhrase <https://www.cdisc.org/cosmos/sdtm_v1.0/LinkingPhraseEnum#decodes%20the%20value%20in> ;
    cosmos_sdtm:object "VSTESTCD" ;
    cosmos_sdtm:predicateTerm <https://www.cdisc.org/cosmos/sdtm_v1.0/PredicateTermEnum#DECODES> ;
    cosmos_sdtm:subject "VSTEST" .

<https://w3id.org/cdisc/cosmos/dss/VS/ABSKNF/VSTESTCD/assignedTerm> a cosmos_sdtm:AssignedTerm ;
    cosmos_sdtm:conceptId NCIT:C103346 ;
    cosmos_sdtm:value "ABSKNF" .

<https://w3id.org/cdisc/cosmos/dss/VS/ABSKNF/VSTESTCD/relationship> a cosmos_sdtm:RelationShip ;
    cosmos_sdtm:linkingPhrase <https://www.cdisc.org/cosmos/sdtm_v1.0/LinkingPhraseEnum#is%20the%20code%20for%20the%20value%20in> ;
    cosmos_sdtm:object "VSTEST" ;
    cosmos_sdtm:predicateTerm <https://www.cdisc.org/cosmos/sdtm_v1.0/PredicateTermEnum#IS_DECODED_BY> ;
    cosmos_sdtm:subject "VSTESTCD" .

<https://w3id.org/cdisc/cosmos/dss/VS/ARMSPAN/VSDTC/relationship> a cosmos_sdtm:RelationShip ;
    cosmos_sdtm:linkingPhrase <https://www.cdisc.org/cosmos/sdtm_v1.0/LinkingPhraseEnum#is%20the%20date%20of%20occurrence%20for> ;
    cosmos_sdtm:object "VSTESTCD" ;
    cosmos_sdtm:predicateTerm <https://www.cdisc.org/cosmos/sdtm_v1.0/PredicateTermEnum#IS_TIMING_FOR> ;
    cosmos_sdtm:subject "VSDTC" .

<https://w3id.org/cdisc/cosmos/dss/VS/ARMSPAN/VSORRES/relationship> a cosmos_sdtm:RelationShip ;
    cosmos_sdtm:linkingPhrase <https://www.cdisc.org/cosmos/sdtm_v1.0/LinkingPhraseEnum#is%20the%20result%20of%20the%20test%20in> ;
    cosmos_sdtm:object "VSTESTCD" ;
    cosmos_sdtm:predicateTerm <https://www.cdisc.org/cosmos/sdtm_v1.0/PredicateTermEnum#IS_RESULT_OF> ;
    cosmos_sdtm:subject "VSORRES" .

<https://w3id.org/cdisc/cosmos/dss/VS/ARMSPAN/VSORRESU/relationship> a cosmos_sdtm:RelationShip ;
    cosmos_sdtm:linkingPhrase <https://www.cdisc.org/cosmos/sdtm_v1.0/LinkingPhraseEnum#is%20the%20unit%20for%20the%20value%20in> ;
    cosmos_sdtm:object "VSORRES" ;
    cosmos_sdtm:predicateTerm <https://www.cdisc.org/cosmos/sdtm_v1.0/PredicateTermEnum#IS_UNIT_FOR> ;
    cosmos_sdtm:subject "VSORRESU" .

<https://w3id.org/cdisc/cosmos/dss/VS/ARMSPAN/VSSTRESC/relationship> a cosmos_sdtm:RelationShip ;
    cosmos_sdtm:linkingPhrase <https://www.cdisc.org/cosmos/sdtm_v1.0/LinkingPhraseEnum#is%20the%20result%20of%20the%20test%20in> ;
    cosmos_sdtm:object "VSTESTCD" ;
    cosmos_sdtm:predicateTerm <https://www.cdisc.org/cosmos/sdtm_v1.0/PredicateTermEnum#IS_RESULT_OF> ;
    cosmos_sdtm:subject "VSSTRESC" .

<https://w3id.org/cdisc/cosmos/dss/VS/ARMSPAN/VSSTRESN/relationship> a cosmos_sdtm:RelationShip ;
    cosmos_sdtm:linkingPhrase <https://www.cdisc.org/cosmos/sdtm_v1.0/LinkingPhraseEnum#is%20the%20result%20of%20the%20test%20in> ;
    cosmos_sdtm:object "VSTESTCD" ;
    cosmos_sdtm:predicateTerm <https://www.cdisc.org/cosmos/sdtm_v1.0/PredicateTermEnum#IS_RESULT_OF> ;
    cosmos_sdtm:subject "VSSTRESN" .

<https://w3id.org/cdisc/cosmos/dss/VS/ARMSPAN/VSSTRESU/relationship> a cosmos_sdtm:RelationShip ;
    cosmos_sdtm:linkingPhrase <https://www.cdisc.org/cosmos/sdtm_v1.0/LinkingPhraseEnum#is%20the%20unit%20for%20the%20value%20in> ;
    cosmos_sdtm:object "VSSTRESN" ;
    cosmos_sdtm:predicateTerm <https://www.cdisc.org/cosmos/sdtm_v1.0/PredicateTermEnum#IS_UNIT_FOR> ;
    cosmos_sdtm:subject "VSSTRESU" .

<https://w3id.org/cdisc/cosmos/dss/VS/ARMSPAN/VSTEST/assignedTerm> a cosmos_sdtm:AssignedTerm ;
    cosmos_sdtm:conceptId NCIT:C181553 ;
    cosmos_sdtm:value "Arm Span" .

<https://w3id.org/cdisc/cosmos/dss/VS/ARMSPAN/VSTEST/relationship> a cosmos_sdtm:RelationShip ;
    cosmos_sdtm:linkingPhrase <https://www.cdisc.org/cosmos/sdtm_v1.0/LinkingPhraseEnum#decodes%20the%20value%20in> ;
    cosmos_sdtm:object "VSTESTCD" ;
    cosmos_sdtm:predicateTerm <https://www.cdisc.org/cosmos/sdtm_v1.0/PredicateTermEnum#DECODES> ;
    cosmos_sdtm:subject "VSTEST" .

<https://w3id.org/cdisc/cosmos/dss/VS/ARMSPAN/VSTESTCD/assignedTerm> a cosmos_sdtm:AssignedTerm ;
    cosmos_sdtm:conceptId NCIT:C181553 ;
    cosmos_sdtm:value "ARMSPAN" .

<https://w3id.org/cdisc/cosmos/dss/VS/ARMSPAN/VSTESTCD/relationship> a cosmos_sdtm:RelationShip ;
    cosmos_sdtm:linkingPhrase <https://www.cdisc.org/cosmos/sdtm_v1.0/LinkingPhraseEnum#is%20the%20code%20for%20the%20value%20in> ;
    cosmos_sdtm:object "VSTEST" ;
    cosmos_sdtm:predicateTerm <https://www.cdisc.org/cosmos/sdtm_v1.0/PredicateTermEnum#IS_DECODED_BY> ;
    cosmos_sdtm:subject "VSTESTCD" .

<https://w3id.org/cdisc/cosmos/dss/VS/BCM/VSDTC/relationship> a cosmos_sdtm:RelationShip ;
    cosmos_sdtm:linkingPhrase <https://www.cdisc.org/cosmos/sdtm_v1.0/LinkingPhraseEnum#is%20the%20date%20of%20occurrence%20for> ;
    cosmos_sdtm:object "VSTESTCD" ;
    cosmos_sdtm:predicateTerm <https://www.cdisc.org/cosmos/sdtm_v1.0/PredicateTermEnum#IS_TIMING_FOR> ;
    cosmos_sdtm:subject "VSDTC" .

<https://w3id.org/cdisc/cosmos/dss/VS/BCM/VSORRES/relationship> a cosmos_sdtm:RelationShip ;
    cosmos_sdtm:linkingPhrase <https://www.cdisc.org/cosmos/sdtm_v1.0/LinkingPhraseEnum#is%20the%20result%20of%20the%20test%20in> ;
    cosmos_sdtm:object "VSTESTCD" ;
    cosmos_sdtm:predicateTerm <https://www.cdisc.org/cosmos/sdtm_v1.0/PredicateTermEnum#IS_RESULT_OF> ;
    cosmos_sdtm:subject "VSORRES" .

<https://w3id.org/cdisc/cosmos/dss/VS/BCM/VSORRESU/relationship> a cosmos_sdtm:RelationShip ;
    cosmos_sdtm:linkingPhrase <https://www.cdisc.org/cosmos/sdtm_v1.0/LinkingPhraseEnum#is%20the%20unit%20for%20the%20value%20in> ;
    cosmos_sdtm:object "VSORRES" ;
    cosmos_sdtm:predicateTerm <https://www.cdisc.org/cosmos/sdtm_v1.0/PredicateTermEnum#IS_UNIT_FOR> ;
    cosmos_sdtm:subject "VSORRESU" .

<https://w3id.org/cdisc/cosmos/dss/VS/BCM/VSSTRESC/relationship> a cosmos_sdtm:RelationShip ;
    cosmos_sdtm:linkingPhrase <https://www.cdisc.org/cosmos/sdtm_v1.0/LinkingPhraseEnum#is%20the%20result%20of%20the%20test%20in> ;
    cosmos_sdtm:object "VSTESTCD" ;
    cosmos_sdtm:predicateTerm <https://www.cdisc.org/cosmos/sdtm_v1.0/PredicateTermEnum#IS_RESULT_OF> ;
    cosmos_sdtm:subject "VSSTRESC" .

<https://w3id.org/cdisc/cosmos/dss/VS/BCM/VSSTRESN/relationship> a cosmos_sdtm:RelationShip ;
    cosmos_sdtm:linkingPhrase <https://www.cdisc.org/cosmos/sdtm_v1.0/LinkingPhraseEnum#is%20the%20result%20of%20the%20test%20in> ;
    cosmos_sdtm:object "VSTESTCD" ;
    cosmos_sdtm:predicateTerm <https://www.cdisc.org/cosmos/sdtm_v1.0/PredicateTermEnum#IS_RESULT_OF> ;
    cosmos_sdtm:subject "VSSTRESN" .

<https://w3id.org/cdisc/cosmos/dss/VS/BCM/VSSTRESU/relationship> a cosmos_sdtm:RelationShip ;
    cosmos_sdtm:linkingPhrase <https://www.cdisc.org/cosmos/sdtm_v1.0/LinkingPhraseEnum#is%20the%20unit%20for%20the%20value%20in> ;
    cosmos_sdtm:object "VSSTRESN" ;
    cosmos_sdtm:predicateTerm <https://www.cdisc.org/cosmos/sdtm_v1.0/PredicateTermEnum#IS_UNIT_FOR> ;
    cosmos_sdtm:subject "VSSTRESU" .

<https://w3id.org/cdisc/cosmos/dss/VS/BCM/VSTEST/assignedTerm> a cosmos_sdtm:AssignedTerm ;
    cosmos_sdtm:conceptId NCIT:C199996 ;
    cosmos_sdtm:value "Body Cell Mass" .

<https://w3id.org/cdisc/cosmos/dss/VS/BCM/VSTEST/relationship> a cosmos_sdtm:RelationShip ;
    cosmos_sdtm:linkingPhrase <https://www.cdisc.org/cosmos/sdtm_v1.0/LinkingPhraseEnum#decodes%20the%20value%20in> ;
    cosmos_sdtm:object "VSTESTCD" ;
    cosmos_sdtm:predicateTerm <https://www.cdisc.org/cosmos/sdtm_v1.0/PredicateTermEnum#DECODES> ;
    cosmos_sdtm:subject "VSTEST" .

<https://w3id.org/cdisc/cosmos/dss/VS/BCM/VSTESTCD/assignedTerm> a cosmos_sdtm:AssignedTerm ;
    cosmos_sdtm:conceptId NCIT:C199996 ;
    cosmos_sdtm:value "BCM" .

<https://w3id.org/cdisc/cosmos/dss/VS/BCM/VSTESTCD/relationship> a cosmos_sdtm:RelationShip ;
    cosmos_sdtm:linkingPhrase <https://www.cdisc.org/cosmos/sdtm_v1.0/LinkingPhraseEnum#is%20the%20code%20for%20the%20value%20in> ;
    cosmos_sdtm:object "VSTEST" ;
    cosmos_sdtm:predicateTerm <https://www.cdisc.org/cosmos/sdtm_v1.0/PredicateTermEnum#IS_DECODED_BY> ;
    cosmos_sdtm:subject "VSTESTCD" .

<https://w3id.org/cdisc/cosmos/dss/VS/BLAPCTL/VSDTC/relationship> a cosmos_sdtm:RelationShip ;
    cosmos_sdtm:linkingPhrase <https://www.cdisc.org/cosmos/sdtm_v1.0/LinkingPhraseEnum#is%20the%20date%20of%20occurrence%20for> ;
    cosmos_sdtm:object "VSTESTCD" ;
    cosmos_sdtm:predicateTerm <https://www.cdisc.org/cosmos/sdtm_v1.0/PredicateTermEnum#IS_TIMING_FOR> ;
    cosmos_sdtm:subject "VSDTC" .

<https://w3id.org/cdisc/cosmos/dss/VS/BLAPCTL/VSORRES/relationship> a cosmos_sdtm:RelationShip ;
    cosmos_sdtm:linkingPhrase <https://www.cdisc.org/cosmos/sdtm_v1.0/LinkingPhraseEnum#is%20the%20result%20of%20the%20test%20in> ;
    cosmos_sdtm:object "VSTESTCD" ;
    cosmos_sdtm:predicateTerm <https://www.cdisc.org/cosmos/sdtm_v1.0/PredicateTermEnum#IS_RESULT_OF> ;
    cosmos_sdtm:subject "VSORRES" .

<https://w3id.org/cdisc/cosmos/dss/VS/BLAPCTL/VSSTRESC/relationship> a cosmos_sdtm:RelationShip ;
    cosmos_sdtm:linkingPhrase <https://www.cdisc.org/cosmos/sdtm_v1.0/LinkingPhraseEnum#is%20the%20result%20of%20the%20test%20in> ;
    cosmos_sdtm:object "VSTESTCD" ;
    cosmos_sdtm:predicateTerm <https://www.cdisc.org/cosmos/sdtm_v1.0/PredicateTermEnum#IS_RESULT_OF> ;
    cosmos_sdtm:subject "VSSTRESC" .

<https://w3id.org/cdisc/cosmos/dss/VS/BLAPCTL/VSSTRESN/relationship> a cosmos_sdtm:RelationShip ;
    cosmos_sdtm:linkingPhrase <https://www.cdisc.org/cosmos/sdtm_v1.0/LinkingPhraseEnum#is%20the%20result%20of%20the%20test%20in> ;
    cosmos_sdtm:object "VSTESTCD" ;
    cosmos_sdtm:predicateTerm <https://www.cdisc.org/cosmos/sdtm_v1.0/PredicateTermEnum#IS_RESULT_OF> ;
    cosmos_sdtm:subject "VSSTRESN" .

<https://w3id.org/cdisc/cosmos/dss/VS/BLAPCTL/VSTEST/assignedTerm> a cosmos_sdtm:AssignedTerm ;
    cosmos_sdtm:conceptId NCIT:C205752 ;
    cosmos_sdtm:value "Body Length-for-Age Percentile" .

<https://w3id.org/cdisc/cosmos/dss/VS/BLAPCTL/VSTEST/relationship> a cosmos_sdtm:RelationShip ;
    cosmos_sdtm:linkingPhrase <https://www.cdisc.org/cosmos/sdtm_v1.0/LinkingPhraseEnum#decodes%20the%20value%20in> ;
    cosmos_sdtm:object "VSTESTCD" ;
    cosmos_sdtm:predicateTerm <https://www.cdisc.org/cosmos/sdtm_v1.0/PredicateTermEnum#DECODES> ;
    cosmos_sdtm:subject "VSTEST" .

<https://w3id.org/cdisc/cosmos/dss/VS/BLAPCTL/VSTESTCD/assignedTerm> a cosmos_sdtm:AssignedTerm ;
    cosmos_sdtm:conceptId NCIT:C205752 ;
    cosmos_sdtm:value "BLAPCTL" .

<https://w3id.org/cdisc/cosmos/dss/VS/BLAPCTL/VSTESTCD/relationship> a cosmos_sdtm:RelationShip ;
    cosmos_sdtm:linkingPhrase <https://www.cdisc.org/cosmos/sdtm_v1.0/LinkingPhraseEnum#is%20the%20code%20for%20the%20value%20in> ;
    cosmos_sdtm:object "VSTEST" ;
    cosmos_sdtm:predicateTerm <https://www.cdisc.org/cosmos/sdtm_v1.0/PredicateTermEnum#IS_DECODED_BY> ;
    cosmos_sdtm:subject "VSTESTCD" .

<https://w3id.org/cdisc/cosmos/dss/VS/BMI/VSDTC/relationship> a cosmos_sdtm:RelationShip ;
    cosmos_sdtm:linkingPhrase <https://www.cdisc.org/cosmos/sdtm_v1.0/LinkingPhraseEnum#is%20the%20date%20of%20occurrence%20for> ;
    cosmos_sdtm:object "VSTESTCD" ;
    cosmos_sdtm:predicateTerm <https://www.cdisc.org/cosmos/sdtm_v1.0/PredicateTermEnum#IS_TIMING_FOR> ;
    cosmos_sdtm:subject "VSDTC" .

<https://w3id.org/cdisc/cosmos/dss/VS/BMI/VSORRES/relationship> a cosmos_sdtm:RelationShip ;
    cosmos_sdtm:linkingPhrase <https://www.cdisc.org/cosmos/sdtm_v1.0/LinkingPhraseEnum#is%20the%20result%20of%20the%20test%20in> ;
    cosmos_sdtm:object "VSTESTCD" ;
    cosmos_sdtm:predicateTerm <https://www.cdisc.org/cosmos/sdtm_v1.0/PredicateTermEnum#IS_RESULT_OF> ;
    cosmos_sdtm:subject "VSORRES" .

<https://w3id.org/cdisc/cosmos/dss/VS/BMI/VSORRESU/relationship> a cosmos_sdtm:RelationShip ;
    cosmos_sdtm:linkingPhrase <https://www.cdisc.org/cosmos/sdtm_v1.0/LinkingPhraseEnum#is%20the%20unit%20for%20the%20value%20in> ;
    cosmos_sdtm:object "VSORRES" ;
    cosmos_sdtm:predicateTerm <https://www.cdisc.org/cosmos/sdtm_v1.0/PredicateTermEnum#IS_UNIT_FOR> ;
    cosmos_sdtm:subject "VSORRESU" .

<https://w3id.org/cdisc/cosmos/dss/VS/BMI/VSSTRESC/relationship> a cosmos_sdtm:RelationShip ;
    cosmos_sdtm:linkingPhrase <https://www.cdisc.org/cosmos/sdtm_v1.0/LinkingPhraseEnum#is%20the%20result%20of%20the%20test%20in> ;
    cosmos_sdtm:object "VSTESTCD" ;
    cosmos_sdtm:predicateTerm <https://www.cdisc.org/cosmos/sdtm_v1.0/PredicateTermEnum#IS_RESULT_OF> ;
    cosmos_sdtm:subject "VSSTRESC" .

<https://w3id.org/cdisc/cosmos/dss/VS/BMI/VSSTRESN/relationship> a cosmos_sdtm:RelationShip ;
    cosmos_sdtm:linkingPhrase <https://www.cdisc.org/cosmos/sdtm_v1.0/LinkingPhraseEnum#is%20the%20result%20of%20the%20test%20in> ;
    cosmos_sdtm:object "VSTESTCD" ;
    cosmos_sdtm:predicateTerm <https://www.cdisc.org/cosmos/sdtm_v1.0/PredicateTermEnum#IS_RESULT_OF> ;
    cosmos_sdtm:subject "VSSTRESN" .

<https://w3id.org/cdisc/cosmos/dss/VS/BMI/VSSTRESU/relationship> a cosmos_sdtm:RelationShip ;
    cosmos_sdtm:linkingPhrase <https://www.cdisc.org/cosmos/sdtm_v1.0/LinkingPhraseEnum#is%20the%20unit%20for%20the%20value%20in> ;
    cosmos_sdtm:object "VSSTRESN" ;
    cosmos_sdtm:predicateTerm <https://www.cdisc.org/cosmos/sdtm_v1.0/PredicateTermEnum#IS_UNIT_FOR> ;
    cosmos_sdtm:subject "VSSTRESU" .

<https://w3id.org/cdisc/cosmos/dss/VS/BMI/VSTEST/assignedTerm> a cosmos_sdtm:AssignedTerm ;
    cosmos_sdtm:conceptId NCIT:C16358 ;
    cosmos_sdtm:value "Body Mass Index" .

<https://w3id.org/cdisc/cosmos/dss/VS/BMI/VSTEST/relationship> a cosmos_sdtm:RelationShip ;
    cosmos_sdtm:linkingPhrase <https://www.cdisc.org/cosmos/sdtm_v1.0/LinkingPhraseEnum#decodes%20the%20value%20in> ;
    cosmos_sdtm:object "VSTESTCD" ;
    cosmos_sdtm:predicateTerm <https://www.cdisc.org/cosmos/sdtm_v1.0/PredicateTermEnum#DECODES> ;
    cosmos_sdtm:subject "VSTEST" .

<https://w3id.org/cdisc/cosmos/dss/VS/BMI/VSTESTCD/assignedTerm> a cosmos_sdtm:AssignedTerm ;
    cosmos_sdtm:conceptId NCIT:C16358 ;
    cosmos_sdtm:value "BMI" .

<https://w3id.org/cdisc/cosmos/dss/VS/BMI/VSTESTCD/relationship> a cosmos_sdtm:RelationShip ;
    cosmos_sdtm:linkingPhrase <https://www.cdisc.org/cosmos/sdtm_v1.0/LinkingPhraseEnum#is%20the%20code%20for%20the%20value%20in> ;
    cosmos_sdtm:object "VSTEST" ;
    cosmos_sdtm:predicateTerm <https://www.cdisc.org/cosmos/sdtm_v1.0/PredicateTermEnum#IS_DECODED_BY> ;
    cosmos_sdtm:subject "VSTESTCD" .

<https://w3id.org/cdisc/cosmos/dss/VS/BMIAPCTL/VSDTC/relationship> a cosmos_sdtm:RelationShip ;
    cosmos_sdtm:linkingPhrase <https://www.cdisc.org/cosmos/sdtm_v1.0/LinkingPhraseEnum#is%20the%20date%20of%20occurrence%20for> ;
    cosmos_sdtm:object "VSTESTCD" ;
    cosmos_sdtm:predicateTerm <https://www.cdisc.org/cosmos/sdtm_v1.0/PredicateTermEnum#IS_TIMING_FOR> ;
    cosmos_sdtm:subject "VSDTC" .

<https://w3id.org/cdisc/cosmos/dss/VS/BMIAPCTL/VSORRES/relationship> a cosmos_sdtm:RelationShip ;
    cosmos_sdtm:linkingPhrase <https://www.cdisc.org/cosmos/sdtm_v1.0/LinkingPhraseEnum#is%20the%20result%20of%20the%20test%20in> ;
    cosmos_sdtm:object "VSTESTCD" ;
    cosmos_sdtm:predicateTerm <https://www.cdisc.org/cosmos/sdtm_v1.0/PredicateTermEnum#IS_RESULT_OF> ;
    cosmos_sdtm:subject "VSORRES" .

<https://w3id.org/cdisc/cosmos/dss/VS/BMIAPCTL/VSSTRESC/relationship> a cosmos_sdtm:RelationShip ;
    cosmos_sdtm:linkingPhrase <https://www.cdisc.org/cosmos/sdtm_v1.0/LinkingPhraseEnum#is%20the%20result%20of%20the%20test%20in> ;
    cosmos_sdtm:object "VSTESTCD" ;
    cosmos_sdtm:predicateTerm <https://www.cdisc.org/cosmos/sdtm_v1.0/PredicateTermEnum#IS_RESULT_OF> ;
    cosmos_sdtm:subject "VSSTRESC" .

<https://w3id.org/cdisc/cosmos/dss/VS/BMIAPCTL/VSSTRESN/relationship> a cosmos_sdtm:RelationShip ;
    cosmos_sdtm:linkingPhrase <https://www.cdisc.org/cosmos/sdtm_v1.0/LinkingPhraseEnum#is%20the%20result%20of%20the%20test%20in> ;
    cosmos_sdtm:object "VSTESTCD" ;
    cosmos_sdtm:predicateTerm <https://www.cdisc.org/cosmos/sdtm_v1.0/PredicateTermEnum#IS_RESULT_OF> ;
    cosmos_sdtm:subject "VSSTRESN" .

<https://w3id.org/cdisc/cosmos/dss/VS/BMIAPCTL/VSTEST/assignedTerm> a cosmos_sdtm:AssignedTerm ;
    cosmos_sdtm:conceptId NCIT:C163567 ;
    cosmos_sdtm:value "BMI-for-Age Percentile" .

<https://w3id.org/cdisc/cosmos/dss/VS/BMIAPCTL/VSTEST/relationship> a cosmos_sdtm:RelationShip ;
    cosmos_sdtm:linkingPhrase <https://www.cdisc.org/cosmos/sdtm_v1.0/LinkingPhraseEnum#decodes%20the%20value%20in> ;
    cosmos_sdtm:object "VSTESTCD" ;
    cosmos_sdtm:predicateTerm <https://www.cdisc.org/cosmos/sdtm_v1.0/PredicateTermEnum#DECODES> ;
    cosmos_sdtm:subject "VSTEST" .

<https://w3id.org/cdisc/cosmos/dss/VS/BMIAPCTL/VSTESTCD/assignedTerm> a cosmos_sdtm:AssignedTerm ;
    cosmos_sdtm:conceptId NCIT:C163567 ;
    cosmos_sdtm:value "BMIAPCTL" .

<https://w3id.org/cdisc/cosmos/dss/VS/BMIAPCTL/VSTESTCD/relationship> a cosmos_sdtm:RelationShip ;
    cosmos_sdtm:linkingPhrase <https://www.cdisc.org/cosmos/sdtm_v1.0/LinkingPhraseEnum#is%20the%20code%20for%20the%20value%20in> ;
    cosmos_sdtm:object "VSTEST" ;
    cosmos_sdtm:predicateTerm <https://www.cdisc.org/cosmos/sdtm_v1.0/PredicateTermEnum#IS_DECODED_BY> ;
    cosmos_sdtm:subject "VSTESTCD" .

<https://w3id.org/cdisc/cosmos/dss/VS/BMR/VSDTC/relationship> a cosmos_sdtm:RelationShip ;
    cosmos_sdtm:linkingPhrase <https://www.cdisc.org/cosmos/sdtm_v1.0/LinkingPhraseEnum#is%20the%20date%20of%20occurrence%20for> ;
    cosmos_sdtm:object "VSTESTCD" ;
    cosmos_sdtm:predicateTerm <https://www.cdisc.org/cosmos/sdtm_v1.0/PredicateTermEnum#IS_TIMING_FOR> ;
    cosmos_sdtm:subject "VSDTC" .

<https://w3id.org/cdisc/cosmos/dss/VS/BMR/VSORRES/relationship> a cosmos_sdtm:RelationShip ;
    cosmos_sdtm:linkingPhrase <https://www.cdisc.org/cosmos/sdtm_v1.0/LinkingPhraseEnum#is%20the%20result%20of%20the%20test%20in> ;
    cosmos_sdtm:object "VSTESTCD" ;
    cosmos_sdtm:predicateTerm <https://www.cdisc.org/cosmos/sdtm_v1.0/PredicateTermEnum#IS_RESULT_OF> ;
    cosmos_sdtm:subject "VSORRES" .

<https://w3id.org/cdisc/cosmos/dss/VS/BMR/VSORRESU/relationship> a cosmos_sdtm:RelationShip ;
    cosmos_sdtm:linkingPhrase <https://www.cdisc.org/cosmos/sdtm_v1.0/LinkingPhraseEnum#is%20the%20unit%20for%20the%20value%20in> ;
    cosmos_sdtm:object "VSORRES" ;
    cosmos_sdtm:predicateTerm <https://www.cdisc.org/cosmos/sdtm_v1.0/PredicateTermEnum#IS_UNIT_FOR> ;
    cosmos_sdtm:subject "VSORRESU" .

<https://w3id.org/cdisc/cosmos/dss/VS/BMR/VSSTRESC/relationship> a cosmos_sdtm:RelationShip ;
    cosmos_sdtm:linkingPhrase <https://www.cdisc.org/cosmos/sdtm_v1.0/LinkingPhraseEnum#is%20the%20result%20of%20the%20test%20in> ;
    cosmos_sdtm:object "VSTESTCD" ;
    cosmos_sdtm:predicateTerm <https://www.cdisc.org/cosmos/sdtm_v1.0/PredicateTermEnum#IS_RESULT_OF> ;
    cosmos_sdtm:subject "VSSTRESC" .

<https://w3id.org/cdisc/cosmos/dss/VS/BMR/VSSTRESN/relationship> a cosmos_sdtm:RelationShip ;
    cosmos_sdtm:linkingPhrase <https://www.cdisc.org/cosmos/sdtm_v1.0/LinkingPhraseEnum#is%20the%20result%20of%20the%20test%20in> ;
    cosmos_sdtm:object "VSTESTCD" ;
    cosmos_sdtm:predicateTerm <https://www.cdisc.org/cosmos/sdtm_v1.0/PredicateTermEnum#IS_RESULT_OF> ;
    cosmos_sdtm:subject "VSSTRESN" .

<https://w3id.org/cdisc/cosmos/dss/VS/BMR/VSSTRESU/relationship> a cosmos_sdtm:RelationShip ;
    cosmos_sdtm:linkingPhrase <https://www.cdisc.org/cosmos/sdtm_v1.0/LinkingPhraseEnum#is%20the%20unit%20for%20the%20value%20in> ;
    cosmos_sdtm:object "VSSTRESN" ;
    cosmos_sdtm:predicateTerm <https://www.cdisc.org/cosmos/sdtm_v1.0/PredicateTermEnum#IS_UNIT_FOR> ;
    cosmos_sdtm:subject "VSSTRESU" .

<https://w3id.org/cdisc/cosmos/dss/VS/BMR/VSTEST/assignedTerm> a cosmos_sdtm:AssignedTerm ;
    cosmos_sdtm:conceptId NCIT:C126083 ;
    cosmos_sdtm:value "Basal Metabolic Rate" .

<https://w3id.org/cdisc/cosmos/dss/VS/BMR/VSTEST/relationship> a cosmos_sdtm:RelationShip ;
    cosmos_sdtm:linkingPhrase <https://www.cdisc.org/cosmos/sdtm_v1.0/LinkingPhraseEnum#decodes%20the%20value%20in> ;
    cosmos_sdtm:object "VSTESTCD" ;
    cosmos_sdtm:predicateTerm <https://www.cdisc.org/cosmos/sdtm_v1.0/PredicateTermEnum#DECODES> ;
    cosmos_sdtm:subject "VSTEST" .

<https://w3id.org/cdisc/cosmos/dss/VS/BMR/VSTESTCD/assignedTerm> a cosmos_sdtm:AssignedTerm ;
    cosmos_sdtm:conceptId NCIT:C126083 ;
    cosmos_sdtm:value "BMR" .

<https://w3id.org/cdisc/cosmos/dss/VS/BMR/VSTESTCD/relationship> a cosmos_sdtm:RelationShip ;
    cosmos_sdtm:linkingPhrase <https://www.cdisc.org/cosmos/sdtm_v1.0/LinkingPhraseEnum#is%20the%20code%20for%20the%20value%20in> ;
    cosmos_sdtm:object "VSTEST" ;
    cosmos_sdtm:predicateTerm <https://www.cdisc.org/cosmos/sdtm_v1.0/PredicateTermEnum#IS_DECODED_BY> ;
    cosmos_sdtm:subject "VSTESTCD" .

<https://w3id.org/cdisc/cosmos/dss/VS/BODLNGTH/VSDTC/relationship> a cosmos_sdtm:RelationShip ;
    cosmos_sdtm:linkingPhrase <https://www.cdisc.org/cosmos/sdtm_v1.0/LinkingPhraseEnum#is%20the%20date%20of%20occurrence%20for> ;
    cosmos_sdtm:object "VSTESTCD" ;
    cosmos_sdtm:predicateTerm <https://www.cdisc.org/cosmos/sdtm_v1.0/PredicateTermEnum#IS_TIMING_FOR> ;
    cosmos_sdtm:subject "VSDTC" .

<https://w3id.org/cdisc/cosmos/dss/VS/BODLNGTH/VSORRES/relationship> a cosmos_sdtm:RelationShip ;
    cosmos_sdtm:linkingPhrase <https://www.cdisc.org/cosmos/sdtm_v1.0/LinkingPhraseEnum#is%20the%20result%20of%20the%20test%20in> ;
    cosmos_sdtm:object "VSTESTCD" ;
    cosmos_sdtm:predicateTerm <https://www.cdisc.org/cosmos/sdtm_v1.0/PredicateTermEnum#IS_RESULT_OF> ;
    cosmos_sdtm:subject "VSORRES" .

<https://w3id.org/cdisc/cosmos/dss/VS/BODLNGTH/VSORRESU/relationship> a cosmos_sdtm:RelationShip ;
    cosmos_sdtm:linkingPhrase <https://www.cdisc.org/cosmos/sdtm_v1.0/LinkingPhraseEnum#is%20the%20unit%20for%20the%20value%20in> ;
    cosmos_sdtm:object "VSORRES" ;
    cosmos_sdtm:predicateTerm <https://www.cdisc.org/cosmos/sdtm_v1.0/PredicateTermEnum#IS_UNIT_FOR> ;
    cosmos_sdtm:subject "VSORRESU" .

<https://w3id.org/cdisc/cosmos/dss/VS/BODLNGTH/VSSTRESC/relationship> a cosmos_sdtm:RelationShip ;
    cosmos_sdtm:linkingPhrase <https://www.cdisc.org/cosmos/sdtm_v1.0/LinkingPhraseEnum#is%20the%20result%20of%20the%20test%20in> ;
    cosmos_sdtm:object "VSTESTCD" ;
    cosmos_sdtm:predicateTerm <https://www.cdisc.org/cosmos/sdtm_v1.0/PredicateTermEnum#IS_RESULT_OF> ;
    cosmos_sdtm:subject "VSSTRESC" .

<https://w3id.org/cdisc/cosmos/dss/VS/BODLNGTH/VSSTRESN/relationship> a cosmos_sdtm:RelationShip ;
    cosmos_sdtm:linkingPhrase <https://www.cdisc.org/cosmos/sdtm_v1.0/LinkingPhraseEnum#is%20the%20result%20of%20the%20test%20in> ;
    cosmos_sdtm:object "VSTESTCD" ;
    cosmos_sdtm:predicateTerm <https://www.cdisc.org/cosmos/sdtm_v1.0/PredicateTermEnum#IS_RESULT_OF> ;
    cosmos_sdtm:subject "VSSTRESN" .

<https://w3id.org/cdisc/cosmos/dss/VS/BODLNGTH/VSSTRESU/relationship> a cosmos_sdtm:RelationShip ;
    cosmos_sdtm:linkingPhrase <https://www.cdisc.org/cosmos/sdtm_v1.0/LinkingPhraseEnum#is%20the%20unit%20for%20the%20value%20in> ;
    cosmos_sdtm:object "VSSTRESN" ;
    cosmos_sdtm:predicateTerm <https://www.cdisc.org/cosmos/sdtm_v1.0/PredicateTermEnum#IS_UNIT_FOR> ;
    cosmos_sdtm:subject "VSSTRESU" .

<https://w3id.org/cdisc/cosmos/dss/VS/BODLNGTH/VSTEST/assignedTerm> a cosmos_sdtm:AssignedTerm ;
    cosmos_sdtm:conceptId NCIT:C81298 ;
    cosmos_sdtm:value "Body Length" .

<https://w3id.org/cdisc/cosmos/dss/VS/BODLNGTH/VSTEST/relationship> a cosmos_sdtm:RelationShip ;
    cosmos_sdtm:linkingPhrase <https://www.cdisc.org/cosmos/sdtm_v1.0/LinkingPhraseEnum#decodes%20the%20value%20in> ;
    cosmos_sdtm:object "VSTESTCD" ;
    cosmos_sdtm:predicateTerm <https://www.cdisc.org/cosmos/sdtm_v1.0/PredicateTermEnum#DECODES> ;
    cosmos_sdtm:subject "VSTEST" .

<https://w3id.org/cdisc/cosmos/dss/VS/BODLNGTH/VSTESTCD/assignedTerm> a cosmos_sdtm:AssignedTerm ;
    cosmos_sdtm:conceptId NCIT:C81298 ;
    cosmos_sdtm:value "BODLNGTH" .

<https://w3id.org/cdisc/cosmos/dss/VS/BODLNGTH/VSTESTCD/relationship> a cosmos_sdtm:RelationShip ;
    cosmos_sdtm:linkingPhrase <https://www.cdisc.org/cosmos/sdtm_v1.0/LinkingPhraseEnum#is%20the%20code%20for%20the%20value%20in> ;
    cosmos_sdtm:object "VSTEST" ;
    cosmos_sdtm:predicateTerm <https://www.cdisc.org/cosmos/sdtm_v1.0/PredicateTermEnum#IS_DECODED_BY> ;
    cosmos_sdtm:subject "VSTESTCD" .

<https://w3id.org/cdisc/cosmos/dss/VS/BODYFATM/VSDTC/relationship> a cosmos_sdtm:RelationShip ;
    cosmos_sdtm:linkingPhrase <https://www.cdisc.org/cosmos/sdtm_v1.0/LinkingPhraseEnum#is%20the%20date%20of%20occurrence%20for> ;
    cosmos_sdtm:object "VSTESTCD" ;
    cosmos_sdtm:predicateTerm <https://www.cdisc.org/cosmos/sdtm_v1.0/PredicateTermEnum#IS_TIMING_FOR> ;
    cosmos_sdtm:subject "VSDTC" .

<https://w3id.org/cdisc/cosmos/dss/VS/BODYFATM/VSORRES/relationship> a cosmos_sdtm:RelationShip ;
    cosmos_sdtm:linkingPhrase <https://www.cdisc.org/cosmos/sdtm_v1.0/LinkingPhraseEnum#is%20the%20result%20of%20the%20test%20in> ;
    cosmos_sdtm:object "VSTESTCD" ;
    cosmos_sdtm:predicateTerm <https://www.cdisc.org/cosmos/sdtm_v1.0/PredicateTermEnum#IS_RESULT_OF> ;
    cosmos_sdtm:subject "VSORRES" .

<https://w3id.org/cdisc/cosmos/dss/VS/BODYFATM/VSORRESU/relationship> a cosmos_sdtm:RelationShip ;
    cosmos_sdtm:linkingPhrase <https://www.cdisc.org/cosmos/sdtm_v1.0/LinkingPhraseEnum#is%20the%20unit%20for%20the%20value%20in> ;
    cosmos_sdtm:object "VSORRES" ;
    cosmos_sdtm:predicateTerm <https://www.cdisc.org/cosmos/sdtm_v1.0/PredicateTermEnum#IS_UNIT_FOR> ;
    cosmos_sdtm:subject "VSORRESU" .

<https://w3id.org/cdisc/cosmos/dss/VS/BODYFATM/VSSTRESC/relationship> a cosmos_sdtm:RelationShip ;
    cosmos_sdtm:linkingPhrase <https://www.cdisc.org/cosmos/sdtm_v1.0/LinkingPhraseEnum#is%20the%20result%20of%20the%20test%20in> ;
    cosmos_sdtm:object "VSTESTCD" ;
    cosmos_sdtm:predicateTerm <https://www.cdisc.org/cosmos/sdtm_v1.0/PredicateTermEnum#IS_RESULT_OF> ;
    cosmos_sdtm:subject "VSSTRESC" .

<https://w3id.org/cdisc/cosmos/dss/VS/BODYFATM/VSSTRESN/relationship> a cosmos_sdtm:RelationShip ;
    cosmos_sdtm:linkingPhrase <https://www.cdisc.org/cosmos/sdtm_v1.0/LinkingPhraseEnum#is%20the%20result%20of%20the%20test%20in> ;
    cosmos_sdtm:object "VSTESTCD" ;
    cosmos_sdtm:predicateTerm <https://www.cdisc.org/cosmos/sdtm_v1.0/PredicateTermEnum#IS_RESULT_OF> ;
    cosmos_sdtm:subject "VSSTRESN" .

<https://w3id.org/cdisc/cosmos/dss/VS/BODYFATM/VSSTRESU/relationship> a cosmos_sdtm:RelationShip ;
    cosmos_sdtm:linkingPhrase <https://www.cdisc.org/cosmos/sdtm_v1.0/LinkingPhraseEnum#is%20the%20unit%20for%20the%20value%20in> ;
    cosmos_sdtm:object "VSSTRESN" ;
    cosmos_sdtm:predicateTerm <https://www.cdisc.org/cosmos/sdtm_v1.0/PredicateTermEnum#IS_UNIT_FOR> ;
    cosmos_sdtm:subject "VSSTRESU" .

<https://w3id.org/cdisc/cosmos/dss/VS/BODYFATM/VSTEST/assignedTerm> a cosmos_sdtm:AssignedTerm ;
    cosmos_sdtm:conceptId NCIT:C122232 ;
    cosmos_sdtm:value "Body Fat Measurement" .

<https://w3id.org/cdisc/cosmos/dss/VS/BODYFATM/VSTEST/relationship> a cosmos_sdtm:RelationShip ;
    cosmos_sdtm:linkingPhrase <https://www.cdisc.org/cosmos/sdtm_v1.0/LinkingPhraseEnum#decodes%20the%20value%20in> ;
    cosmos_sdtm:object "VSTESTCD" ;
    cosmos_sdtm:predicateTerm <https://www.cdisc.org/cosmos/sdtm_v1.0/PredicateTermEnum#DECODES> ;
    cosmos_sdtm:subject "VSTEST" .

<https://w3id.org/cdisc/cosmos/dss/VS/BODYFATM/VSTESTCD/assignedTerm> a cosmos_sdtm:AssignedTerm ;
    cosmos_sdtm:conceptId NCIT:C122232 ;
    cosmos_sdtm:value "BODYFATM" .

<https://w3id.org/cdisc/cosmos/dss/VS/BODYFATM/VSTESTCD/relationship> a cosmos_sdtm:RelationShip ;
    cosmos_sdtm:linkingPhrase <https://www.cdisc.org/cosmos/sdtm_v1.0/LinkingPhraseEnum#is%20the%20code%20for%20the%20value%20in> ;
    cosmos_sdtm:object "VSTEST" ;
    cosmos_sdtm:predicateTerm <https://www.cdisc.org/cosmos/sdtm_v1.0/PredicateTermEnum#IS_DECODED_BY> ;
    cosmos_sdtm:subject "VSTESTCD" .

<https://w3id.org/cdisc/cosmos/dss/VS/BRTHWT/VSDTC/relationship> a cosmos_sdtm:RelationShip ;
    cosmos_sdtm:linkingPhrase <https://www.cdisc.org/cosmos/sdtm_v1.0/LinkingPhraseEnum#is%20the%20date%20of%20occurrence%20for> ;
    cosmos_sdtm:object "VSTESTCD" ;
    cosmos_sdtm:predicateTerm <https://www.cdisc.org/cosmos/sdtm_v1.0/PredicateTermEnum#IS_TIMING_FOR> ;
    cosmos_sdtm:subject "VSDTC" .

<https://w3id.org/cdisc/cosmos/dss/VS/BRTHWT/VSORRES/relationship> a cosmos_sdtm:RelationShip ;
    cosmos_sdtm:linkingPhrase <https://www.cdisc.org/cosmos/sdtm_v1.0/LinkingPhraseEnum#is%20the%20result%20of%20the%20test%20in> ;
    cosmos_sdtm:object "VSTESTCD" ;
    cosmos_sdtm:predicateTerm <https://www.cdisc.org/cosmos/sdtm_v1.0/PredicateTermEnum#IS_RESULT_OF> ;
    cosmos_sdtm:subject "VSORRES" .

<https://w3id.org/cdisc/cosmos/dss/VS/BRTHWT/VSORRESU/relationship> a cosmos_sdtm:RelationShip ;
    cosmos_sdtm:linkingPhrase <https://www.cdisc.org/cosmos/sdtm_v1.0/LinkingPhraseEnum#is%20the%20unit%20for%20the%20value%20in> ;
    cosmos_sdtm:object "VSORRES" ;
    cosmos_sdtm:predicateTerm <https://www.cdisc.org/cosmos/sdtm_v1.0/PredicateTermEnum#IS_UNIT_FOR> ;
    cosmos_sdtm:subject "VSORRESU" .

<https://w3id.org/cdisc/cosmos/dss/VS/BRTHWT/VSSTRESC/relationship> a cosmos_sdtm:RelationShip ;
    cosmos_sdtm:linkingPhrase <https://www.cdisc.org/cosmos/sdtm_v1.0/LinkingPhraseEnum#is%20the%20result%20of%20the%20test%20in> ;
    cosmos_sdtm:object "VSTESTCD" ;
    cosmos_sdtm:predicateTerm <https://www.cdisc.org/cosmos/sdtm_v1.0/PredicateTermEnum#IS_RESULT_OF> ;
    cosmos_sdtm:subject "VSSTRESC" .

<https://w3id.org/cdisc/cosmos/dss/VS/BRTHWT/VSSTRESN/relationship> a cosmos_sdtm:RelationShip ;
    cosmos_sdtm:linkingPhrase <https://www.cdisc.org/cosmos/sdtm_v1.0/LinkingPhraseEnum#is%20the%20result%20of%20the%20test%20in> ;
    cosmos_sdtm:object "VSTESTCD" ;
    cosmos_sdtm:predicateTerm <https://www.cdisc.org/cosmos/sdtm_v1.0/PredicateTermEnum#IS_RESULT_OF> ;
    cosmos_sdtm:subject "VSSTRESN" .

<https://w3id.org/cdisc/cosmos/dss/VS/BRTHWT/VSSTRESU/relationship> a cosmos_sdtm:RelationShip ;
    cosmos_sdtm:linkingPhrase <https://www.cdisc.org/cosmos/sdtm_v1.0/LinkingPhraseEnum#is%20the%20unit%20for%20the%20value%20in> ;
    cosmos_sdtm:object "VSSTRESN" ;
    cosmos_sdtm:predicateTerm <https://www.cdisc.org/cosmos/sdtm_v1.0/PredicateTermEnum#IS_UNIT_FOR> ;
    cosmos_sdtm:subject "VSSTRESU" .

<https://w3id.org/cdisc/cosmos/dss/VS/BRTHWT/VSTEST/assignedTerm> a cosmos_sdtm:AssignedTerm ;
    cosmos_sdtm:conceptId NCIT:C76325 ;
    cosmos_sdtm:value "Birth Weight" .

<https://w3id.org/cdisc/cosmos/dss/VS/BRTHWT/VSTEST/relationship> a cosmos_sdtm:RelationShip ;
    cosmos_sdtm:linkingPhrase <https://www.cdisc.org/cosmos/sdtm_v1.0/LinkingPhraseEnum#decodes%20the%20value%20in> ;
    cosmos_sdtm:object "VSTESTCD" ;
    cosmos_sdtm:predicateTerm <https://www.cdisc.org/cosmos/sdtm_v1.0/PredicateTermEnum#DECODES> ;
    cosmos_sdtm:subject "VSTEST" .

<https://w3id.org/cdisc/cosmos/dss/VS/BRTHWT/VSTESTCD/assignedTerm> a cosmos_sdtm:AssignedTerm ;
    cosmos_sdtm:conceptId NCIT:C76325 ;
    cosmos_sdtm:value "BRTHWT" .

<https://w3id.org/cdisc/cosmos/dss/VS/BRTHWT/VSTESTCD/relationship> a cosmos_sdtm:RelationShip ;
    cosmos_sdtm:linkingPhrase <https://www.cdisc.org/cosmos/sdtm_v1.0/LinkingPhraseEnum#is%20the%20code%20for%20the%20value%20in> ;
    cosmos_sdtm:object "VSTEST" ;
    cosmos_sdtm:predicateTerm <https://www.cdisc.org/cosmos/sdtm_v1.0/PredicateTermEnum#IS_DECODED_BY> ;
    cosmos_sdtm:subject "VSTESTCD" .

<https://w3id.org/cdisc/cosmos/dss/VS/BSA/VSDTC/relationship> a cosmos_sdtm:RelationShip ;
    cosmos_sdtm:linkingPhrase <https://www.cdisc.org/cosmos/sdtm_v1.0/LinkingPhraseEnum#is%20the%20date%20of%20occurrence%20for> ;
    cosmos_sdtm:object "VSTESTCD" ;
    cosmos_sdtm:predicateTerm <https://www.cdisc.org/cosmos/sdtm_v1.0/PredicateTermEnum#IS_TIMING_FOR> ;
    cosmos_sdtm:subject "VSDTC" .

<https://w3id.org/cdisc/cosmos/dss/VS/BSA/VSORRES/relationship> a cosmos_sdtm:RelationShip ;
    cosmos_sdtm:linkingPhrase <https://www.cdisc.org/cosmos/sdtm_v1.0/LinkingPhraseEnum#is%20the%20result%20of%20the%20test%20in> ;
    cosmos_sdtm:object "VSTESTCD" ;
    cosmos_sdtm:predicateTerm <https://www.cdisc.org/cosmos/sdtm_v1.0/PredicateTermEnum#IS_RESULT_OF> ;
    cosmos_sdtm:subject "VSORRES" .

<https://w3id.org/cdisc/cosmos/dss/VS/BSA/VSORRESU/relationship> a cosmos_sdtm:RelationShip ;
    cosmos_sdtm:linkingPhrase <https://www.cdisc.org/cosmos/sdtm_v1.0/LinkingPhraseEnum#is%20the%20unit%20for%20the%20value%20in> ;
    cosmos_sdtm:object "VSORRES" ;
    cosmos_sdtm:predicateTerm <https://www.cdisc.org/cosmos/sdtm_v1.0/PredicateTermEnum#IS_UNIT_FOR> ;
    cosmos_sdtm:subject "VSORRESU" .

<https://w3id.org/cdisc/cosmos/dss/VS/BSA/VSSTRESC/relationship> a cosmos_sdtm:RelationShip ;
    cosmos_sdtm:linkingPhrase <https://www.cdisc.org/cosmos/sdtm_v1.0/LinkingPhraseEnum#is%20the%20result%20of%20the%20test%20in> ;
    cosmos_sdtm:object "VSTESTCD" ;
    cosmos_sdtm:predicateTerm <https://www.cdisc.org/cosmos/sdtm_v1.0/PredicateTermEnum#IS_RESULT_OF> ;
    cosmos_sdtm:subject "VSSTRESC" .

<https://w3id.org/cdisc/cosmos/dss/VS/BSA/VSSTRESN/relationship> a cosmos_sdtm:RelationShip ;
    cosmos_sdtm:linkingPhrase <https://www.cdisc.org/cosmos/sdtm_v1.0/LinkingPhraseEnum#is%20the%20result%20of%20the%20test%20in> ;
    cosmos_sdtm:object "VSTESTCD" ;
    cosmos_sdtm:predicateTerm <https://www.cdisc.org/cosmos/sdtm_v1.0/PredicateTermEnum#IS_RESULT_OF> ;
    cosmos_sdtm:subject "VSSTRESN" .

<https://w3id.org/cdisc/cosmos/dss/VS/BSA/VSSTRESU/relationship> a cosmos_sdtm:RelationShip ;
    cosmos_sdtm:linkingPhrase <https://www.cdisc.org/cosmos/sdtm_v1.0/LinkingPhraseEnum#is%20the%20unit%20for%20the%20value%20in> ;
    cosmos_sdtm:object "VSSTRESN" ;
    cosmos_sdtm:predicateTerm <https://www.cdisc.org/cosmos/sdtm_v1.0/PredicateTermEnum#IS_UNIT_FOR> ;
    cosmos_sdtm:subject "VSSTRESU" .

<https://w3id.org/cdisc/cosmos/dss/VS/BSA/VSTEST/assignedTerm> a cosmos_sdtm:AssignedTerm ;
    cosmos_sdtm:conceptId NCIT:C25157 ;
    cosmos_sdtm:value "Body Surface Area" .

<https://w3id.org/cdisc/cosmos/dss/VS/BSA/VSTEST/relationship> a cosmos_sdtm:RelationShip ;
    cosmos_sdtm:linkingPhrase <https://www.cdisc.org/cosmos/sdtm_v1.0/LinkingPhraseEnum#decodes%20the%20value%20in> ;
    cosmos_sdtm:object "VSTESTCD" ;
    cosmos_sdtm:predicateTerm <https://www.cdisc.org/cosmos/sdtm_v1.0/PredicateTermEnum#DECODES> ;
    cosmos_sdtm:subject "VSTEST" .

<https://w3id.org/cdisc/cosmos/dss/VS/BSA/VSTESTCD/assignedTerm> a cosmos_sdtm:AssignedTerm ;
    cosmos_sdtm:conceptId NCIT:C25157 ;
    cosmos_sdtm:value "BSA" .

<https://w3id.org/cdisc/cosmos/dss/VS/BSA/VSTESTCD/relationship> a cosmos_sdtm:RelationShip ;
    cosmos_sdtm:linkingPhrase <https://www.cdisc.org/cosmos/sdtm_v1.0/LinkingPhraseEnum#is%20the%20code%20for%20the%20value%20in> ;
    cosmos_sdtm:object "VSTEST" ;
    cosmos_sdtm:predicateTerm <https://www.cdisc.org/cosmos/sdtm_v1.0/PredicateTermEnum#IS_DECODED_BY> ;
    cosmos_sdtm:subject "VSTESTCD" .

<https://w3id.org/cdisc/cosmos/dss/VS/CALFCIR/VSDTC/relationship> a cosmos_sdtm:RelationShip ;
    cosmos_sdtm:linkingPhrase <https://www.cdisc.org/cosmos/sdtm_v1.0/LinkingPhraseEnum#is%20the%20date%20of%20occurrence%20for> ;
    cosmos_sdtm:object "VSTESTCD" ;
    cosmos_sdtm:predicateTerm <https://www.cdisc.org/cosmos/sdtm_v1.0/PredicateTermEnum#IS_TIMING_FOR> ;
    cosmos_sdtm:subject "VSDTC" .

<https://w3id.org/cdisc/cosmos/dss/VS/CALFCIR/VSORRES/relationship> a cosmos_sdtm:RelationShip ;
    cosmos_sdtm:linkingPhrase <https://www.cdisc.org/cosmos/sdtm_v1.0/LinkingPhraseEnum#is%20the%20result%20of%20the%20test%20in> ;
    cosmos_sdtm:object "VSTESTCD" ;
    cosmos_sdtm:predicateTerm <https://www.cdisc.org/cosmos/sdtm_v1.0/PredicateTermEnum#IS_RESULT_OF> ;
    cosmos_sdtm:subject "VSORRES" .

<https://w3id.org/cdisc/cosmos/dss/VS/CALFCIR/VSORRESU/relationship> a cosmos_sdtm:RelationShip ;
    cosmos_sdtm:linkingPhrase <https://www.cdisc.org/cosmos/sdtm_v1.0/LinkingPhraseEnum#is%20the%20unit%20for%20the%20value%20in> ;
    cosmos_sdtm:object "VSORRES" ;
    cosmos_sdtm:predicateTerm <https://www.cdisc.org/cosmos/sdtm_v1.0/PredicateTermEnum#IS_UNIT_FOR> ;
    cosmos_sdtm:subject "VSORRESU" .

<https://w3id.org/cdisc/cosmos/dss/VS/CALFCIR/VSSTRESC/relationship> a cosmos_sdtm:RelationShip ;
    cosmos_sdtm:linkingPhrase <https://www.cdisc.org/cosmos/sdtm_v1.0/LinkingPhraseEnum#is%20the%20result%20of%20the%20test%20in> ;
    cosmos_sdtm:object "VSTESTCD" ;
    cosmos_sdtm:predicateTerm <https://www.cdisc.org/cosmos/sdtm_v1.0/PredicateTermEnum#IS_RESULT_OF> ;
    cosmos_sdtm:subject "VSSTRESC" .

<https://w3id.org/cdisc/cosmos/dss/VS/CALFCIR/VSSTRESN/relationship> a cosmos_sdtm:RelationShip ;
    cosmos_sdtm:linkingPhrase <https://www.cdisc.org/cosmos/sdtm_v1.0/LinkingPhraseEnum#is%20the%20result%20of%20the%20test%20in> ;
    cosmos_sdtm:object "VSTESTCD" ;
    cosmos_sdtm:predicateTerm <https://www.cdisc.org/cosmos/sdtm_v1.0/PredicateTermEnum#IS_RESULT_OF> ;
    cosmos_sdtm:subject "VSSTRESN" .

<https://w3id.org/cdisc/cosmos/dss/VS/CALFCIR/VSSTRESU/relationship> a cosmos_sdtm:RelationShip ;
    cosmos_sdtm:linkingPhrase <https://www.cdisc.org/cosmos/sdtm_v1.0/LinkingPhraseEnum#is%20the%20unit%20for%20the%20value%20in> ;
    cosmos_sdtm:object "VSSTRESN" ;
    cosmos_sdtm:predicateTerm <https://www.cdisc.org/cosmos/sdtm_v1.0/PredicateTermEnum#IS_UNIT_FOR> ;
    cosmos_sdtm:subject "VSSTRESU" .

<https://w3id.org/cdisc/cosmos/dss/VS/CALFCIR/VSTEST/assignedTerm> a cosmos_sdtm:AssignedTerm ;
    cosmos_sdtm:conceptId NCIT:C178060 ;
    cosmos_sdtm:value "Calf Circumference" .

<https://w3id.org/cdisc/cosmos/dss/VS/CALFCIR/VSTEST/relationship> a cosmos_sdtm:RelationShip ;
    cosmos_sdtm:linkingPhrase <https://www.cdisc.org/cosmos/sdtm_v1.0/LinkingPhraseEnum#decodes%20the%20value%20in> ;
    cosmos_sdtm:object "VSTESTCD" ;
    cosmos_sdtm:predicateTerm <https://www.cdisc.org/cosmos/sdtm_v1.0/PredicateTermEnum#DECODES> ;
    cosmos_sdtm:subject "VSTEST" .

<https://w3id.org/cdisc/cosmos/dss/VS/CALFCIR/VSTESTCD/assignedTerm> a cosmos_sdtm:AssignedTerm ;
    cosmos_sdtm:conceptId NCIT:C178060 ;
    cosmos_sdtm:value "CALFCIR" .

<https://w3id.org/cdisc/cosmos/dss/VS/CALFCIR/VSTESTCD/relationship> a cosmos_sdtm:RelationShip ;
    cosmos_sdtm:linkingPhrase <https://www.cdisc.org/cosmos/sdtm_v1.0/LinkingPhraseEnum#is%20the%20code%20for%20the%20value%20in> ;
    cosmos_sdtm:object "VSTEST" ;
    cosmos_sdtm:predicateTerm <https://www.cdisc.org/cosmos/sdtm_v1.0/PredicateTermEnum#IS_DECODED_BY> ;
    cosmos_sdtm:subject "VSTESTCD" .

<https://w3id.org/cdisc/cosmos/dss/VS/CHESTCIR/VSDTC/relationship> a cosmos_sdtm:RelationShip ;
    cosmos_sdtm:linkingPhrase <https://www.cdisc.org/cosmos/sdtm_v1.0/LinkingPhraseEnum#is%20the%20date%20of%20occurrence%20for> ;
    cosmos_sdtm:object "VSTESTCD" ;
    cosmos_sdtm:predicateTerm <https://www.cdisc.org/cosmos/sdtm_v1.0/PredicateTermEnum#IS_TIMING_FOR> ;
    cosmos_sdtm:subject "VSDTC" .

<https://w3id.org/cdisc/cosmos/dss/VS/CHESTCIR/VSORRES/relationship> a cosmos_sdtm:RelationShip ;
    cosmos_sdtm:linkingPhrase <https://www.cdisc.org/cosmos/sdtm_v1.0/LinkingPhraseEnum#is%20the%20result%20of%20the%20test%20in> ;
    cosmos_sdtm:object "VSTESTCD" ;
    cosmos_sdtm:predicateTerm <https://www.cdisc.org/cosmos/sdtm_v1.0/PredicateTermEnum#IS_RESULT_OF> ;
    cosmos_sdtm:subject "VSORRES" .

<https://w3id.org/cdisc/cosmos/dss/VS/CHESTCIR/VSORRESU/relationship> a cosmos_sdtm:RelationShip ;
    cosmos_sdtm:linkingPhrase <https://www.cdisc.org/cosmos/sdtm_v1.0/LinkingPhraseEnum#is%20the%20unit%20for%20the%20value%20in> ;
    cosmos_sdtm:object "VSORRES" ;
    cosmos_sdtm:predicateTerm <https://www.cdisc.org/cosmos/sdtm_v1.0/PredicateTermEnum#IS_UNIT_FOR> ;
    cosmos_sdtm:subject "VSORRESU" .

<https://w3id.org/cdisc/cosmos/dss/VS/CHESTCIR/VSSTRESC/relationship> a cosmos_sdtm:RelationShip ;
    cosmos_sdtm:linkingPhrase <https://www.cdisc.org/cosmos/sdtm_v1.0/LinkingPhraseEnum#is%20the%20result%20of%20the%20test%20in> ;
    cosmos_sdtm:object "VSTESTCD" ;
    cosmos_sdtm:predicateTerm <https://www.cdisc.org/cosmos/sdtm_v1.0/PredicateTermEnum#IS_RESULT_OF> ;
    cosmos_sdtm:subject "VSSTRESC" .

<https://w3id.org/cdisc/cosmos/dss/VS/CHESTCIR/VSSTRESN/relationship> a cosmos_sdtm:RelationShip ;
    cosmos_sdtm:linkingPhrase <https://www.cdisc.org/cosmos/sdtm_v1.0/LinkingPhraseEnum#is%20the%20result%20of%20the%20test%20in> ;
    cosmos_sdtm:object "VSTESTCD" ;
    cosmos_sdtm:predicateTerm <https://www.cdisc.org/cosmos/sdtm_v1.0/PredicateTermEnum#IS_RESULT_OF> ;
    cosmos_sdtm:subject "VSSTRESN" .

<https://w3id.org/cdisc/cosmos/dss/VS/CHESTCIR/VSSTRESU/relationship> a cosmos_sdtm:RelationShip ;
    cosmos_sdtm:linkingPhrase <https://www.cdisc.org/cosmos/sdtm_v1.0/LinkingPhraseEnum#is%20the%20unit%20for%20the%20value%20in> ;
    cosmos_sdtm:object "VSSTRESN" ;
    cosmos_sdtm:predicateTerm <https://www.cdisc.org/cosmos/sdtm_v1.0/PredicateTermEnum#IS_UNIT_FOR> ;
    cosmos_sdtm:subject "VSSTRESU" .

<https://w3id.org/cdisc/cosmos/dss/VS/CHESTCIR/VSTEST/assignedTerm> a cosmos_sdtm:AssignedTerm ;
    cosmos_sdtm:conceptId NCIT:C156606 ;
    cosmos_sdtm:value "Chest Circumference" .

<https://w3id.org/cdisc/cosmos/dss/VS/CHESTCIR/VSTEST/relationship> a cosmos_sdtm:RelationShip ;
    cosmos_sdtm:linkingPhrase <https://www.cdisc.org/cosmos/sdtm_v1.0/LinkingPhraseEnum#decodes%20the%20value%20in> ;
    cosmos_sdtm:object "VSTESTCD" ;
    cosmos_sdtm:predicateTerm <https://www.cdisc.org/cosmos/sdtm_v1.0/PredicateTermEnum#DECODES> ;
    cosmos_sdtm:subject "VSTEST" .

<https://w3id.org/cdisc/cosmos/dss/VS/CHESTCIR/VSTESTCD/assignedTerm> a cosmos_sdtm:AssignedTerm ;
    cosmos_sdtm:conceptId NCIT:C156606 ;
    cosmos_sdtm:value "CHESTCIR" .

<https://w3id.org/cdisc/cosmos/dss/VS/CHESTCIR/VSTESTCD/relationship> a cosmos_sdtm:RelationShip ;
    cosmos_sdtm:linkingPhrase <https://www.cdisc.org/cosmos/sdtm_v1.0/LinkingPhraseEnum#is%20the%20code%20for%20the%20value%20in> ;
    cosmos_sdtm:object "VSTEST" ;
    cosmos_sdtm:predicateTerm <https://www.cdisc.org/cosmos/sdtm_v1.0/PredicateTermEnum#IS_DECODED_BY> ;
    cosmos_sdtm:subject "VSTESTCD" .

<https://w3id.org/cdisc/cosmos/dss/VS/CPLRFLT/VSDTC/relationship> a cosmos_sdtm:RelationShip ;
    cosmos_sdtm:linkingPhrase <https://www.cdisc.org/cosmos/sdtm_v1.0/LinkingPhraseEnum#is%20the%20date%20of%20occurrence%20for> ;
    cosmos_sdtm:object "VSTESTCD" ;
    cosmos_sdtm:predicateTerm <https://www.cdisc.org/cosmos/sdtm_v1.0/PredicateTermEnum#IS_TIMING_FOR> ;
    cosmos_sdtm:subject "VSDTC" .

<https://w3id.org/cdisc/cosmos/dss/VS/CPLRFLT/VSORRES/relationship> a cosmos_sdtm:RelationShip ;
    cosmos_sdtm:linkingPhrase <https://www.cdisc.org/cosmos/sdtm_v1.0/LinkingPhraseEnum#is%20the%20result%20of%20the%20test%20in> ;
    cosmos_sdtm:object "VSTESTCD" ;
    cosmos_sdtm:predicateTerm <https://www.cdisc.org/cosmos/sdtm_v1.0/PredicateTermEnum#IS_RESULT_OF> ;
    cosmos_sdtm:subject "VSORRES" .

<https://w3id.org/cdisc/cosmos/dss/VS/CPLRFLT/VSORRESU/relationship> a cosmos_sdtm:RelationShip ;
    cosmos_sdtm:linkingPhrase <https://www.cdisc.org/cosmos/sdtm_v1.0/LinkingPhraseEnum#is%20the%20unit%20for%20the%20value%20in> ;
    cosmos_sdtm:object "VSORRES" ;
    cosmos_sdtm:predicateTerm <https://www.cdisc.org/cosmos/sdtm_v1.0/PredicateTermEnum#IS_UNIT_FOR> ;
    cosmos_sdtm:subject "VSORRESU" .

<https://w3id.org/cdisc/cosmos/dss/VS/CPLRFLT/VSSTRESC/relationship> a cosmos_sdtm:RelationShip ;
    cosmos_sdtm:linkingPhrase <https://www.cdisc.org/cosmos/sdtm_v1.0/LinkingPhraseEnum#is%20the%20result%20of%20the%20test%20in> ;
    cosmos_sdtm:object "VSTESTCD" ;
    cosmos_sdtm:predicateTerm <https://www.cdisc.org/cosmos/sdtm_v1.0/PredicateTermEnum#IS_RESULT_OF> ;
    cosmos_sdtm:subject "VSSTRESC" .

<https://w3id.org/cdisc/cosmos/dss/VS/CPLRFLT/VSSTRESN/relationship> a cosmos_sdtm:RelationShip ;
    cosmos_sdtm:linkingPhrase <https://www.cdisc.org/cosmos/sdtm_v1.0/LinkingPhraseEnum#is%20the%20result%20of%20the%20test%20in> ;
    cosmos_sdtm:object "VSTESTCD" ;
    cosmos_sdtm:predicateTerm <https://www.cdisc.org/cosmos/sdtm_v1.0/PredicateTermEnum#IS_RESULT_OF> ;
    cosmos_sdtm:subject "VSSTRESN" .

<https://w3id.org/cdisc/cosmos/dss/VS/CPLRFLT/VSSTRESU/relationship> a cosmos_sdtm:RelationShip ;
    cosmos_sdtm:linkingPhrase <https://www.cdisc.org/cosmos/sdtm_v1.0/LinkingPhraseEnum#is%20the%20unit%20for%20the%20value%20in> ;
    cosmos_sdtm:object "VSSTRESN" ;
    cosmos_sdtm:predicateTerm <https://www.cdisc.org/cosmos/sdtm_v1.0/PredicateTermEnum#IS_UNIT_FOR> ;
    cosmos_sdtm:subject "VSSTRESU" .

<https://w3id.org/cdisc/cosmos/dss/VS/CPLRFLT/VSTEST/assignedTerm> a cosmos_sdtm:AssignedTerm ;
    cosmos_sdtm:conceptId NCIT:C168125 ;
    cosmos_sdtm:value "Capillary Refill Time" .

<https://w3id.org/cdisc/cosmos/dss/VS/CPLRFLT/VSTEST/relationship> a cosmos_sdtm:RelationShip ;
    cosmos_sdtm:linkingPhrase <https://www.cdisc.org/cosmos/sdtm_v1.0/LinkingPhraseEnum#decodes%20the%20value%20in> ;
    cosmos_sdtm:object "VSTESTCD" ;
    cosmos_sdtm:predicateTerm <https://www.cdisc.org/cosmos/sdtm_v1.0/PredicateTermEnum#DECODES> ;
    cosmos_sdtm:subject "VSTEST" .

<https://w3id.org/cdisc/cosmos/dss/VS/CPLRFLT/VSTESTCD/assignedTerm> a cosmos_sdtm:AssignedTerm ;
    cosmos_sdtm:conceptId NCIT:C168125 ;
    cosmos_sdtm:value "CPLRFLT" .

<https://w3id.org/cdisc/cosmos/dss/VS/CPLRFLT/VSTESTCD/relationship> a cosmos_sdtm:RelationShip ;
    cosmos_sdtm:linkingPhrase <https://www.cdisc.org/cosmos/sdtm_v1.0/LinkingPhraseEnum#is%20the%20code%20for%20the%20value%20in> ;
    cosmos_sdtm:object "VSTEST" ;
    cosmos_sdtm:predicateTerm <https://www.cdisc.org/cosmos/sdtm_v1.0/PredicateTermEnum#IS_DECODED_BY> ;
    cosmos_sdtm:subject "VSTESTCD" .

<https://w3id.org/cdisc/cosmos/dss/VS/CRWNHEEL/VSDTC/relationship> a cosmos_sdtm:RelationShip ;
    cosmos_sdtm:linkingPhrase <https://www.cdisc.org/cosmos/sdtm_v1.0/LinkingPhraseEnum#is%20the%20date%20of%20occurrence%20for> ;
    cosmos_sdtm:object "VSTESTCD" ;
    cosmos_sdtm:predicateTerm <https://www.cdisc.org/cosmos/sdtm_v1.0/PredicateTermEnum#IS_TIMING_FOR> ;
    cosmos_sdtm:subject "VSDTC" .

<https://w3id.org/cdisc/cosmos/dss/VS/CRWNHEEL/VSORRES/relationship> a cosmos_sdtm:RelationShip ;
    cosmos_sdtm:linkingPhrase <https://www.cdisc.org/cosmos/sdtm_v1.0/LinkingPhraseEnum#is%20the%20result%20of%20the%20test%20in> ;
    cosmos_sdtm:object "VSTESTCD" ;
    cosmos_sdtm:predicateTerm <https://www.cdisc.org/cosmos/sdtm_v1.0/PredicateTermEnum#IS_RESULT_OF> ;
    cosmos_sdtm:subject "VSORRES" .

<https://w3id.org/cdisc/cosmos/dss/VS/CRWNHEEL/VSORRESU/relationship> a cosmos_sdtm:RelationShip ;
    cosmos_sdtm:linkingPhrase <https://www.cdisc.org/cosmos/sdtm_v1.0/LinkingPhraseEnum#is%20the%20unit%20for%20the%20value%20in> ;
    cosmos_sdtm:object "VSORRES" ;
    cosmos_sdtm:predicateTerm <https://www.cdisc.org/cosmos/sdtm_v1.0/PredicateTermEnum#IS_UNIT_FOR> ;
    cosmos_sdtm:subject "VSORRESU" .

<https://w3id.org/cdisc/cosmos/dss/VS/CRWNHEEL/VSSTRESC/relationship> a cosmos_sdtm:RelationShip ;
    cosmos_sdtm:linkingPhrase <https://www.cdisc.org/cosmos/sdtm_v1.0/LinkingPhraseEnum#is%20the%20result%20of%20the%20test%20in> ;
    cosmos_sdtm:object "VSTESTCD" ;
    cosmos_sdtm:predicateTerm <https://www.cdisc.org/cosmos/sdtm_v1.0/PredicateTermEnum#IS_RESULT_OF> ;
    cosmos_sdtm:subject "VSSTRESC" .

<https://w3id.org/cdisc/cosmos/dss/VS/CRWNHEEL/VSSTRESN/relationship> a cosmos_sdtm:RelationShip ;
    cosmos_sdtm:linkingPhrase <https://www.cdisc.org/cosmos/sdtm_v1.0/LinkingPhraseEnum#is%20the%20result%20of%20the%20test%20in> ;
    cosmos_sdtm:object "VSTESTCD" ;
    cosmos_sdtm:predicateTerm <https://www.cdisc.org/cosmos/sdtm_v1.0/PredicateTermEnum#IS_RESULT_OF> ;
    cosmos_sdtm:subject "VSSTRESN" .

<https://w3id.org/cdisc/cosmos/dss/VS/CRWNHEEL/VSSTRESU/relationship> a cosmos_sdtm:RelationShip ;
    cosmos_sdtm:linkingPhrase <https://www.cdisc.org/cosmos/sdtm_v1.0/LinkingPhraseEnum#is%20the%20unit%20for%20the%20value%20in> ;
    cosmos_sdtm:object "VSSTRESN" ;
    cosmos_sdtm:predicateTerm <https://www.cdisc.org/cosmos/sdtm_v1.0/PredicateTermEnum#IS_UNIT_FOR> ;
    cosmos_sdtm:subject "VSSTRESU" .

<https://w3id.org/cdisc/cosmos/dss/VS/CRWNHEEL/VSTEST/assignedTerm> a cosmos_sdtm:AssignedTerm ;
    cosmos_sdtm:conceptId NCIT:C170639 ;
    cosmos_sdtm:value "Crown-to-Heel Length" .

<https://w3id.org/cdisc/cosmos/dss/VS/CRWNHEEL/VSTEST/relationship> a cosmos_sdtm:RelationShip ;
    cosmos_sdtm:linkingPhrase <https://www.cdisc.org/cosmos/sdtm_v1.0/LinkingPhraseEnum#decodes%20the%20value%20in> ;
    cosmos_sdtm:object "VSTESTCD" ;
    cosmos_sdtm:predicateTerm <https://www.cdisc.org/cosmos/sdtm_v1.0/PredicateTermEnum#DECODES> ;
    cosmos_sdtm:subject "VSTEST" .

<https://w3id.org/cdisc/cosmos/dss/VS/CRWNHEEL/VSTESTCD/assignedTerm> a cosmos_sdtm:AssignedTerm ;
    cosmos_sdtm:conceptId NCIT:C170639 ;
    cosmos_sdtm:value "CRWNHEEL" .

<https://w3id.org/cdisc/cosmos/dss/VS/CRWNHEEL/VSTESTCD/relationship> a cosmos_sdtm:RelationShip ;
    cosmos_sdtm:linkingPhrase <https://www.cdisc.org/cosmos/sdtm_v1.0/LinkingPhraseEnum#is%20the%20code%20for%20the%20value%20in> ;
    cosmos_sdtm:object "VSTEST" ;
    cosmos_sdtm:predicateTerm <https://www.cdisc.org/cosmos/sdtm_v1.0/PredicateTermEnum#IS_DECODED_BY> ;
    cosmos_sdtm:subject "VSTESTCD" .

<https://w3id.org/cdisc/cosmos/dss/VS/DBPAPCTL/VSDTC/relationship> a cosmos_sdtm:RelationShip ;
    cosmos_sdtm:linkingPhrase <https://www.cdisc.org/cosmos/sdtm_v1.0/LinkingPhraseEnum#is%20the%20date%20of%20occurrence%20for> ;
    cosmos_sdtm:object "VSTESTCD" ;
    cosmos_sdtm:predicateTerm <https://www.cdisc.org/cosmos/sdtm_v1.0/PredicateTermEnum#IS_TIMING_FOR> ;
    cosmos_sdtm:subject "VSDTC" .

<https://w3id.org/cdisc/cosmos/dss/VS/DBPAPCTL/VSORRES/relationship> a cosmos_sdtm:RelationShip ;
    cosmos_sdtm:linkingPhrase <https://www.cdisc.org/cosmos/sdtm_v1.0/LinkingPhraseEnum#is%20the%20result%20of%20the%20test%20in> ;
    cosmos_sdtm:object "VSTESTCD" ;
    cosmos_sdtm:predicateTerm <https://www.cdisc.org/cosmos/sdtm_v1.0/PredicateTermEnum#IS_RESULT_OF> ;
    cosmos_sdtm:subject "VSORRES" .

<https://w3id.org/cdisc/cosmos/dss/VS/DBPAPCTL/VSSTRESC/relationship> a cosmos_sdtm:RelationShip ;
    cosmos_sdtm:linkingPhrase <https://www.cdisc.org/cosmos/sdtm_v1.0/LinkingPhraseEnum#is%20the%20result%20of%20the%20test%20in> ;
    cosmos_sdtm:object "VSTESTCD" ;
    cosmos_sdtm:predicateTerm <https://www.cdisc.org/cosmos/sdtm_v1.0/PredicateTermEnum#IS_RESULT_OF> ;
    cosmos_sdtm:subject "VSSTRESC" .

<https://w3id.org/cdisc/cosmos/dss/VS/DBPAPCTL/VSSTRESN/relationship> a cosmos_sdtm:RelationShip ;
    cosmos_sdtm:linkingPhrase <https://www.cdisc.org/cosmos/sdtm_v1.0/LinkingPhraseEnum#is%20the%20result%20of%20the%20test%20in> ;
    cosmos_sdtm:object "VSTESTCD" ;
    cosmos_sdtm:predicateTerm <https://www.cdisc.org/cosmos/sdtm_v1.0/PredicateTermEnum#IS_RESULT_OF> ;
    cosmos_sdtm:subject "VSSTRESN" .

<https://w3id.org/cdisc/cosmos/dss/VS/DBPAPCTL/VSTEST/assignedTerm> a cosmos_sdtm:AssignedTerm ;
    cosmos_sdtm:conceptId NCIT:C172610 ;
    cosmos_sdtm:value "Diastolic BP-for-Age Percentile" .

<https://w3id.org/cdisc/cosmos/dss/VS/DBPAPCTL/VSTEST/relationship> a cosmos_sdtm:RelationShip ;
    cosmos_sdtm:linkingPhrase <https://www.cdisc.org/cosmos/sdtm_v1.0/LinkingPhraseEnum#decodes%20the%20value%20in> ;
    cosmos_sdtm:object "VSTESTCD" ;
    cosmos_sdtm:predicateTerm <https://www.cdisc.org/cosmos/sdtm_v1.0/PredicateTermEnum#DECODES> ;
    cosmos_sdtm:subject "VSTEST" .

<https://w3id.org/cdisc/cosmos/dss/VS/DBPAPCTL/VSTESTCD/assignedTerm> a cosmos_sdtm:AssignedTerm ;
    cosmos_sdtm:conceptId NCIT:C172610 ;
    cosmos_sdtm:value "DBPAPCTL" .

<https://w3id.org/cdisc/cosmos/dss/VS/DBPAPCTL/VSTESTCD/relationship> a cosmos_sdtm:RelationShip ;
    cosmos_sdtm:linkingPhrase <https://www.cdisc.org/cosmos/sdtm_v1.0/LinkingPhraseEnum#is%20the%20code%20for%20the%20value%20in> ;
    cosmos_sdtm:object "VSTEST" ;
    cosmos_sdtm:predicateTerm <https://www.cdisc.org/cosmos/sdtm_v1.0/PredicateTermEnum#IS_DECODED_BY> ;
    cosmos_sdtm:subject "VSTESTCD" .

<https://w3id.org/cdisc/cosmos/dss/VS/DBPHPCTL/VSDTC/relationship> a cosmos_sdtm:RelationShip ;
    cosmos_sdtm:linkingPhrase <https://www.cdisc.org/cosmos/sdtm_v1.0/LinkingPhraseEnum#is%20the%20date%20of%20occurrence%20for> ;
    cosmos_sdtm:object "VSTESTCD" ;
    cosmos_sdtm:predicateTerm <https://www.cdisc.org/cosmos/sdtm_v1.0/PredicateTermEnum#IS_TIMING_FOR> ;
    cosmos_sdtm:subject "VSDTC" .

<https://w3id.org/cdisc/cosmos/dss/VS/DBPHPCTL/VSORRES/relationship> a cosmos_sdtm:RelationShip ;
    cosmos_sdtm:linkingPhrase <https://www.cdisc.org/cosmos/sdtm_v1.0/LinkingPhraseEnum#is%20the%20result%20of%20the%20test%20in> ;
    cosmos_sdtm:object "VSTESTCD" ;
    cosmos_sdtm:predicateTerm <https://www.cdisc.org/cosmos/sdtm_v1.0/PredicateTermEnum#IS_RESULT_OF> ;
    cosmos_sdtm:subject "VSORRES" .

<https://w3id.org/cdisc/cosmos/dss/VS/DBPHPCTL/VSSTRESC/relationship> a cosmos_sdtm:RelationShip ;
    cosmos_sdtm:linkingPhrase <https://www.cdisc.org/cosmos/sdtm_v1.0/LinkingPhraseEnum#is%20the%20result%20of%20the%20test%20in> ;
    cosmos_sdtm:object "VSTESTCD" ;
    cosmos_sdtm:predicateTerm <https://www.cdisc.org/cosmos/sdtm_v1.0/PredicateTermEnum#IS_RESULT_OF> ;
    cosmos_sdtm:subject "VSSTRESC" .

<https://w3id.org/cdisc/cosmos/dss/VS/DBPHPCTL/VSSTRESN/relationship> a cosmos_sdtm:RelationShip ;
    cosmos_sdtm:linkingPhrase <https://www.cdisc.org/cosmos/sdtm_v1.0/LinkingPhraseEnum#is%20the%20result%20of%20the%20test%20in> ;
    cosmos_sdtm:object "VSTESTCD" ;
    cosmos_sdtm:predicateTerm <https://www.cdisc.org/cosmos/sdtm_v1.0/PredicateTermEnum#IS_RESULT_OF> ;
    cosmos_sdtm:subject "VSSTRESN" .

<https://w3id.org/cdisc/cosmos/dss/VS/DBPHPCTL/VSTEST/assignedTerm> a cosmos_sdtm:AssignedTerm ;
    cosmos_sdtm:conceptId NCIT:C172609 ;
    cosmos_sdtm:value "Diastolic BP-for-Height Percentile" .

<https://w3id.org/cdisc/cosmos/dss/VS/DBPHPCTL/VSTEST/relationship> a cosmos_sdtm:RelationShip ;
    cosmos_sdtm:linkingPhrase <https://www.cdisc.org/cosmos/sdtm_v1.0/LinkingPhraseEnum#decodes%20the%20value%20in> ;
    cosmos_sdtm:object "VSTESTCD" ;
    cosmos_sdtm:predicateTerm <https://www.cdisc.org/cosmos/sdtm_v1.0/PredicateTermEnum#DECODES> ;
    cosmos_sdtm:subject "VSTEST" .

<https://w3id.org/cdisc/cosmos/dss/VS/DBPHPCTL/VSTESTCD/assignedTerm> a cosmos_sdtm:AssignedTerm ;
    cosmos_sdtm:conceptId NCIT:C172609 ;
    cosmos_sdtm:value "DBPHPCTL" .

<https://w3id.org/cdisc/cosmos/dss/VS/DBPHPCTL/VSTESTCD/relationship> a cosmos_sdtm:RelationShip ;
    cosmos_sdtm:linkingPhrase <https://www.cdisc.org/cosmos/sdtm_v1.0/LinkingPhraseEnum#is%20the%20code%20for%20the%20value%20in> ;
    cosmos_sdtm:object "VSTEST" ;
    cosmos_sdtm:predicateTerm <https://www.cdisc.org/cosmos/sdtm_v1.0/PredicateTermEnum#IS_DECODED_BY> ;
    cosmos_sdtm:subject "VSTESTCD" .

<https://w3id.org/cdisc/cosmos/dss/VS/DIABP/VSDTC/relationship> a cosmos_sdtm:RelationShip ;
    cosmos_sdtm:linkingPhrase <https://www.cdisc.org/cosmos/sdtm_v1.0/LinkingPhraseEnum#is%20the%20date%20of%20occurrence%20for> ;
    cosmos_sdtm:object "VSTESTCD" ;
    cosmos_sdtm:predicateTerm <https://www.cdisc.org/cosmos/sdtm_v1.0/PredicateTermEnum#IS_TIMING_FOR> ;
    cosmos_sdtm:subject "VSDTC" .

<https://w3id.org/cdisc/cosmos/dss/VS/DIABP/VSLAT/relationship> a cosmos_sdtm:RelationShip ;
    cosmos_sdtm:linkingPhrase <https://www.cdisc.org/cosmos/sdtm_v1.0/LinkingPhraseEnum#further%20specifies%20the%20anatomical%20location%20in> ;
    cosmos_sdtm:object "VSLOC" ;
    cosmos_sdtm:predicateTerm <https://www.cdisc.org/cosmos/sdtm_v1.0/PredicateTermEnum#SPECIFIES> ;
    cosmos_sdtm:subject "VSLAT" .

<https://w3id.org/cdisc/cosmos/dss/VS/DIABP/VSLOC/relationship> a cosmos_sdtm:RelationShip ;
    cosmos_sdtm:linkingPhrase <https://www.cdisc.org/cosmos/sdtm_v1.0/LinkingPhraseEnum#specifies%20the%20anatomical%20location%20of%20the%20performance%20of%20the%20test%20in> ;
    cosmos_sdtm:object "VSTESTCD" ;
    cosmos_sdtm:predicateTerm <https://www.cdisc.org/cosmos/sdtm_v1.0/PredicateTermEnum#SPECIFIES> ;
    cosmos_sdtm:subject "VSLOC" .

<https://w3id.org/cdisc/cosmos/dss/VS/DIABP/VSORRES/relationship> a cosmos_sdtm:RelationShip ;
    cosmos_sdtm:linkingPhrase <https://www.cdisc.org/cosmos/sdtm_v1.0/LinkingPhraseEnum#is%20the%20result%20of%20the%20test%20in> ;
    cosmos_sdtm:object "VSTESTCD" ;
    cosmos_sdtm:predicateTerm <https://www.cdisc.org/cosmos/sdtm_v1.0/PredicateTermEnum#IS_RESULT_OF> ;
    cosmos_sdtm:subject "VSORRES" .

<https://w3id.org/cdisc/cosmos/dss/VS/DIABP/VSORRESU/assignedTerm> a cosmos_sdtm:AssignedTerm ;
    cosmos_sdtm:conceptId NCIT:C49670 ;
    cosmos_sdtm:value "mmHg" .

<https://w3id.org/cdisc/cosmos/dss/VS/DIABP/VSORRESU/relationship> a cosmos_sdtm:RelationShip ;
    cosmos_sdtm:linkingPhrase <https://www.cdisc.org/cosmos/sdtm_v1.0/LinkingPhraseEnum#is%20the%20unit%20for%20the%20value%20in> ;
    cosmos_sdtm:object "VSORRES" ;
    cosmos_sdtm:predicateTerm <https://www.cdisc.org/cosmos/sdtm_v1.0/PredicateTermEnum#IS_UNIT_FOR> ;
    cosmos_sdtm:subject "VSORRESU" .

<https://w3id.org/cdisc/cosmos/dss/VS/DIABP/VSPOS/relationship> a cosmos_sdtm:RelationShip ;
    cosmos_sdtm:linkingPhrase <https://www.cdisc.org/cosmos/sdtm_v1.0/LinkingPhraseEnum#is%20the%20subject%20position%20during%20performance%20of%20the%20test%20in> ;
    cosmos_sdtm:object "VSTESTCD" ;
    cosmos_sdtm:predicateTerm <https://www.cdisc.org/cosmos/sdtm_v1.0/PredicateTermEnum#IS_SUBJECT_STATE_FOR> ;
    cosmos_sdtm:subject "VSPOS" .

<https://w3id.org/cdisc/cosmos/dss/VS/DIABP/VSSTRESC/relationship> a cosmos_sdtm:RelationShip ;
    cosmos_sdtm:linkingPhrase <https://www.cdisc.org/cosmos/sdtm_v1.0/LinkingPhraseEnum#is%20the%20result%20of%20the%20test%20in> ;
    cosmos_sdtm:object "VSTESTCD" ;
    cosmos_sdtm:predicateTerm <https://www.cdisc.org/cosmos/sdtm_v1.0/PredicateTermEnum#IS_RESULT_OF> ;
    cosmos_sdtm:subject "VSSTRESC" .

<https://w3id.org/cdisc/cosmos/dss/VS/DIABP/VSSTRESN/relationship> a cosmos_sdtm:RelationShip ;
    cosmos_sdtm:linkingPhrase <https://www.cdisc.org/cosmos/sdtm_v1.0/LinkingPhraseEnum#is%20the%20result%20of%20the%20test%20in> ;
    cosmos_sdtm:object "VSTESTCD" ;
    cosmos_sdtm:predicateTerm <https://www.cdisc.org/cosmos/sdtm_v1.0/PredicateTermEnum#IS_RESULT_OF> ;
    cosmos_sdtm:subject "VSSTRESN" .

<https://w3id.org/cdisc/cosmos/dss/VS/DIABP/VSSTRESU/assignedTerm> a cosmos_sdtm:AssignedTerm ;
    cosmos_sdtm:conceptId NCIT:C49670 ;
    cosmos_sdtm:value "mmHg" .

<https://w3id.org/cdisc/cosmos/dss/VS/DIABP/VSSTRESU/relationship> a cosmos_sdtm:RelationShip ;
    cosmos_sdtm:linkingPhrase <https://www.cdisc.org/cosmos/sdtm_v1.0/LinkingPhraseEnum#is%20the%20unit%20for%20the%20value%20in> ;
    cosmos_sdtm:object "VSSTRESN" ;
    cosmos_sdtm:predicateTerm <https://www.cdisc.org/cosmos/sdtm_v1.0/PredicateTermEnum#IS_UNIT_FOR> ;
    cosmos_sdtm:subject "VSSTRESU" .

<https://w3id.org/cdisc/cosmos/dss/VS/DIABP/VSTEST/assignedTerm> a cosmos_sdtm:AssignedTerm ;
    cosmos_sdtm:conceptId NCIT:C25299 ;
    cosmos_sdtm:value "Diastolic Blood Pressure" .

<https://w3id.org/cdisc/cosmos/dss/VS/DIABP/VSTEST/relationship> a cosmos_sdtm:RelationShip ;
    cosmos_sdtm:linkingPhrase <https://www.cdisc.org/cosmos/sdtm_v1.0/LinkingPhraseEnum#decodes%20the%20value%20in> ;
    cosmos_sdtm:object "VSTESTCD" ;
    cosmos_sdtm:predicateTerm <https://www.cdisc.org/cosmos/sdtm_v1.0/PredicateTermEnum#DECODES> ;
    cosmos_sdtm:subject "VSTEST" .

<https://w3id.org/cdisc/cosmos/dss/VS/DIABP/VSTESTCD/assignedTerm> a cosmos_sdtm:AssignedTerm ;
    cosmos_sdtm:conceptId NCIT:C25299 ;
    cosmos_sdtm:value "DIABP" .

<https://w3id.org/cdisc/cosmos/dss/VS/DIABP/VSTESTCD/relationship> a cosmos_sdtm:RelationShip ;
    cosmos_sdtm:linkingPhrase <https://www.cdisc.org/cosmos/sdtm_v1.0/LinkingPhraseEnum#is%20the%20code%20for%20the%20value%20in> ;
    cosmos_sdtm:object "VSTEST" ;
    cosmos_sdtm:predicateTerm <https://www.cdisc.org/cosmos/sdtm_v1.0/PredicateTermEnum#IS_DECODED_BY> ;
    cosmos_sdtm:subject "VSTESTCD" .

<https://w3id.org/cdisc/cosmos/dss/VS/DIABP_EXT/VSDTC/relationship> a cosmos_sdtm:RelationShip ;
    cosmos_sdtm:linkingPhrase <https://www.cdisc.org/cosmos/sdtm_v1.0/LinkingPhraseEnum#is%20the%20date%20of%20occurrence%20for> ;
    cosmos_sdtm:object "VSTESTCD" ;
    cosmos_sdtm:predicateTerm <https://www.cdisc.org/cosmos/sdtm_v1.0/PredicateTermEnum#IS_TIMING_FOR> ;
    cosmos_sdtm:subject "VSDTC" .

<https://w3id.org/cdisc/cosmos/dss/VS/DIABP_EXT/VSLAT/relationship> a cosmos_sdtm:RelationShip ;
    cosmos_sdtm:linkingPhrase <https://www.cdisc.org/cosmos/sdtm_v1.0/LinkingPhraseEnum#further%20specifies%20the%20anatomical%20location%20in> ;
    cosmos_sdtm:object "VSLOC" ;
    cosmos_sdtm:predicateTerm <https://www.cdisc.org/cosmos/sdtm_v1.0/PredicateTermEnum#SPECIFIES> ;
    cosmos_sdtm:subject "VSLAT" .

<https://w3id.org/cdisc/cosmos/dss/VS/DIABP_EXT/VSLOC/relationship> a cosmos_sdtm:RelationShip ;
    cosmos_sdtm:linkingPhrase <https://www.cdisc.org/cosmos/sdtm_v1.0/LinkingPhraseEnum#specifies%20the%20anatomical%20location%20of%20the%20performance%20of%20the%20test%20in> ;
    cosmos_sdtm:object "VSTESTCD" ;
    cosmos_sdtm:predicateTerm <https://www.cdisc.org/cosmos/sdtm_v1.0/PredicateTermEnum#SPECIFIES> ;
    cosmos_sdtm:subject "VSLOC" .

<https://w3id.org/cdisc/cosmos/dss/VS/DIABP_EXT/VSORRES/relationship> a cosmos_sdtm:RelationShip ;
    cosmos_sdtm:linkingPhrase <https://www.cdisc.org/cosmos/sdtm_v1.0/LinkingPhraseEnum#is%20the%20result%20of%20the%20test%20in> ;
    cosmos_sdtm:object "VSTESTCD" ;
    cosmos_sdtm:predicateTerm <https://www.cdisc.org/cosmos/sdtm_v1.0/PredicateTermEnum#IS_RESULT_OF> ;
    cosmos_sdtm:subject "VSORRES" .

<https://w3id.org/cdisc/cosmos/dss/VS/DIABP_EXT/VSORRESU/relationship> a cosmos_sdtm:RelationShip ;
    cosmos_sdtm:linkingPhrase <https://www.cdisc.org/cosmos/sdtm_v1.0/LinkingPhraseEnum#is%20the%20unit%20for%20the%20value%20in> ;
    cosmos_sdtm:object "VSORRES" ;
    cosmos_sdtm:predicateTerm <https://www.cdisc.org/cosmos/sdtm_v1.0/PredicateTermEnum#IS_UNIT_FOR> ;
    cosmos_sdtm:subject "VSORRESU" .

<https://w3id.org/cdisc/cosmos/dss/VS/DIABP_EXT/VSPOS/relationship> a cosmos_sdtm:RelationShip ;
    cosmos_sdtm:linkingPhrase <https://www.cdisc.org/cosmos/sdtm_v1.0/LinkingPhraseEnum#is%20the%20subject%20position%20during%20performance%20of%20the%20test%20in> ;
    cosmos_sdtm:object "VSTESTCD" ;
    cosmos_sdtm:predicateTerm <https://www.cdisc.org/cosmos/sdtm_v1.0/PredicateTermEnum#IS_SUBJECT_STATE_FOR> ;
    cosmos_sdtm:subject "VSPOS" .

<https://w3id.org/cdisc/cosmos/dss/VS/DIABP_EXT/VSSTRESC/relationship> a cosmos_sdtm:RelationShip ;
    cosmos_sdtm:linkingPhrase <https://www.cdisc.org/cosmos/sdtm_v1.0/LinkingPhraseEnum#is%20the%20result%20of%20the%20test%20in> ;
    cosmos_sdtm:object "VSTESTCD" ;
    cosmos_sdtm:predicateTerm <https://www.cdisc.org/cosmos/sdtm_v1.0/PredicateTermEnum#IS_RESULT_OF> ;
    cosmos_sdtm:subject "VSSTRESC" .

<https://w3id.org/cdisc/cosmos/dss/VS/DIABP_EXT/VSSTRESN/relationship> a cosmos_sdtm:RelationShip ;
    cosmos_sdtm:linkingPhrase <https://www.cdisc.org/cosmos/sdtm_v1.0/LinkingPhraseEnum#is%20the%20result%20of%20the%20test%20in> ;
    cosmos_sdtm:object "VSTESTCD" ;
    cosmos_sdtm:predicateTerm <https://www.cdisc.org/cosmos/sdtm_v1.0/PredicateTermEnum#IS_RESULT_OF> ;
    cosmos_sdtm:subject "VSSTRESN" .

<https://w3id.org/cdisc/cosmos/dss/VS/DIABP_EXT/VSSTRESU/relationship> a cosmos_sdtm:RelationShip ;
    cosmos_sdtm:linkingPhrase <https://www.cdisc.org/cosmos/sdtm_v1.0/LinkingPhraseEnum#is%20the%20unit%20for%20the%20value%20in> ;
    cosmos_sdtm:object "VSSTRESN" ;
    cosmos_sdtm:predicateTerm <https://www.cdisc.org/cosmos/sdtm_v1.0/PredicateTermEnum#IS_UNIT_FOR> ;
    cosmos_sdtm:subject "VSSTRESU" .

<https://w3id.org/cdisc/cosmos/dss/VS/DIABP_EXT/VSTEST/assignedTerm> a cosmos_sdtm:AssignedTerm ;
    cosmos_sdtm:conceptId NCIT:C25299 ;
    cosmos_sdtm:value "Diastolic Blood Pressure" .

<https://w3id.org/cdisc/cosmos/dss/VS/DIABP_EXT/VSTEST/relationship> a cosmos_sdtm:RelationShip ;
    cosmos_sdtm:linkingPhrase <https://www.cdisc.org/cosmos/sdtm_v1.0/LinkingPhraseEnum#decodes%20the%20value%20in> ;
    cosmos_sdtm:object "VSTESTCD" ;
    cosmos_sdtm:predicateTerm <https://www.cdisc.org/cosmos/sdtm_v1.0/PredicateTermEnum#DECODES> ;
    cosmos_sdtm:subject "VSTEST" .

<https://w3id.org/cdisc/cosmos/dss/VS/DIABP_EXT/VSTESTCD/assignedTerm> a cosmos_sdtm:AssignedTerm ;
    cosmos_sdtm:conceptId NCIT:C25299 ;
    cosmos_sdtm:value "DIABP" .

<https://w3id.org/cdisc/cosmos/dss/VS/DIABP_EXT/VSTESTCD/relationship> a cosmos_sdtm:RelationShip ;
    cosmos_sdtm:linkingPhrase <https://www.cdisc.org/cosmos/sdtm_v1.0/LinkingPhraseEnum#is%20the%20code%20for%20the%20value%20in> ;
    cosmos_sdtm:object "VSTEST" ;
    cosmos_sdtm:predicateTerm <https://www.cdisc.org/cosmos/sdtm_v1.0/PredicateTermEnum#IS_DECODED_BY> ;
    cosmos_sdtm:subject "VSTESTCD" .

<https://w3id.org/cdisc/cosmos/dss/VS/ECW/VSDTC/relationship> a cosmos_sdtm:RelationShip ;
    cosmos_sdtm:linkingPhrase <https://www.cdisc.org/cosmos/sdtm_v1.0/LinkingPhraseEnum#is%20the%20date%20of%20occurrence%20for> ;
    cosmos_sdtm:object "VSTESTCD" ;
    cosmos_sdtm:predicateTerm <https://www.cdisc.org/cosmos/sdtm_v1.0/PredicateTermEnum#IS_TIMING_FOR> ;
    cosmos_sdtm:subject "VSDTC" .

<https://w3id.org/cdisc/cosmos/dss/VS/ECW/VSORRES/relationship> a cosmos_sdtm:RelationShip ;
    cosmos_sdtm:linkingPhrase <https://www.cdisc.org/cosmos/sdtm_v1.0/LinkingPhraseEnum#is%20the%20result%20of%20the%20test%20in> ;
    cosmos_sdtm:object "VSTESTCD" ;
    cosmos_sdtm:predicateTerm <https://www.cdisc.org/cosmos/sdtm_v1.0/PredicateTermEnum#IS_RESULT_OF> ;
    cosmos_sdtm:subject "VSORRES" .

<https://w3id.org/cdisc/cosmos/dss/VS/ECW/VSORRESU/relationship> a cosmos_sdtm:RelationShip ;
    cosmos_sdtm:linkingPhrase <https://www.cdisc.org/cosmos/sdtm_v1.0/LinkingPhraseEnum#is%20the%20unit%20for%20the%20value%20in> ;
    cosmos_sdtm:object "VSORRES" ;
    cosmos_sdtm:predicateTerm <https://www.cdisc.org/cosmos/sdtm_v1.0/PredicateTermEnum#IS_UNIT_FOR> ;
    cosmos_sdtm:subject "VSORRESU" .

<https://w3id.org/cdisc/cosmos/dss/VS/ECW/VSSTRESC/relationship> a cosmos_sdtm:RelationShip ;
    cosmos_sdtm:linkingPhrase <https://www.cdisc.org/cosmos/sdtm_v1.0/LinkingPhraseEnum#is%20the%20result%20of%20the%20test%20in> ;
    cosmos_sdtm:object "VSTESTCD" ;
    cosmos_sdtm:predicateTerm <https://www.cdisc.org/cosmos/sdtm_v1.0/PredicateTermEnum#IS_RESULT_OF> ;
    cosmos_sdtm:subject "VSSTRESC" .

<https://w3id.org/cdisc/cosmos/dss/VS/ECW/VSSTRESN/relationship> a cosmos_sdtm:RelationShip ;
    cosmos_sdtm:linkingPhrase <https://www.cdisc.org/cosmos/sdtm_v1.0/LinkingPhraseEnum#is%20the%20result%20of%20the%20test%20in> ;
    cosmos_sdtm:object "VSTESTCD" ;
    cosmos_sdtm:predicateTerm <https://www.cdisc.org/cosmos/sdtm_v1.0/PredicateTermEnum#IS_RESULT_OF> ;
    cosmos_sdtm:subject "VSSTRESN" .

<https://w3id.org/cdisc/cosmos/dss/VS/ECW/VSSTRESU/relationship> a cosmos_sdtm:RelationShip ;
    cosmos_sdtm:linkingPhrase <https://www.cdisc.org/cosmos/sdtm_v1.0/LinkingPhraseEnum#is%20the%20unit%20for%20the%20value%20in> ;
    cosmos_sdtm:object "VSSTRESN" ;
    cosmos_sdtm:predicateTerm <https://www.cdisc.org/cosmos/sdtm_v1.0/PredicateTermEnum#IS_UNIT_FOR> ;
    cosmos_sdtm:subject "VSSTRESU" .

<https://w3id.org/cdisc/cosmos/dss/VS/ECW/VSTEST/assignedTerm> a cosmos_sdtm:AssignedTerm ;
    cosmos_sdtm:conceptId NCIT:C191364 ;
    cosmos_sdtm:value "Extracellular Water" .

<https://w3id.org/cdisc/cosmos/dss/VS/ECW/VSTEST/relationship> a cosmos_sdtm:RelationShip ;
    cosmos_sdtm:linkingPhrase <https://www.cdisc.org/cosmos/sdtm_v1.0/LinkingPhraseEnum#decodes%20the%20value%20in> ;
    cosmos_sdtm:object "VSTESTCD" ;
    cosmos_sdtm:predicateTerm <https://www.cdisc.org/cosmos/sdtm_v1.0/PredicateTermEnum#DECODES> ;
    cosmos_sdtm:subject "VSTEST" .

<https://w3id.org/cdisc/cosmos/dss/VS/ECW/VSTESTCD/assignedTerm> a cosmos_sdtm:AssignedTerm ;
    cosmos_sdtm:conceptId NCIT:C191364 ;
    cosmos_sdtm:value "ECW" .

<https://w3id.org/cdisc/cosmos/dss/VS/ECW/VSTESTCD/relationship> a cosmos_sdtm:RelationShip ;
    cosmos_sdtm:linkingPhrase <https://www.cdisc.org/cosmos/sdtm_v1.0/LinkingPhraseEnum#is%20the%20code%20for%20the%20value%20in> ;
    cosmos_sdtm:object "VSTEST" ;
    cosmos_sdtm:predicateTerm <https://www.cdisc.org/cosmos/sdtm_v1.0/PredicateTermEnum#IS_DECODED_BY> ;
    cosmos_sdtm:subject "VSTESTCD" .

<https://w3id.org/cdisc/cosmos/dss/VS/ECWTBW/VSDTC/relationship> a cosmos_sdtm:RelationShip ;
    cosmos_sdtm:linkingPhrase <https://www.cdisc.org/cosmos/sdtm_v1.0/LinkingPhraseEnum#is%20the%20date%20of%20occurrence%20for> ;
    cosmos_sdtm:object "VSTESTCD" ;
    cosmos_sdtm:predicateTerm <https://www.cdisc.org/cosmos/sdtm_v1.0/PredicateTermEnum#IS_TIMING_FOR> ;
    cosmos_sdtm:subject "VSDTC" .

<https://w3id.org/cdisc/cosmos/dss/VS/ECWTBW/VSORRES/relationship> a cosmos_sdtm:RelationShip ;
    cosmos_sdtm:linkingPhrase <https://www.cdisc.org/cosmos/sdtm_v1.0/LinkingPhraseEnum#is%20the%20result%20of%20the%20test%20in> ;
    cosmos_sdtm:object "VSTESTCD" ;
    cosmos_sdtm:predicateTerm <https://www.cdisc.org/cosmos/sdtm_v1.0/PredicateTermEnum#IS_RESULT_OF> ;
    cosmos_sdtm:subject "VSORRES" .

<https://w3id.org/cdisc/cosmos/dss/VS/ECWTBW/VSORRESU/relationship> a cosmos_sdtm:RelationShip ;
    cosmos_sdtm:linkingPhrase <https://www.cdisc.org/cosmos/sdtm_v1.0/LinkingPhraseEnum#is%20the%20unit%20for%20the%20value%20in> ;
    cosmos_sdtm:object "VSORRES" ;
    cosmos_sdtm:predicateTerm <https://www.cdisc.org/cosmos/sdtm_v1.0/PredicateTermEnum#IS_UNIT_FOR> ;
    cosmos_sdtm:subject "VSORRESU" .

<https://w3id.org/cdisc/cosmos/dss/VS/ECWTBW/VSSTRESC/relationship> a cosmos_sdtm:RelationShip ;
    cosmos_sdtm:linkingPhrase <https://www.cdisc.org/cosmos/sdtm_v1.0/LinkingPhraseEnum#is%20the%20result%20of%20the%20test%20in> ;
    cosmos_sdtm:object "VSTESTCD" ;
    cosmos_sdtm:predicateTerm <https://www.cdisc.org/cosmos/sdtm_v1.0/PredicateTermEnum#IS_RESULT_OF> ;
    cosmos_sdtm:subject "VSSTRESC" .

<https://w3id.org/cdisc/cosmos/dss/VS/ECWTBW/VSSTRESN/relationship> a cosmos_sdtm:RelationShip ;
    cosmos_sdtm:linkingPhrase <https://www.cdisc.org/cosmos/sdtm_v1.0/LinkingPhraseEnum#is%20the%20result%20of%20the%20test%20in> ;
    cosmos_sdtm:object "VSTESTCD" ;
    cosmos_sdtm:predicateTerm <https://www.cdisc.org/cosmos/sdtm_v1.0/PredicateTermEnum#IS_RESULT_OF> ;
    cosmos_sdtm:subject "VSSTRESN" .

<https://w3id.org/cdisc/cosmos/dss/VS/ECWTBW/VSSTRESU/relationship> a cosmos_sdtm:RelationShip ;
    cosmos_sdtm:linkingPhrase <https://www.cdisc.org/cosmos/sdtm_v1.0/LinkingPhraseEnum#is%20the%20unit%20for%20the%20value%20in> ;
    cosmos_sdtm:object "VSSTRESN" ;
    cosmos_sdtm:predicateTerm <https://www.cdisc.org/cosmos/sdtm_v1.0/PredicateTermEnum#IS_UNIT_FOR> ;
    cosmos_sdtm:subject "VSSTRESU" .

<https://w3id.org/cdisc/cosmos/dss/VS/ECWTBW/VSTEST/assignedTerm> a cosmos_sdtm:AssignedTerm ;
    cosmos_sdtm:conceptId NCIT:C191363 ;
    cosmos_sdtm:value "Extracellular Water/Total Body Water" .

<https://w3id.org/cdisc/cosmos/dss/VS/ECWTBW/VSTEST/relationship> a cosmos_sdtm:RelationShip ;
    cosmos_sdtm:linkingPhrase <https://www.cdisc.org/cosmos/sdtm_v1.0/LinkingPhraseEnum#decodes%20the%20value%20in> ;
    cosmos_sdtm:object "VSTESTCD" ;
    cosmos_sdtm:predicateTerm <https://www.cdisc.org/cosmos/sdtm_v1.0/PredicateTermEnum#DECODES> ;
    cosmos_sdtm:subject "VSTEST" .

<https://w3id.org/cdisc/cosmos/dss/VS/ECWTBW/VSTESTCD/assignedTerm> a cosmos_sdtm:AssignedTerm ;
    cosmos_sdtm:conceptId NCIT:C191363 ;
    cosmos_sdtm:value "ECWTBW" .

<https://w3id.org/cdisc/cosmos/dss/VS/ECWTBW/VSTESTCD/relationship> a cosmos_sdtm:RelationShip ;
    cosmos_sdtm:linkingPhrase <https://www.cdisc.org/cosmos/sdtm_v1.0/LinkingPhraseEnum#is%20the%20code%20for%20the%20value%20in> ;
    cosmos_sdtm:object "VSTEST" ;
    cosmos_sdtm:predicateTerm <https://www.cdisc.org/cosmos/sdtm_v1.0/PredicateTermEnum#IS_DECODED_BY> ;
    cosmos_sdtm:subject "VSTESTCD" .

<https://w3id.org/cdisc/cosmos/dss/VS/ENRGEXP/VSDTC/relationship> a cosmos_sdtm:RelationShip ;
    cosmos_sdtm:linkingPhrase <https://www.cdisc.org/cosmos/sdtm_v1.0/LinkingPhraseEnum#is%20the%20date%20of%20occurrence%20for> ;
    cosmos_sdtm:object "VSTESTCD" ;
    cosmos_sdtm:predicateTerm <https://www.cdisc.org/cosmos/sdtm_v1.0/PredicateTermEnum#IS_TIMING_FOR> ;
    cosmos_sdtm:subject "VSDTC" .

<https://w3id.org/cdisc/cosmos/dss/VS/ENRGEXP/VSORRES/relationship> a cosmos_sdtm:RelationShip ;
    cosmos_sdtm:linkingPhrase <https://www.cdisc.org/cosmos/sdtm_v1.0/LinkingPhraseEnum#is%20the%20result%20of%20the%20test%20in> ;
    cosmos_sdtm:object "VSTESTCD" ;
    cosmos_sdtm:predicateTerm <https://www.cdisc.org/cosmos/sdtm_v1.0/PredicateTermEnum#IS_RESULT_OF> ;
    cosmos_sdtm:subject "VSORRES" .

