@prefix NCIT: <http://purl.obolibrary.org/obo/NCIT_> .
@prefix cosmos_sdtm: <https://www.cdisc.org/cosmos/sdtm_v1.0/> .
@prefix dcterms: <http://purl.org/dc/terms/> .
@prefix owl: <http://www.w3.org/2002/07/owl#> .
@prefix rdf: <http://www.w3.org/1999/02/22-rdf-syntax-ns#> .
@prefix rdfs: <http://www.w3.org/2000/01/rdf-schema#> .
@prefix skos: <http://www.w3.org/2004/02/skos/core#> .
@prefix xsd: <http://www.w3.org/2001/XMLSchema#> .

<https://w3id.org/cdisc/cosmos/dss/TU> a owl:Ontology ;
    rdfs:label "CDISC COSMoS Dataset Specializations, TU (instances)" ;
    dcterms:identifier "2026-07-14" ;
    dcterms:source <https://raw.githubusercontent.com/cdisc-org/COSMoS/031429b1d14823721991cd23ee88a11616686ce3/export/cdisc_sdtm_dataset_specializations_latest.csv> ;
    rdfs:comment "Dataset Specialization instances for domain TU, rendered from the pinned COSMoS export. Variable order is the export's row order, carried as rdf:_n membership beside the variables edges. length and significantDigits are cast from the export's decimal form to integer; packageType is not in the export and is set to the enum's single value. A biomedicalConceptId or dataElementConceptId that resolves to no node is carried as the published string. The concept nodes those edges reach are declared in the Biomedical Concept instance graph, which is not imported. Draft - not a normative CDISC artifact." ;
    owl:imports <https://w3id.org/cdisc/cosmos/sdtm/> ;
    owl:versionIRI <https://w3id.org/cdisc/cosmos/dss/TU/0.4.0> ;
    owl:versionInfo "v0.4.0" .

<https://w3id.org/cdisc/cosmos/dss/TU/DRCRLTLC> a cosmos_sdtm:SDTMGroup ;
    dcterms:identifier "DRCRLTLC" ;
    rdf:_1 <https://w3id.org/cdisc/cosmos/dss/TU/DRCRLTLC/TUTESTCD> ;
    rdf:_2 <https://w3id.org/cdisc/cosmos/dss/TU/DRCRLTLC/TUTEST> ;
    rdf:_3 <https://w3id.org/cdisc/cosmos/dss/TU/DRCRLTLC/TUORRES> ;
    rdf:_4 <https://w3id.org/cdisc/cosmos/dss/TU/DRCRLTLC/TUSTRESC> ;
    rdf:_5 <https://w3id.org/cdisc/cosmos/dss/TU/DRCRLTLC/TUEVAL> ;
    rdf:_6 <https://w3id.org/cdisc/cosmos/dss/TU/DRCRLTLC/TUEVALID> ;
    rdf:_7 <https://w3id.org/cdisc/cosmos/dss/TU/DRCRLTLC/TUDTC> ;
    cosmos_sdtm:biomedicalConceptId NCIT:C123633 ;
    cosmos_sdtm:domain "TU" ;
    cosmos_sdtm:packageDate "2026-07-14"^^xsd:date ;
    cosmos_sdtm:packageType <https://www.cdisc.org/cosmos/sdtm_v1.0/PackageTypeEnum#sdtm> ;
    cosmos_sdtm:sdtmigStartVersion "3-2" ;
    cosmos_sdtm:shortName "Disease Recurrence Relative Location" ;
    cosmos_sdtm:source "TU.TUTESTCD" ;
    cosmos_sdtm:variables <https://w3id.org/cdisc/cosmos/dss/TU/DRCRLTLC/TUDTC>,
        <https://w3id.org/cdisc/cosmos/dss/TU/DRCRLTLC/TUEVAL>,
        <https://w3id.org/cdisc/cosmos/dss/TU/DRCRLTLC/TUEVALID>,
        <https://w3id.org/cdisc/cosmos/dss/TU/DRCRLTLC/TUORRES>,
        <https://w3id.org/cdisc/cosmos/dss/TU/DRCRLTLC/TUSTRESC>,
        <https://w3id.org/cdisc/cosmos/dss/TU/DRCRLTLC/TUTEST>,
        <https://w3id.org/cdisc/cosmos/dss/TU/DRCRLTLC/TUTESTCD> .

<https://w3id.org/cdisc/cosmos/dss/TU/NTIND> a cosmos_sdtm:SDTMGroup ;
    dcterms:identifier "NTIND" ;
    rdf:_1 <https://w3id.org/cdisc/cosmos/dss/TU/NTIND/TUTESTCD> ;
    rdf:_2 <https://w3id.org/cdisc/cosmos/dss/TU/NTIND/TUTEST> ;
    rdf:_3 <https://w3id.org/cdisc/cosmos/dss/TU/NTIND/TUORRES> ;
    rdf:_4 <https://w3id.org/cdisc/cosmos/dss/TU/NTIND/TUSTRESC> ;
    rdf:_5 <https://w3id.org/cdisc/cosmos/dss/TU/NTIND/TUEVAL> ;
    rdf:_6 <https://w3id.org/cdisc/cosmos/dss/TU/NTIND/TUEVALID> ;
    rdf:_7 <https://w3id.org/cdisc/cosmos/dss/TU/NTIND/TUDTC> ;
    cosmos_sdtm:biomedicalConceptId NCIT:C161483 ;
    cosmos_sdtm:domain "TU" ;
    cosmos_sdtm:packageDate "2026-05-26"^^xsd:date ;
    cosmos_sdtm:packageType <https://www.cdisc.org/cosmos/sdtm_v1.0/PackageTypeEnum#sdtm> ;
    cosmos_sdtm:sdtmigStartVersion "3-2" ;
    cosmos_sdtm:shortName "Non-Target Indicator" ;
    cosmos_sdtm:source "TU.TUTESTCD" ;
    cosmos_sdtm:variables <https://w3id.org/cdisc/cosmos/dss/TU/NTIND/TUDTC>,
        <https://w3id.org/cdisc/cosmos/dss/TU/NTIND/TUEVAL>,
        <https://w3id.org/cdisc/cosmos/dss/TU/NTIND/TUEVALID>,
        <https://w3id.org/cdisc/cosmos/dss/TU/NTIND/TUORRES>,
        <https://w3id.org/cdisc/cosmos/dss/TU/NTIND/TUSTRESC>,
        <https://w3id.org/cdisc/cosmos/dss/TU/NTIND/TUTEST>,
        <https://w3id.org/cdisc/cosmos/dss/TU/NTIND/TUTESTCD> .

<https://w3id.org/cdisc/cosmos/dss/TU/NTIND_RECIST1_1> a cosmos_sdtm:SDTMGroup ;
    dcterms:identifier "NTIND_RECIST1_1" ;
    rdf:_1 <https://w3id.org/cdisc/cosmos/dss/TU/NTIND_RECIST1_1/TUTESTCD> ;
    rdf:_2 <https://w3id.org/cdisc/cosmos/dss/TU/NTIND_RECIST1_1/TUTEST> ;
    rdf:_3 <https://w3id.org/cdisc/cosmos/dss/TU/NTIND_RECIST1_1/TUORRES> ;
    rdf:_4 <https://w3id.org/cdisc/cosmos/dss/TU/NTIND_RECIST1_1/TUSTRESC> ;
    rdf:_5 <https://w3id.org/cdisc/cosmos/dss/TU/NTIND_RECIST1_1/TUEVAL> ;
    rdf:_6 <https://w3id.org/cdisc/cosmos/dss/TU/NTIND_RECIST1_1/TUDTC> ;
    cosmos_sdtm:biomedicalConceptId NCIT:C161483 ;
    cosmos_sdtm:domain "TU" ;
    cosmos_sdtm:packageDate "2026-05-26"^^xsd:date ;
    cosmos_sdtm:packageType <https://www.cdisc.org/cosmos/sdtm_v1.0/PackageTypeEnum#sdtm> ;
    cosmos_sdtm:sdtmigStartVersion "3-2" ;
    cosmos_sdtm:shortName "Non-Target Indicator (RECIST 1.1 Classification)" ;
    cosmos_sdtm:source "TU.TUTESTCD" ;
    cosmos_sdtm:variables <https://w3id.org/cdisc/cosmos/dss/TU/NTIND_RECIST1_1/TUDTC>,
        <https://w3id.org/cdisc/cosmos/dss/TU/NTIND_RECIST1_1/TUEVAL>,
        <https://w3id.org/cdisc/cosmos/dss/TU/NTIND_RECIST1_1/TUORRES>,
        <https://w3id.org/cdisc/cosmos/dss/TU/NTIND_RECIST1_1/TUSTRESC>,
        <https://w3id.org/cdisc/cosmos/dss/TU/NTIND_RECIST1_1/TUTEST>,
        <https://w3id.org/cdisc/cosmos/dss/TU/NTIND_RECIST1_1/TUTESTCD> .

<https://w3id.org/cdisc/cosmos/dss/TU/TIND> a cosmos_sdtm:SDTMGroup ;
    dcterms:identifier "TIND" ;
    rdf:_1 <https://w3id.org/cdisc/cosmos/dss/TU/TIND/TUTESTCD> ;
    rdf:_2 <https://w3id.org/cdisc/cosmos/dss/TU/TIND/TUTEST> ;
    rdf:_3 <https://w3id.org/cdisc/cosmos/dss/TU/TIND/TUORRES> ;
    rdf:_4 <https://w3id.org/cdisc/cosmos/dss/TU/TIND/TUSTRESC> ;
    rdf:_5 <https://w3id.org/cdisc/cosmos/dss/TU/TIND/TUEVAL> ;
    rdf:_6 <https://w3id.org/cdisc/cosmos/dss/TU/TIND/TUEVALID> ;
    rdf:_7 <https://w3id.org/cdisc/cosmos/dss/TU/TIND/TUDTC> ;
    cosmos_sdtm:biomedicalConceptId NCIT:C178053 ;
    cosmos_sdtm:domain "TU" ;
    cosmos_sdtm:packageDate "2026-05-26"^^xsd:date ;
    cosmos_sdtm:packageType <https://www.cdisc.org/cosmos/sdtm_v1.0/PackageTypeEnum#sdtm> ;
    cosmos_sdtm:sdtmigStartVersion "3-2" ;
    cosmos_sdtm:shortName "Target Indicator" ;
    cosmos_sdtm:source "TU.TUTESTCD" ;
    cosmos_sdtm:variables <https://w3id.org/cdisc/cosmos/dss/TU/TIND/TUDTC>,
        <https://w3id.org/cdisc/cosmos/dss/TU/TIND/TUEVAL>,
        <https://w3id.org/cdisc/cosmos/dss/TU/TIND/TUEVALID>,
        <https://w3id.org/cdisc/cosmos/dss/TU/TIND/TUORRES>,
        <https://w3id.org/cdisc/cosmos/dss/TU/TIND/TUSTRESC>,
        <https://w3id.org/cdisc/cosmos/dss/TU/TIND/TUTEST>,
        <https://w3id.org/cdisc/cosmos/dss/TU/TIND/TUTESTCD> .

<https://w3id.org/cdisc/cosmos/dss/TU/TIND_RECIST1_1> a cosmos_sdtm:SDTMGroup ;
    dcterms:identifier "TIND_RECIST1_1" ;
    rdf:_1 <https://w3id.org/cdisc/cosmos/dss/TU/TIND_RECIST1_1/TUTESTCD> ;
    rdf:_2 <https://w3id.org/cdisc/cosmos/dss/TU/TIND_RECIST1_1/TUTEST> ;
    rdf:_3 <https://w3id.org/cdisc/cosmos/dss/TU/TIND_RECIST1_1/TUORRES> ;
    rdf:_4 <https://w3id.org/cdisc/cosmos/dss/TU/TIND_RECIST1_1/TUSTRESC> ;
    rdf:_5 <https://w3id.org/cdisc/cosmos/dss/TU/TIND_RECIST1_1/TUEVAL> ;
    rdf:_6 <https://w3id.org/cdisc/cosmos/dss/TU/TIND_RECIST1_1/TUDTC> ;
    cosmos_sdtm:biomedicalConceptId NCIT:C178053 ;
    cosmos_sdtm:domain "TU" ;
    cosmos_sdtm:packageDate "2026-05-26"^^xsd:date ;
    cosmos_sdtm:packageType <https://www.cdisc.org/cosmos/sdtm_v1.0/PackageTypeEnum#sdtm> ;
    cosmos_sdtm:sdtmigStartVersion "3-2" ;
    cosmos_sdtm:shortName "Target Indicator (RECIST 1.1 Classification)" ;
    cosmos_sdtm:source "TU.TUTESTCD" ;
    cosmos_sdtm:variables <https://w3id.org/cdisc/cosmos/dss/TU/TIND_RECIST1_1/TUDTC>,
        <https://w3id.org/cdisc/cosmos/dss/TU/TIND_RECIST1_1/TUEVAL>,
        <https://w3id.org/cdisc/cosmos/dss/TU/TIND_RECIST1_1/TUORRES>,
        <https://w3id.org/cdisc/cosmos/dss/TU/TIND_RECIST1_1/TUSTRESC>,
        <https://w3id.org/cdisc/cosmos/dss/TU/TIND_RECIST1_1/TUTEST>,
        <https://w3id.org/cdisc/cosmos/dss/TU/TIND_RECIST1_1/TUTESTCD> .

<https://w3id.org/cdisc/cosmos/dss/TU/TUMERGE> a cosmos_sdtm:SDTMGroup ;
    dcterms:identifier "TUMERGE" ;
    rdf:_1 <https://w3id.org/cdisc/cosmos/dss/TU/TUMERGE/TUTESTCD> ;
    rdf:_10 <https://w3id.org/cdisc/cosmos/dss/TU/TUMERGE/TUEVALID> ;
    rdf:_11 <https://w3id.org/cdisc/cosmos/dss/TU/TUMERGE/TUREFID> ;
    rdf:_12 <https://w3id.org/cdisc/cosmos/dss/TU/TUMERGE/TULNKID> ;
    rdf:_13 <https://w3id.org/cdisc/cosmos/dss/TU/TUMERGE/TUDTC> ;
    rdf:_2 <https://w3id.org/cdisc/cosmos/dss/TU/TUMERGE/TUTEST> ;
    rdf:_3 <https://w3id.org/cdisc/cosmos/dss/TU/TUMERGE/TUORRES> ;
    rdf:_4 <https://w3id.org/cdisc/cosmos/dss/TU/TUMERGE/TUSTRESC> ;
    rdf:_5 <https://w3id.org/cdisc/cosmos/dss/TU/TUMERGE/TULOC> ;
    rdf:_6 <https://w3id.org/cdisc/cosmos/dss/TU/TUMERGE/TULAT> ;
    rdf:_7 <https://w3id.org/cdisc/cosmos/dss/TU/TUMERGE/TUDIR> ;
    rdf:_8 <https://w3id.org/cdisc/cosmos/dss/TU/TUMERGE/TUMETHOD> ;
    rdf:_9 <https://w3id.org/cdisc/cosmos/dss/TU/TUMERGE/TUEVAL> ;
    cosmos_sdtm:biomedicalConceptId NCIT:C225437 ;
    cosmos_sdtm:domain "TU" ;
    cosmos_sdtm:packageDate "2026-05-26"^^xsd:date ;
    cosmos_sdtm:packageType <https://www.cdisc.org/cosmos/sdtm_v1.0/PackageTypeEnum#sdtm> ;
    cosmos_sdtm:sdtmigStartVersion "3-2" ;
    cosmos_sdtm:shortName "Tumor Merged" ;
    cosmos_sdtm:source "TU.TUTESTCD" ;
    cosmos_sdtm:variables <https://w3id.org/cdisc/cosmos/dss/TU/TUMERGE/TUDIR>,
        <https://w3id.org/cdisc/cosmos/dss/TU/TUMERGE/TUDTC>,
        <https://w3id.org/cdisc/cosmos/dss/TU/TUMERGE/TUEVAL>,
        <https://w3id.org/cdisc/cosmos/dss/TU/TUMERGE/TUEVALID>,
        <https://w3id.org/cdisc/cosmos/dss/TU/TUMERGE/TULAT>,
        <https://w3id.org/cdisc/cosmos/dss/TU/TUMERGE/TULNKID>,
        <https://w3id.org/cdisc/cosmos/dss/TU/TUMERGE/TULOC>,
        <https://w3id.org/cdisc/cosmos/dss/TU/TUMERGE/TUMETHOD>,
        <https://w3id.org/cdisc/cosmos/dss/TU/TUMERGE/TUORRES>,
        <https://w3id.org/cdisc/cosmos/dss/TU/TUMERGE/TUREFID>,
        <https://w3id.org/cdisc/cosmos/dss/TU/TUMERGE/TUSTRESC>,
        <https://w3id.org/cdisc/cosmos/dss/TU/TUMERGE/TUTEST>,
        <https://w3id.org/cdisc/cosmos/dss/TU/TUMERGE/TUTESTCD> .

<https://w3id.org/cdisc/cosmos/dss/TU/TUMERGE_RECIST1_1> a cosmos_sdtm:SDTMGroup ;
    dcterms:identifier "TUMERGE_RECIST1_1" ;
    rdf:_1 <https://w3id.org/cdisc/cosmos/dss/TU/TUMERGE_RECIST1_1/TUTESTCD> ;
    rdf:_10 <https://w3id.org/cdisc/cosmos/dss/TU/TUMERGE_RECIST1_1/TUEVALID> ;
    rdf:_11 <https://w3id.org/cdisc/cosmos/dss/TU/TUMERGE_RECIST1_1/TUREFID> ;
    rdf:_12 <https://w3id.org/cdisc/cosmos/dss/TU/TUMERGE_RECIST1_1/TULNKID> ;
    rdf:_13 <https://w3id.org/cdisc/cosmos/dss/TU/TUMERGE_RECIST1_1/TULOCDTL> ;
    rdf:_14 <https://w3id.org/cdisc/cosmos/dss/TU/TUMERGE_RECIST1_1/TUDTC> ;
    rdf:_2 <https://w3id.org/cdisc/cosmos/dss/TU/TUMERGE_RECIST1_1/TUTEST> ;
    rdf:_3 <https://w3id.org/cdisc/cosmos/dss/TU/TUMERGE_RECIST1_1/TUORRES> ;
    rdf:_4 <https://w3id.org/cdisc/cosmos/dss/TU/TUMERGE_RECIST1_1/TUSTRESC> ;
    rdf:_5 <https://w3id.org/cdisc/cosmos/dss/TU/TUMERGE_RECIST1_1/TULOC> ;
    rdf:_6 <https://w3id.org/cdisc/cosmos/dss/TU/TUMERGE_RECIST1_1/TULAT> ;
    rdf:_7 <https://w3id.org/cdisc/cosmos/dss/TU/TUMERGE_RECIST1_1/TUDIR> ;
    rdf:_8 <https://w3id.org/cdisc/cosmos/dss/TU/TUMERGE_RECIST1_1/TUMETHOD> ;
    rdf:_9 <https://w3id.org/cdisc/cosmos/dss/TU/TUMERGE_RECIST1_1/TUEVAL> ;
    cosmos_sdtm:biomedicalConceptId NCIT:C225437 ;
    cosmos_sdtm:domain "TU" ;
    cosmos_sdtm:packageDate "2026-05-26"^^xsd:date ;
    cosmos_sdtm:packageType <https://www.cdisc.org/cosmos/sdtm_v1.0/PackageTypeEnum#sdtm> ;
    cosmos_sdtm:sdtmigStartVersion "3-2" ;
    cosmos_sdtm:shortName "Tumor Merged (RECIST 1.1 Classification)" ;
    cosmos_sdtm:source "TU.TUTESTCD" ;
    cosmos_sdtm:variables <https://w3id.org/cdisc/cosmos/dss/TU/TUMERGE_RECIST1_1/TUDIR>,
        <https://w3id.org/cdisc/cosmos/dss/TU/TUMERGE_RECIST1_1/TUDTC>,
        <https://w3id.org/cdisc/cosmos/dss/TU/TUMERGE_RECIST1_1/TUEVAL>,
        <https://w3id.org/cdisc/cosmos/dss/TU/TUMERGE_RECIST1_1/TUEVALID>,
        <https://w3id.org/cdisc/cosmos/dss/TU/TUMERGE_RECIST1_1/TULAT>,
        <https://w3id.org/cdisc/cosmos/dss/TU/TUMERGE_RECIST1_1/TULNKID>,
        <https://w3id.org/cdisc/cosmos/dss/TU/TUMERGE_RECIST1_1/TULOC>,
        <https://w3id.org/cdisc/cosmos/dss/TU/TUMERGE_RECIST1_1/TULOCDTL>,
        <https://w3id.org/cdisc/cosmos/dss/TU/TUMERGE_RECIST1_1/TUMETHOD>,
        <https://w3id.org/cdisc/cosmos/dss/TU/TUMERGE_RECIST1_1/TUORRES>,
        <https://w3id.org/cdisc/cosmos/dss/TU/TUMERGE_RECIST1_1/TUREFID>,
        <https://w3id.org/cdisc/cosmos/dss/TU/TUMERGE_RECIST1_1/TUSTRESC>,
        <https://w3id.org/cdisc/cosmos/dss/TU/TUMERGE_RECIST1_1/TUTEST>,
        <https://w3id.org/cdisc/cosmos/dss/TU/TUMERGE_RECIST1_1/TUTESTCD> .

<https://w3id.org/cdisc/cosmos/dss/TU/TUMIDENT> a cosmos_sdtm:SDTMGroup ;
    dcterms:identifier "TUMIDENT" ;
    rdf:_1 <https://w3id.org/cdisc/cosmos/dss/TU/TUMIDENT/TUTESTCD> ;
    rdf:_10 <https://w3id.org/cdisc/cosmos/dss/TU/TUMIDENT/TUEVALID> ;
    rdf:_11 <https://w3id.org/cdisc/cosmos/dss/TU/TUMIDENT/TUREFID> ;
    rdf:_12 <https://w3id.org/cdisc/cosmos/dss/TU/TUMIDENT/TULNKID> ;
    rdf:_13 <https://w3id.org/cdisc/cosmos/dss/TU/TUMIDENT/PRVIR> ;
    rdf:_14 <https://w3id.org/cdisc/cosmos/dss/TU/TUMIDENT/PRVIRP> ;
    rdf:_15 <https://w3id.org/cdisc/cosmos/dss/TU/TUMIDENT/TUDTC> ;
    rdf:_2 <https://w3id.org/cdisc/cosmos/dss/TU/TUMIDENT/TUTEST> ;
    rdf:_3 <https://w3id.org/cdisc/cosmos/dss/TU/TUMIDENT/TUORRES> ;
    rdf:_4 <https://w3id.org/cdisc/cosmos/dss/TU/TUMIDENT/TUSTRESC> ;
    rdf:_5 <https://w3id.org/cdisc/cosmos/dss/TU/TUMIDENT/TULOC> ;
    rdf:_6 <https://w3id.org/cdisc/cosmos/dss/TU/TUMIDENT/TULAT> ;
    rdf:_7 <https://w3id.org/cdisc/cosmos/dss/TU/TUMIDENT/TUDIR> ;
    rdf:_8 <https://w3id.org/cdisc/cosmos/dss/TU/TUMIDENT/TUMETHOD> ;
    rdf:_9 <https://w3id.org/cdisc/cosmos/dss/TU/TUMIDENT/TUEVAL> ;
    cosmos_sdtm:biomedicalConceptId NCIT:C94523 ;
    cosmos_sdtm:domain "TU" ;
    cosmos_sdtm:packageDate "2026-05-26"^^xsd:date ;
    cosmos_sdtm:packageType <https://www.cdisc.org/cosmos/sdtm_v1.0/PackageTypeEnum#sdtm> ;
    cosmos_sdtm:sdtmigStartVersion "3-2" ;
    cosmos_sdtm:shortName "Tumor Identification" ;
    cosmos_sdtm:source "TU.TUTESTCD" ;
    cosmos_sdtm:variables <https://w3id.org/cdisc/cosmos/dss/TU/TUMIDENT/PRVIR>,
        <https://w3id.org/cdisc/cosmos/dss/TU/TUMIDENT/PRVIRP>,
        <https://w3id.org/cdisc/cosmos/dss/TU/TUMIDENT/TUDIR>,
        <https://w3id.org/cdisc/cosmos/dss/TU/TUMIDENT/TUDTC>,
        <https://w3id.org/cdisc/cosmos/dss/TU/TUMIDENT/TUEVAL>,
        <https://w3id.org/cdisc/cosmos/dss/TU/TUMIDENT/TUEVALID>,
        <https://w3id.org/cdisc/cosmos/dss/TU/TUMIDENT/TULAT>,
        <https://w3id.org/cdisc/cosmos/dss/TU/TUMIDENT/TULNKID>,
        <https://w3id.org/cdisc/cosmos/dss/TU/TUMIDENT/TULOC>,
        <https://w3id.org/cdisc/cosmos/dss/TU/TUMIDENT/TUMETHOD>,
        <https://w3id.org/cdisc/cosmos/dss/TU/TUMIDENT/TUORRES>,
        <https://w3id.org/cdisc/cosmos/dss/TU/TUMIDENT/TUREFID>,
        <https://w3id.org/cdisc/cosmos/dss/TU/TUMIDENT/TUSTRESC>,
        <https://w3id.org/cdisc/cosmos/dss/TU/TUMIDENT/TUTEST>,
        <https://w3id.org/cdisc/cosmos/dss/TU/TUMIDENT/TUTESTCD> .

<https://w3id.org/cdisc/cosmos/dss/TU/TUMIDENT_RECIST1_1> a cosmos_sdtm:SDTMGroup ;
    dcterms:identifier "TUMIDENT_RECIST1_1" ;
    rdf:_1 <https://w3id.org/cdisc/cosmos/dss/TU/TUMIDENT_RECIST1_1/TUTESTCD> ;
    rdf:_10 <https://w3id.org/cdisc/cosmos/dss/TU/TUMIDENT_RECIST1_1/TUEVALID> ;
    rdf:_11 <https://w3id.org/cdisc/cosmos/dss/TU/TUMIDENT_RECIST1_1/TUREFID> ;
    rdf:_12 <https://w3id.org/cdisc/cosmos/dss/TU/TUMIDENT_RECIST1_1/TULNKID> ;
    rdf:_13 <https://w3id.org/cdisc/cosmos/dss/TU/TUMIDENT_RECIST1_1/TUPRVIR> ;
    rdf:_14 <https://w3id.org/cdisc/cosmos/dss/TU/TUMIDENT_RECIST1_1/TUPRVIRP> ;
    rdf:_15 <https://w3id.org/cdisc/cosmos/dss/TU/TUMIDENT_RECIST1_1/TULOCDTL> ;
    rdf:_16 <https://w3id.org/cdisc/cosmos/dss/TU/TUMIDENT_RECIST1_1/TUDTC> ;
    rdf:_2 <https://w3id.org/cdisc/cosmos/dss/TU/TUMIDENT_RECIST1_1/TUTEST> ;
    rdf:_3 <https://w3id.org/cdisc/cosmos/dss/TU/TUMIDENT_RECIST1_1/TUORRES> ;
    rdf:_4 <https://w3id.org/cdisc/cosmos/dss/TU/TUMIDENT_RECIST1_1/TUSTRESC> ;
    rdf:_5 <https://w3id.org/cdisc/cosmos/dss/TU/TUMIDENT_RECIST1_1/TULOC> ;
    rdf:_6 <https://w3id.org/cdisc/cosmos/dss/TU/TUMIDENT_RECIST1_1/TULAT> ;
    rdf:_7 <https://w3id.org/cdisc/cosmos/dss/TU/TUMIDENT_RECIST1_1/TUDIR> ;
    rdf:_8 <https://w3id.org/cdisc/cosmos/dss/TU/TUMIDENT_RECIST1_1/TUMETHOD> ;
    rdf:_9 <https://w3id.org/cdisc/cosmos/dss/TU/TUMIDENT_RECIST1_1/TUEVAL> ;
    cosmos_sdtm:biomedicalConceptId NCIT:C94523 ;
    cosmos_sdtm:domain "TU" ;
    cosmos_sdtm:packageDate "2026-05-26"^^xsd:date ;
    cosmos_sdtm:packageType <https://www.cdisc.org/cosmos/sdtm_v1.0/PackageTypeEnum#sdtm> ;
    cosmos_sdtm:sdtmigStartVersion "3-2" ;
    cosmos_sdtm:shortName "Tumor Identification (RECIST 1.1 Classification)" ;
    cosmos_sdtm:source "TU.TUTESTCD" ;
    cosmos_sdtm:variables <https://w3id.org/cdisc/cosmos/dss/TU/TUMIDENT_RECIST1_1/TUDIR>,
        <https://w3id.org/cdisc/cosmos/dss/TU/TUMIDENT_RECIST1_1/TUDTC>,
        <https://w3id.org/cdisc/cosmos/dss/TU/TUMIDENT_RECIST1_1/TUEVAL>,
        <https://w3id.org/cdisc/cosmos/dss/TU/TUMIDENT_RECIST1_1/TUEVALID>,
        <https://w3id.org/cdisc/cosmos/dss/TU/TUMIDENT_RECIST1_1/TULAT>,
        <https://w3id.org/cdisc/cosmos/dss/TU/TUMIDENT_RECIST1_1/TULNKID>,
        <https://w3id.org/cdisc/cosmos/dss/TU/TUMIDENT_RECIST1_1/TULOC>,
        <https://w3id.org/cdisc/cosmos/dss/TU/TUMIDENT_RECIST1_1/TULOCDTL>,
        <https://w3id.org/cdisc/cosmos/dss/TU/TUMIDENT_RECIST1_1/TUMETHOD>,
        <https://w3id.org/cdisc/cosmos/dss/TU/TUMIDENT_RECIST1_1/TUORRES>,
        <https://w3id.org/cdisc/cosmos/dss/TU/TUMIDENT_RECIST1_1/TUPRVIR>,
        <https://w3id.org/cdisc/cosmos/dss/TU/TUMIDENT_RECIST1_1/TUPRVIRP>,
        <https://w3id.org/cdisc/cosmos/dss/TU/TUMIDENT_RECIST1_1/TUREFID>,
        <https://w3id.org/cdisc/cosmos/dss/TU/TUMIDENT_RECIST1_1/TUSTRESC>,
        <https://w3id.org/cdisc/cosmos/dss/TU/TUMIDENT_RECIST1_1/TUTEST>,
        <https://w3id.org/cdisc/cosmos/dss/TU/TUMIDENT_RECIST1_1/TUTESTCD> .

<https://w3id.org/cdisc/cosmos/dss/TU/TUSPLIT> a cosmos_sdtm:SDTMGroup ;
    dcterms:identifier "TUSPLIT" ;
    rdf:_1 <https://w3id.org/cdisc/cosmos/dss/TU/TUSPLIT/TUTESTCD> ;
    rdf:_10 <https://w3id.org/cdisc/cosmos/dss/TU/TUSPLIT/TUEVALID> ;
    rdf:_11 <https://w3id.org/cdisc/cosmos/dss/TU/TUSPLIT/TUREFID> ;
    rdf:_12 <https://w3id.org/cdisc/cosmos/dss/TU/TUSPLIT/TULNKID> ;
    rdf:_13 <https://w3id.org/cdisc/cosmos/dss/TU/TUSPLIT/TUDTC> ;
    rdf:_2 <https://w3id.org/cdisc/cosmos/dss/TU/TUSPLIT/TUTEST> ;
    rdf:_3 <https://w3id.org/cdisc/cosmos/dss/TU/TUSPLIT/TUORRES> ;
    rdf:_4 <https://w3id.org/cdisc/cosmos/dss/TU/TUSPLIT/TUSTRESC> ;
    rdf:_5 <https://w3id.org/cdisc/cosmos/dss/TU/TUSPLIT/TULOC> ;
    rdf:_6 <https://w3id.org/cdisc/cosmos/dss/TU/TUSPLIT/TULAT> ;
    rdf:_7 <https://w3id.org/cdisc/cosmos/dss/TU/TUSPLIT/TUDIR> ;
    rdf:_8 <https://w3id.org/cdisc/cosmos/dss/TU/TUSPLIT/TUMETHOD> ;
    rdf:_9 <https://w3id.org/cdisc/cosmos/dss/TU/TUSPLIT/TUEVAL> ;
    cosmos_sdtm:biomedicalConceptId NCIT:C225438 ;
    cosmos_sdtm:domain "TU" ;
    cosmos_sdtm:packageDate "2026-05-26"^^xsd:date ;
    cosmos_sdtm:packageType <https://www.cdisc.org/cosmos/sdtm_v1.0/PackageTypeEnum#sdtm> ;
    cosmos_sdtm:sdtmigStartVersion "3-2" ;
    cosmos_sdtm:shortName "Tumor Split" ;
    cosmos_sdtm:source "TU.TUTESTCD" ;
    cosmos_sdtm:variables <https://w3id.org/cdisc/cosmos/dss/TU/TUSPLIT/TUDIR>,
        <https://w3id.org/cdisc/cosmos/dss/TU/TUSPLIT/TUDTC>,
        <https://w3id.org/cdisc/cosmos/dss/TU/TUSPLIT/TUEVAL>,
        <https://w3id.org/cdisc/cosmos/dss/TU/TUSPLIT/TUEVALID>,
        <https://w3id.org/cdisc/cosmos/dss/TU/TUSPLIT/TULAT>,
        <https://w3id.org/cdisc/cosmos/dss/TU/TUSPLIT/TULNKID>,
        <https://w3id.org/cdisc/cosmos/dss/TU/TUSPLIT/TULOC>,
        <https://w3id.org/cdisc/cosmos/dss/TU/TUSPLIT/TUMETHOD>,
        <https://w3id.org/cdisc/cosmos/dss/TU/TUSPLIT/TUORRES>,
        <https://w3id.org/cdisc/cosmos/dss/TU/TUSPLIT/TUREFID>,
        <https://w3id.org/cdisc/cosmos/dss/TU/TUSPLIT/TUSTRESC>,
        <https://w3id.org/cdisc/cosmos/dss/TU/TUSPLIT/TUTEST>,
        <https://w3id.org/cdisc/cosmos/dss/TU/TUSPLIT/TUTESTCD> .

<https://w3id.org/cdisc/cosmos/dss/TU/TUSPLIT_RECIST1_1> a cosmos_sdtm:SDTMGroup ;
    dcterms:identifier "TUSPLIT_RECIST1_1" ;
    rdf:_1 <https://w3id.org/cdisc/cosmos/dss/TU/TUSPLIT_RECIST1_1/TUTESTCD> ;
    rdf:_10 <https://w3id.org/cdisc/cosmos/dss/TU/TUSPLIT_RECIST1_1/TUEVALID> ;
    rdf:_11 <https://w3id.org/cdisc/cosmos/dss/TU/TUSPLIT_RECIST1_1/TUREFID> ;
    rdf:_12 <https://w3id.org/cdisc/cosmos/dss/TU/TUSPLIT_RECIST1_1/TULNKID> ;
    rdf:_13 <https://w3id.org/cdisc/cosmos/dss/TU/TUSPLIT_RECIST1_1/TULOCDTL> ;
    rdf:_14 <https://w3id.org/cdisc/cosmos/dss/TU/TUSPLIT_RECIST1_1/TUDTC> ;
    rdf:_2 <https://w3id.org/cdisc/cosmos/dss/TU/TUSPLIT_RECIST1_1/TUTEST> ;
    rdf:_3 <https://w3id.org/cdisc/cosmos/dss/TU/TUSPLIT_RECIST1_1/TUORRES> ;
    rdf:_4 <https://w3id.org/cdisc/cosmos/dss/TU/TUSPLIT_RECIST1_1/TUSTRESC> ;
    rdf:_5 <https://w3id.org/cdisc/cosmos/dss/TU/TUSPLIT_RECIST1_1/TULOC> ;
    rdf:_6 <https://w3id.org/cdisc/cosmos/dss/TU/TUSPLIT_RECIST1_1/TULAT> ;
    rdf:_7 <https://w3id.org/cdisc/cosmos/dss/TU/TUSPLIT_RECIST1_1/TUDIR> ;
    rdf:_8 <https://w3id.org/cdisc/cosmos/dss/TU/TUSPLIT_RECIST1_1/TUMETHOD> ;
    rdf:_9 <https://w3id.org/cdisc/cosmos/dss/TU/TUSPLIT_RECIST1_1/TUEVAL> ;
    cosmos_sdtm:biomedicalConceptId NCIT:C225438 ;
    cosmos_sdtm:domain "TU" ;
    cosmos_sdtm:packageDate "2026-05-26"^^xsd:date ;
    cosmos_sdtm:packageType <https://www.cdisc.org/cosmos/sdtm_v1.0/PackageTypeEnum#sdtm> ;
    cosmos_sdtm:sdtmigStartVersion "3-2" ;
    cosmos_sdtm:shortName "Tumor Split (RECIST 1.1 Classification)" ;
    cosmos_sdtm:source "TU.TUTESTCD" ;
    cosmos_sdtm:variables <https://w3id.org/cdisc/cosmos/dss/TU/TUSPLIT_RECIST1_1/TUDIR>,
        <https://w3id.org/cdisc/cosmos/dss/TU/TUSPLIT_RECIST1_1/TUDTC>,
        <https://w3id.org/cdisc/cosmos/dss/TU/TUSPLIT_RECIST1_1/TUEVAL>,
        <https://w3id.org/cdisc/cosmos/dss/TU/TUSPLIT_RECIST1_1/TUEVALID>,
        <https://w3id.org/cdisc/cosmos/dss/TU/TUSPLIT_RECIST1_1/TULAT>,
        <https://w3id.org/cdisc/cosmos/dss/TU/TUSPLIT_RECIST1_1/TULNKID>,
        <https://w3id.org/cdisc/cosmos/dss/TU/TUSPLIT_RECIST1_1/TULOC>,
        <https://w3id.org/cdisc/cosmos/dss/TU/TUSPLIT_RECIST1_1/TULOCDTL>,
        <https://w3id.org/cdisc/cosmos/dss/TU/TUSPLIT_RECIST1_1/TUMETHOD>,
        <https://w3id.org/cdisc/cosmos/dss/TU/TUSPLIT_RECIST1_1/TUORRES>,
        <https://w3id.org/cdisc/cosmos/dss/TU/TUSPLIT_RECIST1_1/TUREFID>,
        <https://w3id.org/cdisc/cosmos/dss/TU/TUSPLIT_RECIST1_1/TUSTRESC>,
        <https://w3id.org/cdisc/cosmos/dss/TU/TUSPLIT_RECIST1_1/TUTEST>,
        <https://w3id.org/cdisc/cosmos/dss/TU/TUSPLIT_RECIST1_1/TUTESTCD> .

<https://w3id.org/cdisc/cosmos/dss/TU/DRCRLTLC/TUDTC/relationship> a cosmos_sdtm:RelationShip ;
    cosmos_sdtm:linkingPhrase <https://www.cdisc.org/cosmos/sdtm_v1.0/LinkingPhraseEnum#is%20the%20date%20of%20occurrence%20for> ;
    cosmos_sdtm:object "TUTESTCD" ;
    cosmos_sdtm:predicateTerm <https://www.cdisc.org/cosmos/sdtm_v1.0/PredicateTermEnum#IS_TIMING_FOR> ;
    cosmos_sdtm:subject "TUDTC" .

<https://w3id.org/cdisc/cosmos/dss/TU/DRCRLTLC/TUEVAL/assignedTerm> a cosmos_sdtm:AssignedTerm ;
    cosmos_sdtm:conceptId NCIT:C25936 ;
    cosmos_sdtm:value "INVESTIGATOR" .

<https://w3id.org/cdisc/cosmos/dss/TU/DRCRLTLC/TUEVAL/relationship> a cosmos_sdtm:RelationShip ;
    cosmos_sdtm:linkingPhrase <https://www.cdisc.org/cosmos/sdtm_v1.0/LinkingPhraseEnum#is%20the%20role%20of%20the%20assessor%20who%20performed%20the%20test%20in> ;
    cosmos_sdtm:object "TUTESTCD" ;
    cosmos_sdtm:predicateTerm <https://www.cdisc.org/cosmos/sdtm_v1.0/PredicateTermEnum#PERFORMS> ;
    cosmos_sdtm:subject "TUEVAL" .

<https://w3id.org/cdisc/cosmos/dss/TU/DRCRLTLC/TUEVALID/relationship> a cosmos_sdtm:RelationShip ;
    cosmos_sdtm:linkingPhrase <https://www.cdisc.org/cosmos/sdtm_v1.0/LinkingPhraseEnum#is%20an%20identifier%20for%20the%20evaluator%20with%20the%20role%20in> ;
    cosmos_sdtm:object "TUEVAL" ;
    cosmos_sdtm:predicateTerm <https://www.cdisc.org/cosmos/sdtm_v1.0/PredicateTermEnum#IDENTIFIES> ;
    cosmos_sdtm:subject "TUEVALID" .

<https://w3id.org/cdisc/cosmos/dss/TU/DRCRLTLC/TUORRES/relationship> a cosmos_sdtm:RelationShip ;
    cosmos_sdtm:linkingPhrase <https://www.cdisc.org/cosmos/sdtm_v1.0/LinkingPhraseEnum#is%20the%20result%20of%20the%20test%20in> ;
    cosmos_sdtm:object "TUTESTCD" ;
    cosmos_sdtm:predicateTerm <https://www.cdisc.org/cosmos/sdtm_v1.0/PredicateTermEnum#IS_RESULT_OF> ;
    cosmos_sdtm:subject "TUORRES" .

<https://w3id.org/cdisc/cosmos/dss/TU/DRCRLTLC/TUSTRESC/relationship> a cosmos_sdtm:RelationShip ;
    cosmos_sdtm:linkingPhrase <https://www.cdisc.org/cosmos/sdtm_v1.0/LinkingPhraseEnum#is%20the%20result%20of%20the%20test%20in> ;
    cosmos_sdtm:object "TUTESTCD" ;
    cosmos_sdtm:predicateTerm <https://www.cdisc.org/cosmos/sdtm_v1.0/PredicateTermEnum#IS_RESULT_OF> ;
    cosmos_sdtm:subject "TUSTRESC" .

<https://w3id.org/cdisc/cosmos/dss/TU/DRCRLTLC/TUTEST/assignedTerm> a cosmos_sdtm:AssignedTerm ;
    cosmos_sdtm:conceptId NCIT:C123633 ;
    cosmos_sdtm:value "Disease Recurrence Relative Location" .

<https://w3id.org/cdisc/cosmos/dss/TU/DRCRLTLC/TUTEST/relationship> a cosmos_sdtm:RelationShip ;
    cosmos_sdtm:linkingPhrase <https://www.cdisc.org/cosmos/sdtm_v1.0/LinkingPhraseEnum#decodes%20the%20value%20in> ;
    cosmos_sdtm:object "TUTESTCD" ;
    cosmos_sdtm:predicateTerm <https://www.cdisc.org/cosmos/sdtm_v1.0/PredicateTermEnum#DECODES> ;
    cosmos_sdtm:subject "TUTEST" .

<https://w3id.org/cdisc/cosmos/dss/TU/DRCRLTLC/TUTESTCD/assignedTerm> a cosmos_sdtm:AssignedTerm ;
    cosmos_sdtm:conceptId NCIT:C123633 ;
    cosmos_sdtm:value "DRCRLTLC" .

<https://w3id.org/cdisc/cosmos/dss/TU/DRCRLTLC/TUTESTCD/relationship> a cosmos_sdtm:RelationShip ;
    cosmos_sdtm:linkingPhrase <https://www.cdisc.org/cosmos/sdtm_v1.0/LinkingPhraseEnum#is%20the%20code%20for%20the%20value%20in> ;
    cosmos_sdtm:object "TUTEST" ;
    cosmos_sdtm:predicateTerm <https://www.cdisc.org/cosmos/sdtm_v1.0/PredicateTermEnum#IS_DECODED_BY> ;
    cosmos_sdtm:subject "TUTESTCD" .

<https://w3id.org/cdisc/cosmos/dss/TU/NTIND/TUDTC/relationship> a cosmos_sdtm:RelationShip ;
    cosmos_sdtm:linkingPhrase <https://www.cdisc.org/cosmos/sdtm_v1.0/LinkingPhraseEnum#is%20the%20date%20of%20occurrence%20for> ;
    cosmos_sdtm:object "TUTESTCD" ;
    cosmos_sdtm:predicateTerm <https://www.cdisc.org/cosmos/sdtm_v1.0/PredicateTermEnum#IS_TIMING_FOR> ;
    cosmos_sdtm:subject "TUDTC" .

<https://w3id.org/cdisc/cosmos/dss/TU/NTIND/TUEVAL/assignedTerm> a cosmos_sdtm:AssignedTerm ;
    cosmos_sdtm:conceptId NCIT:C25936 ;
    cosmos_sdtm:value "INVESTIGATOR" .

<https://w3id.org/cdisc/cosmos/dss/TU/NTIND/TUEVAL/relationship> a cosmos_sdtm:RelationShip ;
    cosmos_sdtm:linkingPhrase <https://www.cdisc.org/cosmos/sdtm_v1.0/LinkingPhraseEnum#is%20the%20role%20of%20the%20assessor%20who%20performed%20the%20test%20in> ;
    cosmos_sdtm:object "TUTESTCD" ;
    cosmos_sdtm:predicateTerm <https://www.cdisc.org/cosmos/sdtm_v1.0/PredicateTermEnum#PERFORMS> ;
    cosmos_sdtm:subject "TUEVAL" .

<https://w3id.org/cdisc/cosmos/dss/TU/NTIND/TUEVALID/relationship> a cosmos_sdtm:RelationShip ;
    cosmos_sdtm:linkingPhrase <https://www.cdisc.org/cosmos/sdtm_v1.0/LinkingPhraseEnum#is%20an%20identifier%20for%20the%20evaluator%20with%20the%20role%20in> ;
    cosmos_sdtm:object "TUEVAL" ;
    cosmos_sdtm:predicateTerm <https://www.cdisc.org/cosmos/sdtm_v1.0/PredicateTermEnum#IDENTIFIES> ;
    cosmos_sdtm:subject "TUEVALID" .

<https://w3id.org/cdisc/cosmos/dss/TU/NTIND/TUORRES/relationship> a cosmos_sdtm:RelationShip ;
    cosmos_sdtm:linkingPhrase <https://www.cdisc.org/cosmos/sdtm_v1.0/LinkingPhraseEnum#is%20the%20result%20of%20the%20test%20in> ;
    cosmos_sdtm:object "TUTESTCD" ;
    cosmos_sdtm:predicateTerm <https://www.cdisc.org/cosmos/sdtm_v1.0/PredicateTermEnum#IS_RESULT_OF> ;
    cosmos_sdtm:subject "TUORRES" .

<https://w3id.org/cdisc/cosmos/dss/TU/NTIND/TUSTRESC/relationship> a cosmos_sdtm:RelationShip ;
    cosmos_sdtm:linkingPhrase <https://www.cdisc.org/cosmos/sdtm_v1.0/LinkingPhraseEnum#is%20the%20result%20of%20the%20test%20in> ;
    cosmos_sdtm:object "TUTESTCD" ;
    cosmos_sdtm:predicateTerm <https://www.cdisc.org/cosmos/sdtm_v1.0/PredicateTermEnum#IS_RESULT_OF> ;
    cosmos_sdtm:subject "TUSTRESC" .

<https://w3id.org/cdisc/cosmos/dss/TU/NTIND/TUTEST/assignedTerm> a cosmos_sdtm:AssignedTerm ;
    cosmos_sdtm:conceptId NCIT:C161483 ;
    cosmos_sdtm:value "Non-Target Indicator" .

<https://w3id.org/cdisc/cosmos/dss/TU/NTIND/TUTEST/relationship> a cosmos_sdtm:RelationShip ;
    cosmos_sdtm:linkingPhrase <https://www.cdisc.org/cosmos/sdtm_v1.0/LinkingPhraseEnum#decodes%20the%20value%20in> ;
    cosmos_sdtm:object "TUTESTCD" ;
    cosmos_sdtm:predicateTerm <https://www.cdisc.org/cosmos/sdtm_v1.0/PredicateTermEnum#DECODES> ;
    cosmos_sdtm:subject "TUTEST" .

<https://w3id.org/cdisc/cosmos/dss/TU/NTIND/TUTESTCD/assignedTerm> a cosmos_sdtm:AssignedTerm ;
    cosmos_sdtm:conceptId NCIT:C161483 ;
    cosmos_sdtm:value "NTIND" .

<https://w3id.org/cdisc/cosmos/dss/TU/NTIND/TUTESTCD/relationship> a cosmos_sdtm:RelationShip ;
    cosmos_sdtm:linkingPhrase <https://www.cdisc.org/cosmos/sdtm_v1.0/LinkingPhraseEnum#is%20the%20code%20for%20the%20value%20in> ;
    cosmos_sdtm:object "TUTEST" ;
    cosmos_sdtm:predicateTerm <https://www.cdisc.org/cosmos/sdtm_v1.0/PredicateTermEnum#IS_DECODED_BY> ;
    cosmos_sdtm:subject "TUTESTCD" .

<https://w3id.org/cdisc/cosmos/dss/TU/NTIND_RECIST1_1/TUDTC/relationship> a cosmos_sdtm:RelationShip ;
    cosmos_sdtm:linkingPhrase <https://www.cdisc.org/cosmos/sdtm_v1.0/LinkingPhraseEnum#is%20the%20date%20of%20occurrence%20for> ;
    cosmos_sdtm:object "TUTESTCD" ;
    cosmos_sdtm:predicateTerm <https://www.cdisc.org/cosmos/sdtm_v1.0/PredicateTermEnum#IS_TIMING_FOR> ;
    cosmos_sdtm:subject "TUDTC" .

<https://w3id.org/cdisc/cosmos/dss/TU/NTIND_RECIST1_1/TUEVAL/assignedTerm> a cosmos_sdtm:AssignedTerm ;
    cosmos_sdtm:conceptId NCIT:C25936 ;
    cosmos_sdtm:value "INVESTIGATOR" .

<https://w3id.org/cdisc/cosmos/dss/TU/NTIND_RECIST1_1/TUEVAL/relationship> a cosmos_sdtm:RelationShip ;
    cosmos_sdtm:linkingPhrase <https://www.cdisc.org/cosmos/sdtm_v1.0/LinkingPhraseEnum#is%20the%20role%20of%20the%20assessor%20who%20performed%20the%20test%20in> ;
    cosmos_sdtm:object "TUTESTCD" ;
    cosmos_sdtm:predicateTerm <https://www.cdisc.org/cosmos/sdtm_v1.0/PredicateTermEnum#PERFORMS> ;
    cosmos_sdtm:subject "TUEVAL" .

<https://w3id.org/cdisc/cosmos/dss/TU/NTIND_RECIST1_1/TUORRES/relationship> a cosmos_sdtm:RelationShip ;
    cosmos_sdtm:linkingPhrase <https://www.cdisc.org/cosmos/sdtm_v1.0/LinkingPhraseEnum#is%20the%20result%20of%20the%20test%20in> ;
    cosmos_sdtm:object "TUTESTCD" ;
    cosmos_sdtm:predicateTerm <https://www.cdisc.org/cosmos/sdtm_v1.0/PredicateTermEnum#IS_RESULT_OF> ;
    cosmos_sdtm:subject "TUORRES" .

<https://w3id.org/cdisc/cosmos/dss/TU/NTIND_RECIST1_1/TUSTRESC/relationship> a cosmos_sdtm:RelationShip ;
    cosmos_sdtm:linkingPhrase <https://www.cdisc.org/cosmos/sdtm_v1.0/LinkingPhraseEnum#is%20the%20result%20of%20the%20test%20in> ;
    cosmos_sdtm:object "TUTESTCD" ;
    cosmos_sdtm:predicateTerm <https://www.cdisc.org/cosmos/sdtm_v1.0/PredicateTermEnum#IS_RESULT_OF> ;
    cosmos_sdtm:subject "TUSTRESC" .

<https://w3id.org/cdisc/cosmos/dss/TU/NTIND_RECIST1_1/TUTEST/assignedTerm> a cosmos_sdtm:AssignedTerm ;
    cosmos_sdtm:conceptId NCIT:C161483 ;
    cosmos_sdtm:value "Non-Target Indicator" .

<https://w3id.org/cdisc/cosmos/dss/TU/NTIND_RECIST1_1/TUTEST/relationship> a cosmos_sdtm:RelationShip ;
    cosmos_sdtm:linkingPhrase <https://www.cdisc.org/cosmos/sdtm_v1.0/LinkingPhraseEnum#decodes%20the%20value%20in> ;
    cosmos_sdtm:object "TUTESTCD" ;
    cosmos_sdtm:predicateTerm <https://www.cdisc.org/cosmos/sdtm_v1.0/PredicateTermEnum#DECODES> ;
    cosmos_sdtm:subject "TUTEST" .

<https://w3id.org/cdisc/cosmos/dss/TU/NTIND_RECIST1_1/TUTESTCD/assignedTerm> a cosmos_sdtm:AssignedTerm ;
    cosmos_sdtm:conceptId NCIT:C161483 ;
    cosmos_sdtm:value "NTIND" .

<https://w3id.org/cdisc/cosmos/dss/TU/NTIND_RECIST1_1/TUTESTCD/relationship> a cosmos_sdtm:RelationShip ;
    cosmos_sdtm:linkingPhrase <https://www.cdisc.org/cosmos/sdtm_v1.0/LinkingPhraseEnum#is%20the%20code%20for%20the%20value%20in> ;
    cosmos_sdtm:object "TUTEST" ;
    cosmos_sdtm:predicateTerm <https://www.cdisc.org/cosmos/sdtm_v1.0/PredicateTermEnum#IS_DECODED_BY> ;
    cosmos_sdtm:subject "TUTESTCD" .

<https://w3id.org/cdisc/cosmos/dss/TU/TIND/TUDTC/relationship> a cosmos_sdtm:RelationShip ;
    cosmos_sdtm:linkingPhrase <https://www.cdisc.org/cosmos/sdtm_v1.0/LinkingPhraseEnum#is%20the%20date%20of%20occurrence%20for> ;
    cosmos_sdtm:object "TUTESTCD" ;
    cosmos_sdtm:predicateTerm <https://www.cdisc.org/cosmos/sdtm_v1.0/PredicateTermEnum#IS_TIMING_FOR> ;
    cosmos_sdtm:subject "TUDTC" .

<https://w3id.org/cdisc/cosmos/dss/TU/TIND/TUEVAL/assignedTerm> a cosmos_sdtm:AssignedTerm ;
    cosmos_sdtm:conceptId NCIT:C25936 ;
    cosmos_sdtm:value "INVESTIGATOR" .

<https://w3id.org/cdisc/cosmos/dss/TU/TIND/TUEVAL/relationship> a cosmos_sdtm:RelationShip ;
    cosmos_sdtm:linkingPhrase <https://www.cdisc.org/cosmos/sdtm_v1.0/LinkingPhraseEnum#is%20the%20role%20of%20the%20assessor%20who%20performed%20the%20test%20in> ;
    cosmos_sdtm:object "TUTESTCD" ;
    cosmos_sdtm:predicateTerm <https://www.cdisc.org/cosmos/sdtm_v1.0/PredicateTermEnum#PERFORMS> ;
    cosmos_sdtm:subject "TUEVAL" .

<https://w3id.org/cdisc/cosmos/dss/TU/TIND/TUEVALID/relationship> a cosmos_sdtm:RelationShip ;
    cosmos_sdtm:linkingPhrase <https://www.cdisc.org/cosmos/sdtm_v1.0/LinkingPhraseEnum#is%20an%20identifier%20for%20the%20evaluator%20with%20the%20role%20in> ;
    cosmos_sdtm:object "TUEVAL" ;
    cosmos_sdtm:predicateTerm <https://www.cdisc.org/cosmos/sdtm_v1.0/PredicateTermEnum#IDENTIFIES> ;
    cosmos_sdtm:subject "TUEVALID" .

<https://w3id.org/cdisc/cosmos/dss/TU/TIND/TUORRES/relationship> a cosmos_sdtm:RelationShip ;
    cosmos_sdtm:linkingPhrase <https://www.cdisc.org/cosmos/sdtm_v1.0/LinkingPhraseEnum#is%20the%20result%20of%20the%20test%20in> ;
    cosmos_sdtm:object "TUTESTCD" ;
    cosmos_sdtm:predicateTerm <https://www.cdisc.org/cosmos/sdtm_v1.0/PredicateTermEnum#IS_RESULT_OF> ;
    cosmos_sdtm:subject "TUORRES" .

<https://w3id.org/cdisc/cosmos/dss/TU/TIND/TUSTRESC/relationship> a cosmos_sdtm:RelationShip ;
    cosmos_sdtm:linkingPhrase <https://www.cdisc.org/cosmos/sdtm_v1.0/LinkingPhraseEnum#is%20the%20result%20of%20the%20test%20in> ;
    cosmos_sdtm:object "TUTESTCD" ;
    cosmos_sdtm:predicateTerm <https://www.cdisc.org/cosmos/sdtm_v1.0/PredicateTermEnum#IS_RESULT_OF> ;
    cosmos_sdtm:subject "TUSTRESC" .

<https://w3id.org/cdisc/cosmos/dss/TU/TIND/TUTEST/assignedTerm> a cosmos_sdtm:AssignedTerm ;
    cosmos_sdtm:conceptId NCIT:C178053 ;
    cosmos_sdtm:value "Target Indicator" .

<https://w3id.org/cdisc/cosmos/dss/TU/TIND/TUTEST/relationship> a cosmos_sdtm:RelationShip ;
    cosmos_sdtm:linkingPhrase <https://www.cdisc.org/cosmos/sdtm_v1.0/LinkingPhraseEnum#decodes%20the%20value%20in> ;
    cosmos_sdtm:object "TUTESTCD" ;
    cosmos_sdtm:predicateTerm <https://www.cdisc.org/cosmos/sdtm_v1.0/PredicateTermEnum#DECODES> ;
    cosmos_sdtm:subject "TUTEST" .

<https://w3id.org/cdisc/cosmos/dss/TU/TIND/TUTESTCD/assignedTerm> a cosmos_sdtm:AssignedTerm ;
    cosmos_sdtm:conceptId NCIT:C178053 ;
    cosmos_sdtm:value "TIND" .

<https://w3id.org/cdisc/cosmos/dss/TU/TIND/TUTESTCD/relationship> a cosmos_sdtm:RelationShip ;
    cosmos_sdtm:linkingPhrase <https://www.cdisc.org/cosmos/sdtm_v1.0/LinkingPhraseEnum#is%20the%20code%20for%20the%20value%20in> ;
    cosmos_sdtm:object "TUTEST" ;
    cosmos_sdtm:predicateTerm <https://www.cdisc.org/cosmos/sdtm_v1.0/PredicateTermEnum#IS_DECODED_BY> ;
    cosmos_sdtm:subject "TUTESTCD" .

<https://w3id.org/cdisc/cosmos/dss/TU/TIND_RECIST1_1/TUDTC/relationship> a cosmos_sdtm:RelationShip ;
    cosmos_sdtm:linkingPhrase <https://www.cdisc.org/cosmos/sdtm_v1.0/LinkingPhraseEnum#is%20the%20date%20of%20occurrence%20for> ;
    cosmos_sdtm:object "TUTESTCD" ;
    cosmos_sdtm:predicateTerm <https://www.cdisc.org/cosmos/sdtm_v1.0/PredicateTermEnum#IS_TIMING_FOR> ;
    cosmos_sdtm:subject "TUDTC" .

<https://w3id.org/cdisc/cosmos/dss/TU/TIND_RECIST1_1/TUEVAL/assignedTerm> a cosmos_sdtm:AssignedTerm ;
    cosmos_sdtm:conceptId NCIT:C25936 ;
    cosmos_sdtm:value "INVESTIGATOR" .

<https://w3id.org/cdisc/cosmos/dss/TU/TIND_RECIST1_1/TUEVAL/relationship> a cosmos_sdtm:RelationShip ;
    cosmos_sdtm:linkingPhrase <https://www.cdisc.org/cosmos/sdtm_v1.0/LinkingPhraseEnum#is%20the%20role%20of%20the%20assessor%20who%20performed%20the%20test%20in> ;
    cosmos_sdtm:object "TUTESTCD" ;
    cosmos_sdtm:predicateTerm <https://www.cdisc.org/cosmos/sdtm_v1.0/PredicateTermEnum#PERFORMS> ;
    cosmos_sdtm:subject "TUEVAL" .

<https://w3id.org/cdisc/cosmos/dss/TU/TIND_RECIST1_1/TUORRES/relationship> a cosmos_sdtm:RelationShip ;
    cosmos_sdtm:linkingPhrase <https://www.cdisc.org/cosmos/sdtm_v1.0/LinkingPhraseEnum#is%20the%20result%20of%20the%20test%20in> ;
    cosmos_sdtm:object "TUTESTCD" ;
    cosmos_sdtm:predicateTerm <https://www.cdisc.org/cosmos/sdtm_v1.0/PredicateTermEnum#IS_RESULT_OF> ;
    cosmos_sdtm:subject "TUORRES" .

<https://w3id.org/cdisc/cosmos/dss/TU/TIND_RECIST1_1/TUSTRESC/relationship> a cosmos_sdtm:RelationShip ;
    cosmos_sdtm:linkingPhrase <https://www.cdisc.org/cosmos/sdtm_v1.0/LinkingPhraseEnum#is%20the%20result%20of%20the%20test%20in> ;
    cosmos_sdtm:object "TUTESTCD" ;
    cosmos_sdtm:predicateTerm <https://www.cdisc.org/cosmos/sdtm_v1.0/PredicateTermEnum#IS_RESULT_OF> ;
    cosmos_sdtm:subject "TUSTRESC" .

<https://w3id.org/cdisc/cosmos/dss/TU/TIND_RECIST1_1/TUTEST/assignedTerm> a cosmos_sdtm:AssignedTerm ;
    cosmos_sdtm:conceptId NCIT:C178053 ;
    cosmos_sdtm:value "Target Indicator" .

<https://w3id.org/cdisc/cosmos/dss/TU/TIND_RECIST1_1/TUTEST/relationship> a cosmos_sdtm:RelationShip ;
    cosmos_sdtm:linkingPhrase <https://www.cdisc.org/cosmos/sdtm_v1.0/LinkingPhraseEnum#decodes%20the%20value%20in> ;
    cosmos_sdtm:object "TUTESTCD" ;
    cosmos_sdtm:predicateTerm <https://www.cdisc.org/cosmos/sdtm_v1.0/PredicateTermEnum#DECODES> ;
    cosmos_sdtm:subject "TUTEST" .

<https://w3id.org/cdisc/cosmos/dss/TU/TIND_RECIST1_1/TUTESTCD/assignedTerm> a cosmos_sdtm:AssignedTerm ;
    cosmos_sdtm:conceptId NCIT:C178053 ;
    cosmos_sdtm:value "TIND" .

<https://w3id.org/cdisc/cosmos/dss/TU/TIND_RECIST1_1/TUTESTCD/relationship> a cosmos_sdtm:RelationShip ;
    cosmos_sdtm:linkingPhrase <https://www.cdisc.org/cosmos/sdtm_v1.0/LinkingPhraseEnum#is%20the%20code%20for%20the%20value%20in> ;
    cosmos_sdtm:object "TUTEST" ;
    cosmos_sdtm:predicateTerm <https://www.cdisc.org/cosmos/sdtm_v1.0/PredicateTermEnum#IS_DECODED_BY> ;
    cosmos_sdtm:subject "TUTESTCD" .

<https://w3id.org/cdisc/cosmos/dss/TU/TUMERGE/TUDIR/relationship> a cosmos_sdtm:RelationShip ;
    cosmos_sdtm:linkingPhrase <https://www.cdisc.org/cosmos/sdtm_v1.0/LinkingPhraseEnum#further%20specifies%20the%20anatomical%20location%20in> ;
    cosmos_sdtm:object "TULOC" ;
    cosmos_sdtm:predicateTerm <https://www.cdisc.org/cosmos/sdtm_v1.0/PredicateTermEnum#SPECIFIES> ;
    cosmos_sdtm:subject "TUDIR" .

<https://w3id.org/cdisc/cosmos/dss/TU/TUMERGE/TUDTC/relationship> a cosmos_sdtm:RelationShip ;
    cosmos_sdtm:linkingPhrase <https://www.cdisc.org/cosmos/sdtm_v1.0/LinkingPhraseEnum#is%20the%20date%20of%20occurrence%20for> ;
    cosmos_sdtm:object "TUTESTCD" ;
    cosmos_sdtm:predicateTerm <https://www.cdisc.org/cosmos/sdtm_v1.0/PredicateTermEnum#IS_TIMING_FOR> ;
    cosmos_sdtm:subject "TUDTC" .

<https://w3id.org/cdisc/cosmos/dss/TU/TUMERGE/TUEVAL/relationship> a cosmos_sdtm:RelationShip ;
    cosmos_sdtm:linkingPhrase <https://www.cdisc.org/cosmos/sdtm_v1.0/LinkingPhraseEnum#is%20the%20role%20of%20the%20assessor%20who%20performed%20the%20test%20in> ;
    cosmos_sdtm:object "TUTESTCD" ;
    cosmos_sdtm:predicateTerm <https://www.cdisc.org/cosmos/sdtm_v1.0/PredicateTermEnum#PERFORMS> ;
    cosmos_sdtm:subject "TUEVAL" .

<https://w3id.org/cdisc/cosmos/dss/TU/TUMERGE/TUEVALID/relationship> a cosmos_sdtm:RelationShip ;
    cosmos_sdtm:linkingPhrase <https://www.cdisc.org/cosmos/sdtm_v1.0/LinkingPhraseEnum#is%20an%20identifier%20for%20the%20evaluator%20with%20the%20role%20in> ;
    cosmos_sdtm:object "TUEVAL" ;
    cosmos_sdtm:predicateTerm <https://www.cdisc.org/cosmos/sdtm_v1.0/PredicateTermEnum#IDENTIFIES> ;
    cosmos_sdtm:subject "TUEVALID" .

<https://w3id.org/cdisc/cosmos/dss/TU/TUMERGE/TULAT/relationship> a cosmos_sdtm:RelationShip ;
    cosmos_sdtm:linkingPhrase <https://www.cdisc.org/cosmos/sdtm_v1.0/LinkingPhraseEnum#further%20specifies%20the%20anatomical%20location%20in> ;
    cosmos_sdtm:object "TULOC" ;
    cosmos_sdtm:predicateTerm <https://www.cdisc.org/cosmos/sdtm_v1.0/PredicateTermEnum#SPECIFIES> ;
    cosmos_sdtm:subject "TULAT" .

<https://w3id.org/cdisc/cosmos/dss/TU/TUMERGE/TULNKID/relationship> a cosmos_sdtm:RelationShip ;
    cosmos_sdtm:linkingPhrase <https://www.cdisc.org/cosmos/sdtm_v1.0/LinkingPhraseEnum#identifies%20the%20tumor%20found%20by%20the%20test%20in> ;
    cosmos_sdtm:object "TUTESTCD" ;
    cosmos_sdtm:predicateTerm <https://www.cdisc.org/cosmos/sdtm_v1.0/PredicateTermEnum#IDENTIFIES_TUMOR_IN> ;
    cosmos_sdtm:subject "TULNKID" .

<https://w3id.org/cdisc/cosmos/dss/TU/TUMERGE/TULOC/relationship> a cosmos_sdtm:RelationShip ;
    cosmos_sdtm:linkingPhrase <https://www.cdisc.org/cosmos/sdtm_v1.0/LinkingPhraseEnum#specifies%20the%20anatomical%20location%20of%20the%20tumor%20identified%20by> ;
    cosmos_sdtm:object "TULNKID" ;
    cosmos_sdtm:predicateTerm <https://www.cdisc.org/cosmos/sdtm_v1.0/PredicateTermEnum#SPECIFIES> ;
    cosmos_sdtm:subject "TULOC" .

<https://w3id.org/cdisc/cosmos/dss/TU/TUMERGE/TUMETHOD/relationship> a cosmos_sdtm:RelationShip ;
    cosmos_sdtm:linkingPhrase <https://www.cdisc.org/cosmos/sdtm_v1.0/LinkingPhraseEnum#is%20the%20method%20for%20the%20test%20in> ;
    cosmos_sdtm:object "TUTESTCD" ;
    cosmos_sdtm:predicateTerm <https://www.cdisc.org/cosmos/sdtm_v1.0/PredicateTermEnum#SPECIFIES> ;
    cosmos_sdtm:subject "TUMETHOD" .

<https://w3id.org/cdisc/cosmos/dss/TU/TUMERGE/TUORRES/assignedTerm> a cosmos_sdtm:AssignedTerm ;
    cosmos_sdtm:conceptId NCIT:C94520 ;
    cosmos_sdtm:value "TARGET" .

<https://w3id.org/cdisc/cosmos/dss/TU/TUMERGE/TUORRES/relationship> a cosmos_sdtm:RelationShip ;
    cosmos_sdtm:linkingPhrase <https://www.cdisc.org/cosmos/sdtm_v1.0/LinkingPhraseEnum#is%20the%20result%20of%20the%20test%20in> ;
    cosmos_sdtm:object "TUTESTCD" ;
    cosmos_sdtm:predicateTerm <https://www.cdisc.org/cosmos/sdtm_v1.0/PredicateTermEnum#IS_RESULT_OF> ;
    cosmos_sdtm:subject "TUORRES" .

<https://w3id.org/cdisc/cosmos/dss/TU/TUMERGE/TUREFID/relationship> a cosmos_sdtm:RelationShip ;
    cosmos_sdtm:linkingPhrase <https://www.cdisc.org/cosmos/sdtm_v1.0/LinkingPhraseEnum#identifies%20the%20image%20from%20the%20procedure%20in> ;
    cosmos_sdtm:object "PRTRT" ;
    cosmos_sdtm:predicateTerm <https://www.cdisc.org/cosmos/sdtm_v1.0/PredicateTermEnum#IDENTIFIES_PRODUCT_IN> ;
    cosmos_sdtm:subject "TUREFID" .

<https://w3id.org/cdisc/cosmos/dss/TU/TUMERGE/TUSTRESC/assignedTerm> a cosmos_sdtm:AssignedTerm ;
    cosmos_sdtm:conceptId NCIT:C94520 ;
    cosmos_sdtm:value "TARGET" .

<https://w3id.org/cdisc/cosmos/dss/TU/TUMERGE/TUSTRESC/relationship> a cosmos_sdtm:RelationShip ;
    cosmos_sdtm:linkingPhrase <https://www.cdisc.org/cosmos/sdtm_v1.0/LinkingPhraseEnum#is%20the%20result%20of%20the%20test%20in> ;
    cosmos_sdtm:object "TUTESTCD" ;
    cosmos_sdtm:predicateTerm <https://www.cdisc.org/cosmos/sdtm_v1.0/PredicateTermEnum#IS_RESULT_OF> ;
    cosmos_sdtm:subject "TUSTRESC" .

<https://w3id.org/cdisc/cosmos/dss/TU/TUMERGE/TUTEST/assignedTerm> a cosmos_sdtm:AssignedTerm ;
    cosmos_sdtm:conceptId NCIT:C225437 ;
    cosmos_sdtm:value "Tumor Merged" .

<https://w3id.org/cdisc/cosmos/dss/TU/TUMERGE/TUTEST/relationship> a cosmos_sdtm:RelationShip ;
    cosmos_sdtm:linkingPhrase <https://www.cdisc.org/cosmos/sdtm_v1.0/LinkingPhraseEnum#decodes%20the%20value%20in> ;
    cosmos_sdtm:object "TUTESTCD" ;
    cosmos_sdtm:predicateTerm <https://www.cdisc.org/cosmos/sdtm_v1.0/PredicateTermEnum#DECODES> ;
    cosmos_sdtm:subject "TUTEST" .

<https://w3id.org/cdisc/cosmos/dss/TU/TUMERGE/TUTESTCD/assignedTerm> a cosmos_sdtm:AssignedTerm ;
    cosmos_sdtm:conceptId NCIT:C225437 ;
    cosmos_sdtm:value "TUMERGE" .

<https://w3id.org/cdisc/cosmos/dss/TU/TUMERGE/TUTESTCD/relationship> a cosmos_sdtm:RelationShip ;
    cosmos_sdtm:linkingPhrase <https://www.cdisc.org/cosmos/sdtm_v1.0/LinkingPhraseEnum#is%20the%20code%20for%20the%20value%20in> ;
    cosmos_sdtm:object "TUTEST" ;
    cosmos_sdtm:predicateTerm <https://www.cdisc.org/cosmos/sdtm_v1.0/PredicateTermEnum#IS_DECODED_BY> ;
    cosmos_sdtm:subject "TUTESTCD" .

<https://w3id.org/cdisc/cosmos/dss/TU/TUMERGE_RECIST1_1/TUDIR/relationship> a cosmos_sdtm:RelationShip ;
    cosmos_sdtm:linkingPhrase <https://www.cdisc.org/cosmos/sdtm_v1.0/LinkingPhraseEnum#further%20specifies%20the%20anatomical%20location%20in> ;
    cosmos_sdtm:object "TULOC" ;
    cosmos_sdtm:predicateTerm <https://www.cdisc.org/cosmos/sdtm_v1.0/PredicateTermEnum#SPECIFIES> ;
    cosmos_sdtm:subject "TUDIR" .

<https://w3id.org/cdisc/cosmos/dss/TU/TUMERGE_RECIST1_1/TUDTC/relationship> a cosmos_sdtm:RelationShip ;
    cosmos_sdtm:linkingPhrase <https://www.cdisc.org/cosmos/sdtm_v1.0/LinkingPhraseEnum#is%20the%20date%20of%20occurrence%20for> ;
    cosmos_sdtm:object "TUTESTCD" ;
    cosmos_sdtm:predicateTerm <https://www.cdisc.org/cosmos/sdtm_v1.0/PredicateTermEnum#IS_TIMING_FOR> ;
    cosmos_sdtm:subject "TUDTC" .

<https://w3id.org/cdisc/cosmos/dss/TU/TUMERGE_RECIST1_1/TUEVAL/relationship> a cosmos_sdtm:RelationShip ;
    cosmos_sdtm:linkingPhrase <https://www.cdisc.org/cosmos/sdtm_v1.0/LinkingPhraseEnum#is%20the%20role%20of%20the%20assessor%20who%20performed%20the%20test%20in> ;
    cosmos_sdtm:object "TUTESTCD" ;
    cosmos_sdtm:predicateTerm <https://www.cdisc.org/cosmos/sdtm_v1.0/PredicateTermEnum#PERFORMS> ;
    cosmos_sdtm:subject "TUEVAL" .

<https://w3id.org/cdisc/cosmos/dss/TU/TUMERGE_RECIST1_1/TUEVALID/relationship> a cosmos_sdtm:RelationShip ;
    cosmos_sdtm:linkingPhrase <https://www.cdisc.org/cosmos/sdtm_v1.0/LinkingPhraseEnum#is%20an%20identifier%20for%20the%20evaluator%20with%20the%20role%20in> ;
    cosmos_sdtm:object "TUEVAL" ;
    cosmos_sdtm:predicateTerm <https://www.cdisc.org/cosmos/sdtm_v1.0/PredicateTermEnum#IDENTIFIES> ;
    cosmos_sdtm:subject "TUEVALID" .

<https://w3id.org/cdisc/cosmos/dss/TU/TUMERGE_RECIST1_1/TULAT/relationship> a cosmos_sdtm:RelationShip ;
    cosmos_sdtm:linkingPhrase <https://www.cdisc.org/cosmos/sdtm_v1.0/LinkingPhraseEnum#further%20specifies%20the%20anatomical%20location%20in> ;
    cosmos_sdtm:object "TULOC" ;
    cosmos_sdtm:predicateTerm <https://www.cdisc.org/cosmos/sdtm_v1.0/PredicateTermEnum#SPECIFIES> ;
    cosmos_sdtm:subject "TULAT" .

<https://w3id.org/cdisc/cosmos/dss/TU/TUMERGE_RECIST1_1/TULNKID/relationship> a cosmos_sdtm:RelationShip ;
    cosmos_sdtm:linkingPhrase <https://www.cdisc.org/cosmos/sdtm_v1.0/LinkingPhraseEnum#identifies%20the%20tumor%20found%20by%20the%20test%20in> ;
    cosmos_sdtm:object "TUTESTCD" ;
    cosmos_sdtm:predicateTerm <https://www.cdisc.org/cosmos/sdtm_v1.0/PredicateTermEnum#IDENTIFIES_TUMOR_IN> ;
    cosmos_sdtm:subject "TULNKID" .

<https://w3id.org/cdisc/cosmos/dss/TU/TUMERGE_RECIST1_1/TULOC/relationship> a cosmos_sdtm:RelationShip ;
    cosmos_sdtm:linkingPhrase <https://www.cdisc.org/cosmos/sdtm_v1.0/LinkingPhraseEnum#specifies%20the%20anatomical%20location%20of%20the%20tumor%20identified%20by> ;
    cosmos_sdtm:object "TULNKID" ;
    cosmos_sdtm:predicateTerm <https://www.cdisc.org/cosmos/sdtm_v1.0/PredicateTermEnum#SPECIFIES> ;
    cosmos_sdtm:subject "TULOC" .

<https://w3id.org/cdisc/cosmos/dss/TU/TUMERGE_RECIST1_1/TULOCDTL/relationship> a cosmos_sdtm:RelationShip ;
    cosmos_sdtm:linkingPhrase <https://www.cdisc.org/cosmos/sdtm_v1.0/LinkingPhraseEnum#indicates%20the%20location%20detail%20for%20the%20tumor%20identified%20by> ;
    cosmos_sdtm:object "TULNKID" ;
    cosmos_sdtm:predicateTerm <https://www.cdisc.org/cosmos/sdtm_v1.0/PredicateTermEnum#SPECIFIES> ;
    cosmos_sdtm:subject "TULOCDTL" .

<https://w3id.org/cdisc/cosmos/dss/TU/TUMERGE_RECIST1_1/TUMETHOD/relationship> a cosmos_sdtm:RelationShip ;
    cosmos_sdtm:linkingPhrase <https://www.cdisc.org/cosmos/sdtm_v1.0/LinkingPhraseEnum#is%20the%20method%20for%20the%20test%20in> ;
    cosmos_sdtm:object "TUTESTCD" ;
    cosmos_sdtm:predicateTerm <https://www.cdisc.org/cosmos/sdtm_v1.0/PredicateTermEnum#SPECIFIES> ;
    cosmos_sdtm:subject "TUMETHOD" .

<https://w3id.org/cdisc/cosmos/dss/TU/TUMERGE_RECIST1_1/TUORRES/assignedTerm> a cosmos_sdtm:AssignedTerm ;
    cosmos_sdtm:conceptId NCIT:C94520 ;
    cosmos_sdtm:value "TARGET" .

<https://w3id.org/cdisc/cosmos/dss/TU/TUMERGE_RECIST1_1/TUORRES/relationship> a cosmos_sdtm:RelationShip ;
    cosmos_sdtm:linkingPhrase <https://www.cdisc.org/cosmos/sdtm_v1.0/LinkingPhraseEnum#is%20the%20result%20of%20the%20test%20in> ;
    cosmos_sdtm:object "TUTESTCD" ;
    cosmos_sdtm:predicateTerm <https://www.cdisc.org/cosmos/sdtm_v1.0/PredicateTermEnum#IS_RESULT_OF> ;
    cosmos_sdtm:subject "TUORRES" .

<https://w3id.org/cdisc/cosmos/dss/TU/TUMERGE_RECIST1_1/TUREFID/relationship> a cosmos_sdtm:RelationShip ;
    cosmos_sdtm:linkingPhrase <https://www.cdisc.org/cosmos/sdtm_v1.0/LinkingPhraseEnum#identifies%20the%20image%20from%20the%20procedure%20in> ;
    cosmos_sdtm:object "PRTRT" ;
    cosmos_sdtm:predicateTerm <https://www.cdisc.org/cosmos/sdtm_v1.0/PredicateTermEnum#IDENTIFIES_PRODUCT_IN> ;
    cosmos_sdtm:subject "TUREFID" .

<https://w3id.org/cdisc/cosmos/dss/TU/TUMERGE_RECIST1_1/TUSTRESC/assignedTerm> a cosmos_sdtm:AssignedTerm ;
    cosmos_sdtm:conceptId NCIT:C94520 ;
    cosmos_sdtm:value "TARGET" .

<https://w3id.org/cdisc/cosmos/dss/TU/TUMERGE_RECIST1_1/TUSTRESC/relationship> a cosmos_sdtm:RelationShip ;
    cosmos_sdtm:linkingPhrase <https://www.cdisc.org/cosmos/sdtm_v1.0/LinkingPhraseEnum#is%20the%20result%20of%20the%20test%20in> ;
    cosmos_sdtm:object "TUTESTCD" ;
    cosmos_sdtm:predicateTerm <https://www.cdisc.org/cosmos/sdtm_v1.0/PredicateTermEnum#IS_RESULT_OF> ;
    cosmos_sdtm:subject "TUSTRESC" .

<https://w3id.org/cdisc/cosmos/dss/TU/TUMERGE_RECIST1_1/TUTEST/assignedTerm> a cosmos_sdtm:AssignedTerm ;
    cosmos_sdtm:conceptId NCIT:C225437 ;
    cosmos_sdtm:value "Tumor Merged" .

<https://w3id.org/cdisc/cosmos/dss/TU/TUMERGE_RECIST1_1/TUTEST/relationship> a cosmos_sdtm:RelationShip ;
    cosmos_sdtm:linkingPhrase <https://www.cdisc.org/cosmos/sdtm_v1.0/LinkingPhraseEnum#decodes%20the%20value%20in> ;
    cosmos_sdtm:object "TUTESTCD" ;
    cosmos_sdtm:predicateTerm <https://www.cdisc.org/cosmos/sdtm_v1.0/PredicateTermEnum#DECODES> ;
    cosmos_sdtm:subject "TUTEST" .

<https://w3id.org/cdisc/cosmos/dss/TU/TUMERGE_RECIST1_1/TUTESTCD/assignedTerm> a cosmos_sdtm:AssignedTerm ;
    cosmos_sdtm:conceptId NCIT:C225437 ;
    cosmos_sdtm:value "TUMERGE" .

<https://w3id.org/cdisc/cosmos/dss/TU/TUMERGE_RECIST1_1/TUTESTCD/relationship> a cosmos_sdtm:RelationShip ;
    cosmos_sdtm:linkingPhrase <https://www.cdisc.org/cosmos/sdtm_v1.0/LinkingPhraseEnum#is%20the%20code%20for%20the%20value%20in> ;
    cosmos_sdtm:object "TUTEST" ;
    cosmos_sdtm:predicateTerm <https://www.cdisc.org/cosmos/sdtm_v1.0/PredicateTermEnum#IS_DECODED_BY> ;
    cosmos_sdtm:subject "TUTESTCD" .

<https://w3id.org/cdisc/cosmos/dss/TU/TUMIDENT/PRVIR/relationship> a cosmos_sdtm:RelationShip ;
    cosmos_sdtm:linkingPhrase <https://www.cdisc.org/cosmos/sdtm_v1.0/LinkingPhraseEnum#indicates%20the%20previous%20irradiation%20status%20of%20the%20tumor%20identified%20by> ;
    cosmos_sdtm:object "TULNKID" ;
    cosmos_sdtm:predicateTerm <https://www.cdisc.org/cosmos/sdtm_v1.0/PredicateTermEnum#SPECIFIES> ;
    cosmos_sdtm:subject "PRVIR" .

<https://w3id.org/cdisc/cosmos/dss/TU/TUMIDENT/PRVIRP/relationship> a cosmos_sdtm:RelationShip ;
    cosmos_sdtm:linkingPhrase <https://www.cdisc.org/cosmos/sdtm_v1.0/LinkingPhraseEnum#indicates%20the%20progression%20status%20of%20the%20previous%20irradiated%20tumor%20identified%20by> ;
    cosmos_sdtm:object "TULNKID" ;
    cosmos_sdtm:predicateTerm <https://www.cdisc.org/cosmos/sdtm_v1.0/PredicateTermEnum#SPECIFIES> ;
    cosmos_sdtm:subject "PRVIRP" .

<https://w3id.org/cdisc/cosmos/dss/TU/TUMIDENT/TUDIR/relationship> a cosmos_sdtm:RelationShip ;
    cosmos_sdtm:linkingPhrase <https://www.cdisc.org/cosmos/sdtm_v1.0/LinkingPhraseEnum#further%20specifies%20the%20anatomical%20location%20in> ;
    cosmos_sdtm:object "TULOC" ;
    cosmos_sdtm:predicateTerm <https://www.cdisc.org/cosmos/sdtm_v1.0/PredicateTermEnum#SPECIFIES> ;
    cosmos_sdtm:subject "TUDIR" .

<https://w3id.org/cdisc/cosmos/dss/TU/TUMIDENT/TUDTC/relationship> a cosmos_sdtm:RelationShip ;
    cosmos_sdtm:linkingPhrase <https://www.cdisc.org/cosmos/sdtm_v1.0/LinkingPhraseEnum#is%20the%20date%20of%20occurrence%20for> ;
    cosmos_sdtm:object "TUTESTCD" ;
    cosmos_sdtm:predicateTerm <https://www.cdisc.org/cosmos/sdtm_v1.0/PredicateTermEnum#IS_TIMING_FOR> ;
    cosmos_sdtm:subject "TUDTC" .

<https://w3id.org/cdisc/cosmos/dss/TU/TUMIDENT/TUEVAL/relationship> a cosmos_sdtm:RelationShip ;
    cosmos_sdtm:linkingPhrase <https://www.cdisc.org/cosmos/sdtm_v1.0/LinkingPhraseEnum#is%20the%20role%20of%20the%20assessor%20who%20performed%20the%20test%20in> ;
    cosmos_sdtm:object "TUTESTCD" ;
    cosmos_sdtm:predicateTerm <https://www.cdisc.org/cosmos/sdtm_v1.0/PredicateTermEnum#PERFORMS> ;
    cosmos_sdtm:subject "TUEVAL" .

<https://w3id.org/cdisc/cosmos/dss/TU/TUMIDENT/TUEVALID/relationship> a cosmos_sdtm:RelationShip ;
    cosmos_sdtm:linkingPhrase <https://www.cdisc.org/cosmos/sdtm_v1.0/LinkingPhraseEnum#is%20an%20identifier%20for%20the%20evaluator%20with%20the%20role%20in> ;
    cosmos_sdtm:object "TUEVAL" ;
    cosmos_sdtm:predicateTerm <https://www.cdisc.org/cosmos/sdtm_v1.0/PredicateTermEnum#IDENTIFIES> ;
    cosmos_sdtm:subject "TUEVALID" .

<https://w3id.org/cdisc/cosmos/dss/TU/TUMIDENT/TULAT/relationship> a cosmos_sdtm:RelationShip ;
    cosmos_sdtm:linkingPhrase <https://www.cdisc.org/cosmos/sdtm_v1.0/LinkingPhraseEnum#further%20specifies%20the%20anatomical%20location%20in> ;
    cosmos_sdtm:object "TULOC" ;
    cosmos_sdtm:predicateTerm <https://www.cdisc.org/cosmos/sdtm_v1.0/PredicateTermEnum#SPECIFIES> ;
    cosmos_sdtm:subject "TULAT" .

<https://w3id.org/cdisc/cosmos/dss/TU/TUMIDENT/TULNKID/relationship> a cosmos_sdtm:RelationShip ;
    cosmos_sdtm:linkingPhrase <https://www.cdisc.org/cosmos/sdtm_v1.0/LinkingPhraseEnum#identifies%20the%20tumor%20found%20by%20the%20test%20in> ;
    cosmos_sdtm:object "TUTESTCD" ;
    cosmos_sdtm:predicateTerm <https://www.cdisc.org/cosmos/sdtm_v1.0/PredicateTermEnum#IDENTIFIES_TUMOR_IN> ;
    cosmos_sdtm:subject "TULNKID" .

<https://w3id.org/cdisc/cosmos/dss/TU/TUMIDENT/TULOC/relationship> a cosmos_sdtm:RelationShip ;
    cosmos_sdtm:linkingPhrase <https://www.cdisc.org/cosmos/sdtm_v1.0/LinkingPhraseEnum#specifies%20the%20anatomical%20location%20of%20the%20tumor%20identified%20by> ;
    cosmos_sdtm:object "TULNKID" ;
    cosmos_sdtm:predicateTerm <https://www.cdisc.org/cosmos/sdtm_v1.0/PredicateTermEnum#SPECIFIES> ;
    cosmos_sdtm:subject "TULOC" .

<https://w3id.org/cdisc/cosmos/dss/TU/TUMIDENT/TUMETHOD/relationship> a cosmos_sdtm:RelationShip ;
    cosmos_sdtm:linkingPhrase <https://www.cdisc.org/cosmos/sdtm_v1.0/LinkingPhraseEnum#is%20the%20method%20for%20the%20test%20in> ;
    cosmos_sdtm:object "TUTESTCD" ;
    cosmos_sdtm:predicateTerm <https://www.cdisc.org/cosmos/sdtm_v1.0/PredicateTermEnum#SPECIFIES> ;
    cosmos_sdtm:subject "TUMETHOD" .

<https://w3id.org/cdisc/cosmos/dss/TU/TUMIDENT/TUORRES/relationship> a cosmos_sdtm:RelationShip ;
    cosmos_sdtm:linkingPhrase <https://www.cdisc.org/cosmos/sdtm_v1.0/LinkingPhraseEnum#is%20the%20result%20of%20the%20test%20in> ;
    cosmos_sdtm:object "TUTESTCD" ;
    cosmos_sdtm:predicateTerm <https://www.cdisc.org/cosmos/sdtm_v1.0/PredicateTermEnum#IS_RESULT_OF> ;
    cosmos_sdtm:subject "TUORRES" .

<https://w3id.org/cdisc/cosmos/dss/TU/TUMIDENT/TUREFID/relationship> a cosmos_sdtm:RelationShip ;
    cosmos_sdtm:linkingPhrase <https://www.cdisc.org/cosmos/sdtm_v1.0/LinkingPhraseEnum#identifies%20the%20image%20from%20the%20procedure%20in> ;
    cosmos_sdtm:object "PRTRT" ;
    cosmos_sdtm:predicateTerm <https://www.cdisc.org/cosmos/sdtm_v1.0/PredicateTermEnum#IDENTIFIES_PRODUCT_IN> ;
    cosmos_sdtm:subject "TUREFID" .

<https://w3id.org/cdisc/cosmos/dss/TU/TUMIDENT/TUSTRESC/relationship> a cosmos_sdtm:RelationShip ;
    cosmos_sdtm:linkingPhrase <https://www.cdisc.org/cosmos/sdtm_v1.0/LinkingPhraseEnum#is%20the%20result%20of%20the%20test%20in> ;
    cosmos_sdtm:object "TUTESTCD" ;
    cosmos_sdtm:predicateTerm <https://www.cdisc.org/cosmos/sdtm_v1.0/PredicateTermEnum#IS_RESULT_OF> ;
    cosmos_sdtm:subject "TUSTRESC" .

<https://w3id.org/cdisc/cosmos/dss/TU/TUMIDENT/TUTEST/assignedTerm> a cosmos_sdtm:AssignedTerm ;
    cosmos_sdtm:conceptId NCIT:C94523 ;
    cosmos_sdtm:value "Tumor Identification" .

<https://w3id.org/cdisc/cosmos/dss/TU/TUMIDENT/TUTEST/relationship> a cosmos_sdtm:RelationShip ;
    cosmos_sdtm:linkingPhrase <https://www.cdisc.org/cosmos/sdtm_v1.0/LinkingPhraseEnum#decodes%20the%20value%20in> ;
    cosmos_sdtm:object "TUTESTCD" ;
    cosmos_sdtm:predicateTerm <https://www.cdisc.org/cosmos/sdtm_v1.0/PredicateTermEnum#DECODES> ;
    cosmos_sdtm:subject "TUTEST" .

<https://w3id.org/cdisc/cosmos/dss/TU/TUMIDENT/TUTESTCD/assignedTerm> a cosmos_sdtm:AssignedTerm ;
    cosmos_sdtm:conceptId NCIT:C94523 ;
    cosmos_sdtm:value "TUMIDENT" .

<https://w3id.org/cdisc/cosmos/dss/TU/TUMIDENT/TUTESTCD/relationship> a cosmos_sdtm:RelationShip ;
    cosmos_sdtm:linkingPhrase <https://www.cdisc.org/cosmos/sdtm_v1.0/LinkingPhraseEnum#is%20the%20code%20for%20the%20value%20in> ;
    cosmos_sdtm:object "TUTEST" ;
    cosmos_sdtm:predicateTerm <https://www.cdisc.org/cosmos/sdtm_v1.0/PredicateTermEnum#IS_DECODED_BY> ;
    cosmos_sdtm:subject "TUTESTCD" .

<https://w3id.org/cdisc/cosmos/dss/TU/TUMIDENT_RECIST1_1/TUDIR/relationship> a cosmos_sdtm:RelationShip ;
    cosmos_sdtm:linkingPhrase <https://www.cdisc.org/cosmos/sdtm_v1.0/LinkingPhraseEnum#further%20specifies%20the%20anatomical%20location%20in> ;
    cosmos_sdtm:object "TULOC" ;
    cosmos_sdtm:predicateTerm <https://www.cdisc.org/cosmos/sdtm_v1.0/PredicateTermEnum#SPECIFIES> ;
    cosmos_sdtm:subject "TUDIR" .

<https://w3id.org/cdisc/cosmos/dss/TU/TUMIDENT_RECIST1_1/TUDTC/relationship> a cosmos_sdtm:RelationShip ;
    cosmos_sdtm:linkingPhrase <https://www.cdisc.org/cosmos/sdtm_v1.0/LinkingPhraseEnum#is%20the%20date%20of%20occurrence%20for> ;
    cosmos_sdtm:object "TUTESTCD" ;
    cosmos_sdtm:predicateTerm <https://www.cdisc.org/cosmos/sdtm_v1.0/PredicateTermEnum#IS_TIMING_FOR> ;
    cosmos_sdtm:subject "TUDTC" .

<https://w3id.org/cdisc/cosmos/dss/TU/TUMIDENT_RECIST1_1/TUEVAL/relationship> a cosmos_sdtm:RelationShip ;
    cosmos_sdtm:linkingPhrase <https://www.cdisc.org/cosmos/sdtm_v1.0/LinkingPhraseEnum#is%20the%20role%20of%20the%20assessor%20who%20performed%20the%20test%20in> ;
    cosmos_sdtm:object "TUTESTCD" ;
    cosmos_sdtm:predicateTerm <https://www.cdisc.org/cosmos/sdtm_v1.0/PredicateTermEnum#PERFORMS> ;
    cosmos_sdtm:subject "TUEVAL" .

<https://w3id.org/cdisc/cosmos/dss/TU/TUMIDENT_RECIST1_1/TUEVALID/relationship> a cosmos_sdtm:RelationShip ;
    cosmos_sdtm:linkingPhrase <https://www.cdisc.org/cosmos/sdtm_v1.0/LinkingPhraseEnum#is%20an%20identifier%20for%20the%20evaluator%20with%20the%20role%20in> ;
    cosmos_sdtm:object "TUEVAL" ;
    cosmos_sdtm:predicateTerm <https://www.cdisc.org/cosmos/sdtm_v1.0/PredicateTermEnum#IDENTIFIES> ;
    cosmos_sdtm:subject "TUEVALID" .

<https://w3id.org/cdisc/cosmos/dss/TU/TUMIDENT_RECIST1_1/TULAT/relationship> a cosmos_sdtm:RelationShip ;
    cosmos_sdtm:linkingPhrase <https://www.cdisc.org/cosmos/sdtm_v1.0/LinkingPhraseEnum#further%20specifies%20the%20anatomical%20location%20in> ;
    cosmos_sdtm:object "TULOC" ;
    cosmos_sdtm:predicateTerm <https://www.cdisc.org/cosmos/sdtm_v1.0/PredicateTermEnum#SPECIFIES> ;
    cosmos_sdtm:subject "TULAT" .

<https://w3id.org/cdisc/cosmos/dss/TU/TUMIDENT_RECIST1_1/TULNKID/relationship> a cosmos_sdtm:RelationShip ;
    cosmos_sdtm:linkingPhrase <https://www.cdisc.org/cosmos/sdtm_v1.0/LinkingPhraseEnum#identifies%20the%20tumor%20found%20by%20the%20test%20in> ;
    cosmos_sdtm:object "TUTESTCD" ;
    cosmos_sdtm:predicateTerm <https://www.cdisc.org/cosmos/sdtm_v1.0/PredicateTermEnum#IDENTIFIES_TUMOR_IN> ;
    cosmos_sdtm:subject "TULNKID" .

<https://w3id.org/cdisc/cosmos/dss/TU/TUMIDENT_RECIST1_1/TULOC/relationship> a cosmos_sdtm:RelationShip ;
    cosmos_sdtm:linkingPhrase <https://www.cdisc.org/cosmos/sdtm_v1.0/LinkingPhraseEnum#specifies%20the%20anatomical%20location%20of%20the%20tumor%20identified%20by> ;
    cosmos_sdtm:object "TULNKID" ;
    cosmos_sdtm:predicateTerm <https://www.cdisc.org/cosmos/sdtm_v1.0/PredicateTermEnum#SPECIFIES> ;
    cosmos_sdtm:subject "TULOC" .

<https://w3id.org/cdisc/cosmos/dss/TU/TUMIDENT_RECIST1_1/TULOCDTL/relationship> a cosmos_sdtm:RelationShip ;
    cosmos_sdtm:linkingPhrase <https://www.cdisc.org/cosmos/sdtm_v1.0/LinkingPhraseEnum#indicates%20the%20location%20detail%20for%20the%20tumor%20identified%20by> ;
    cosmos_sdtm:object "TULNKID" ;
    cosmos_sdtm:predicateTerm <https://www.cdisc.org/cosmos/sdtm_v1.0/PredicateTermEnum#SPECIFIES> ;
    cosmos_sdtm:subject "TULOCDTL" .

<https://w3id.org/cdisc/cosmos/dss/TU/TUMIDENT_RECIST1_1/TUMETHOD/relationship> a cosmos_sdtm:RelationShip ;
    cosmos_sdtm:linkingPhrase <https://www.cdisc.org/cosmos/sdtm_v1.0/LinkingPhraseEnum#is%20the%20method%20for%20the%20test%20in> ;
    cosmos_sdtm:object "TUTESTCD" ;
    cosmos_sdtm:predicateTerm <https://www.cdisc.org/cosmos/sdtm_v1.0/PredicateTermEnum#SPECIFIES> ;
    cosmos_sdtm:subject "TUMETHOD" .

<https://w3id.org/cdisc/cosmos/dss/TU/TUMIDENT_RECIST1_1/TUORRES/relationship> a cosmos_sdtm:RelationShip ;
    cosmos_sdtm:linkingPhrase <https://www.cdisc.org/cosmos/sdtm_v1.0/LinkingPhraseEnum#is%20the%20result%20of%20the%20test%20in> ;
    cosmos_sdtm:object "TUTESTCD" ;
    cosmos_sdtm:predicateTerm <https://www.cdisc.org/cosmos/sdtm_v1.0/PredicateTermEnum#IS_RESULT_OF> ;
    cosmos_sdtm:subject "TUORRES" .

<https://w3id.org/cdisc/cosmos/dss/TU/TUMIDENT_RECIST1_1/TUPRVIR/relationship> a cosmos_sdtm:RelationShip ;
    cosmos_sdtm:linkingPhrase <https://www.cdisc.org/cosmos/sdtm_v1.0/LinkingPhraseEnum#indicates%20the%20previous%20irradiation%20status%20of%20the%20tumor%20identified%20by> ;
    cosmos_sdtm:object "TULNKID" ;
    cosmos_sdtm:predicateTerm <https://www.cdisc.org/cosmos/sdtm_v1.0/PredicateTermEnum#SPECIFIES> ;
    cosmos_sdtm:subject "TUPRVIR" .

<https://w3id.org/cdisc/cosmos/dss/TU/TUMIDENT_RECIST1_1/TUPRVIRP/relationship> a cosmos_sdtm:RelationShip ;
    cosmos_sdtm:linkingPhrase <https://www.cdisc.org/cosmos/sdtm_v1.0/LinkingPhraseEnum#indicates%20the%20progression%20status%20of%20the%20previous%20irradiated%20tumor%20identified%20by> ;
    cosmos_sdtm:object "TULNKID" ;
    cosmos_sdtm:predicateTerm <https://www.cdisc.org/cosmos/sdtm_v1.0/PredicateTermEnum#SPECIFIES> ;
    cosmos_sdtm:subject "TUPRVIRP" .

<https://w3id.org/cdisc/cosmos/dss/TU/TUMIDENT_RECIST1_1/TUREFID/relationship> a cosmos_sdtm:RelationShip ;
    cosmos_sdtm:linkingPhrase <https://www.cdisc.org/cosmos/sdtm_v1.0/LinkingPhraseEnum#identifies%20the%20image%20from%20the%20procedure%20in> ;
    cosmos_sdtm:object "PRTRT" ;
    cosmos_sdtm:predicateTerm <https://www.cdisc.org/cosmos/sdtm_v1.0/PredicateTermEnum#IDENTIFIES_PRODUCT_IN> ;
    cosmos_sdtm:subject "TUREFID" .

<https://w3id.org/cdisc/cosmos/dss/TU/TUMIDENT_RECIST1_1/TUSTRESC/relationship> a cosmos_sdtm:RelationShip ;
    cosmos_sdtm:linkingPhrase <https://www.cdisc.org/cosmos/sdtm_v1.0/LinkingPhraseEnum#is%20the%20result%20of%20the%20test%20in> ;
    cosmos_sdtm:object "TUTESTCD" ;
    cosmos_sdtm:predicateTerm <https://www.cdisc.org/cosmos/sdtm_v1.0/PredicateTermEnum#IS_RESULT_OF> ;
    cosmos_sdtm:subject "TUSTRESC" .

<https://w3id.org/cdisc/cosmos/dss/TU/TUMIDENT_RECIST1_1/TUTEST/assignedTerm> a cosmos_sdtm:AssignedTerm ;
    cosmos_sdtm:conceptId NCIT:C94523 ;
    cosmos_sdtm:value "Tumor Identification" .

<https://w3id.org/cdisc/cosmos/dss/TU/TUMIDENT_RECIST1_1/TUTEST/relationship> a cosmos_sdtm:RelationShip ;
    cosmos_sdtm:linkingPhrase <https://www.cdisc.org/cosmos/sdtm_v1.0/LinkingPhraseEnum#decodes%20the%20value%20in> ;
    cosmos_sdtm:object "TUTESTCD" ;
    cosmos_sdtm:predicateTerm <https://www.cdisc.org/cosmos/sdtm_v1.0/PredicateTermEnum#DECODES> ;
    cosmos_sdtm:subject "TUTEST" .

<https://w3id.org/cdisc/cosmos/dss/TU/TUMIDENT_RECIST1_1/TUTESTCD/assignedTerm> a cosmos_sdtm:AssignedTerm ;
    cosmos_sdtm:conceptId NCIT:C94523 ;
    cosmos_sdtm:value "TUMIDENT" .

<https://w3id.org/cdisc/cosmos/dss/TU/TUMIDENT_RECIST1_1/TUTESTCD/relationship> a cosmos_sdtm:RelationShip ;
    cosmos_sdtm:linkingPhrase <https://www.cdisc.org/cosmos/sdtm_v1.0/LinkingPhraseEnum#is%20the%20code%20for%20the%20value%20in> ;
    cosmos_sdtm:object "TUTEST" ;
    cosmos_sdtm:predicateTerm <https://www.cdisc.org/cosmos/sdtm_v1.0/PredicateTermEnum#IS_DECODED_BY> ;
    cosmos_sdtm:subject "TUTESTCD" .

<https://w3id.org/cdisc/cosmos/dss/TU/TUSPLIT/TUDIR/relationship> a cosmos_sdtm:RelationShip ;
    cosmos_sdtm:linkingPhrase <https://www.cdisc.org/cosmos/sdtm_v1.0/LinkingPhraseEnum#further%20specifies%20the%20anatomical%20location%20in> ;
    cosmos_sdtm:object "TULOC" ;
    cosmos_sdtm:predicateTerm <https://www.cdisc.org/cosmos/sdtm_v1.0/PredicateTermEnum#SPECIFIES> ;
    cosmos_sdtm:subject "TUDIR" .

<https://w3id.org/cdisc/cosmos/dss/TU/TUSPLIT/TUDTC/relationship> a cosmos_sdtm:RelationShip ;
    cosmos_sdtm:linkingPhrase <https://www.cdisc.org/cosmos/sdtm_v1.0/LinkingPhraseEnum#is%20the%20date%20of%20occurrence%20for> ;
    cosmos_sdtm:object "TUTESTCD" ;
    cosmos_sdtm:predicateTerm <https://www.cdisc.org/cosmos/sdtm_v1.0/PredicateTermEnum#IS_TIMING_FOR> ;
    cosmos_sdtm:subject "TUDTC" .

<https://w3id.org/cdisc/cosmos/dss/TU/TUSPLIT/TUEVAL/relationship> a cosmos_sdtm:RelationShip ;
    cosmos_sdtm:linkingPhrase <https://www.cdisc.org/cosmos/sdtm_v1.0/LinkingPhraseEnum#is%20the%20role%20of%20the%20assessor%20who%20performed%20the%20test%20in> ;
    cosmos_sdtm:object "TUTESTCD" ;
    cosmos_sdtm:predicateTerm <https://www.cdisc.org/cosmos/sdtm_v1.0/PredicateTermEnum#PERFORMS> ;
    cosmos_sdtm:subject "TUEVAL" .

<https://w3id.org/cdisc/cosmos/dss/TU/TUSPLIT/TUEVALID/relationship> a cosmos_sdtm:RelationShip ;
    cosmos_sdtm:linkingPhrase <https://www.cdisc.org/cosmos/sdtm_v1.0/LinkingPhraseEnum#is%20an%20identifier%20for%20the%20evaluator%20with%20the%20role%20in> ;
    cosmos_sdtm:object "TUEVAL" ;
    cosmos_sdtm:predicateTerm <https://www.cdisc.org/cosmos/sdtm_v1.0/PredicateTermEnum#IDENTIFIES> ;
    cosmos_sdtm:subject "TUEVALID" .

<https://w3id.org/cdisc/cosmos/dss/TU/TUSPLIT/TULAT/relationship> a cosmos_sdtm:RelationShip ;
    cosmos_sdtm:linkingPhrase <https://www.cdisc.org/cosmos/sdtm_v1.0/LinkingPhraseEnum#further%20specifies%20the%20anatomical%20location%20in> ;
    cosmos_sdtm:object "TULOC" ;
    cosmos_sdtm:predicateTerm <https://www.cdisc.org/cosmos/sdtm_v1.0/PredicateTermEnum#SPECIFIES> ;
    cosmos_sdtm:subject "TULAT" .

<https://w3id.org/cdisc/cosmos/dss/TU/TUSPLIT/TULNKID/relationship> a cosmos_sdtm:RelationShip ;
    cosmos_sdtm:linkingPhrase <https://www.cdisc.org/cosmos/sdtm_v1.0/LinkingPhraseEnum#identifies%20the%20tumor%20found%20by%20the%20test%20in> ;
    cosmos_sdtm:object "TUTESTCD" ;
    cosmos_sdtm:predicateTerm <https://www.cdisc.org/cosmos/sdtm_v1.0/PredicateTermEnum#IDENTIFIES_TUMOR_IN> ;
    cosmos_sdtm:subject "TULNKID" .

<https://w3id.org/cdisc/cosmos/dss/TU/TUSPLIT/TULOC/relationship> a cosmos_sdtm:RelationShip ;
    cosmos_sdtm:linkingPhrase <https://www.cdisc.org/cosmos/sdtm_v1.0/LinkingPhraseEnum#specifies%20the%20anatomical%20location%20of%20the%20tumor%20identified%20by> ;
    cosmos_sdtm:object "TULNKID" ;
    cosmos_sdtm:predicateTerm <https://www.cdisc.org/cosmos/sdtm_v1.0/PredicateTermEnum#SPECIFIES> ;
    cosmos_sdtm:subject "TULOC" .

<https://w3id.org/cdisc/cosmos/dss/TU/TUSPLIT/TUMETHOD/relationship> a cosmos_sdtm:RelationShip ;
    cosmos_sdtm:linkingPhrase <https://www.cdisc.org/cosmos/sdtm_v1.0/LinkingPhraseEnum#is%20the%20method%20for%20the%20test%20in> ;
    cosmos_sdtm:object "TUTESTCD" ;
    cosmos_sdtm:predicateTerm <https://www.cdisc.org/cosmos/sdtm_v1.0/PredicateTermEnum#SPECIFIES> ;
    cosmos_sdtm:subject "TUMETHOD" .

<https://w3id.org/cdisc/cosmos/dss/TU/TUSPLIT/TUORRES/assignedTerm> a cosmos_sdtm:AssignedTerm ;
    cosmos_sdtm:conceptId NCIT:C94520 ;
    cosmos_sdtm:value "TARGET" .

<https://w3id.org/cdisc/cosmos/dss/TU/TUSPLIT/TUORRES/relationship> a cosmos_sdtm:RelationShip ;
    cosmos_sdtm:linkingPhrase <https://www.cdisc.org/cosmos/sdtm_v1.0/LinkingPhraseEnum#is%20the%20result%20of%20the%20test%20in> ;
    cosmos_sdtm:object "TUTESTCD" ;
    cosmos_sdtm:predicateTerm <https://www.cdisc.org/cosmos/sdtm_v1.0/PredicateTermEnum#IS_RESULT_OF> ;
    cosmos_sdtm:subject "TUORRES" .

<https://w3id.org/cdisc/cosmos/dss/TU/TUSPLIT/TUREFID/relationship> a cosmos_sdtm:RelationShip ;
    cosmos_sdtm:linkingPhrase <https://www.cdisc.org/cosmos/sdtm_v1.0/LinkingPhraseEnum#identifies%20the%20image%20from%20the%20procedure%20in> ;
    cosmos_sdtm:object "PRTRT" ;
    cosmos_sdtm:predicateTerm <https://www.cdisc.org/cosmos/sdtm_v1.0/PredicateTermEnum#IDENTIFIES_PRODUCT_IN> ;
    cosmos_sdtm:subject "TUREFID" .

<https://w3id.org/cdisc/cosmos/dss/TU/TUSPLIT/TUSTRESC/assignedTerm> a cosmos_sdtm:AssignedTerm ;
    cosmos_sdtm:conceptId NCIT:C94520 ;
    cosmos_sdtm:value "TARGET" .

<https://w3id.org/cdisc/cosmos/dss/TU/TUSPLIT/TUSTRESC/relationship> a cosmos_sdtm:RelationShip ;
    cosmos_sdtm:linkingPhrase <https://www.cdisc.org/cosmos/sdtm_v1.0/LinkingPhraseEnum#is%20the%20result%20of%20the%20test%20in> ;
    cosmos_sdtm:object "TUTESTCD" ;
    cosmos_sdtm:predicateTerm <https://www.cdisc.org/cosmos/sdtm_v1.0/PredicateTermEnum#IS_RESULT_OF> ;
    cosmos_sdtm:subject "TUSTRESC" .

<https://w3id.org/cdisc/cosmos/dss/TU/TUSPLIT/TUTEST/assignedTerm> a cosmos_sdtm:AssignedTerm ;
    cosmos_sdtm:conceptId NCIT:C225438 ;
    cosmos_sdtm:value "Tumor Split" .

<https://w3id.org/cdisc/cosmos/dss/TU/TUSPLIT/TUTEST/relationship> a cosmos_sdtm:RelationShip ;
    cosmos_sdtm:linkingPhrase <https://www.cdisc.org/cosmos/sdtm_v1.0/LinkingPhraseEnum#decodes%20the%20value%20in> ;
    cosmos_sdtm:object "TUTESTCD" ;
    cosmos_sdtm:predicateTerm <https://www.cdisc.org/cosmos/sdtm_v1.0/PredicateTermEnum#DECODES> ;
    cosmos_sdtm:subject "TUTEST" .

<https://w3id.org/cdisc/cosmos/dss/TU/TUSPLIT/TUTESTCD/assignedTerm> a cosmos_sdtm:AssignedTerm ;
    cosmos_sdtm:conceptId NCIT:C225438 ;
    cosmos_sdtm:value "TUSPLIT" .

<https://w3id.org/cdisc/cosmos/dss/TU/TUSPLIT/TUTESTCD/relationship> a cosmos_sdtm:RelationShip ;
    cosmos_sdtm:linkingPhrase <https://www.cdisc.org/cosmos/sdtm_v1.0/LinkingPhraseEnum#is%20the%20code%20for%20the%20value%20in> ;
    cosmos_sdtm:object "TUTEST" ;
    cosmos_sdtm:predicateTerm <https://www.cdisc.org/cosmos/sdtm_v1.0/PredicateTermEnum#IS_DECODED_BY> ;
    cosmos_sdtm:subject "TUTESTCD" .

<https://w3id.org/cdisc/cosmos/dss/TU/TUSPLIT_RECIST1_1/TUDIR/relationship> a cosmos_sdtm:RelationShip ;
    cosmos_sdtm:linkingPhrase <https://www.cdisc.org/cosmos/sdtm_v1.0/LinkingPhraseEnum#further%20specifies%20the%20anatomical%20location%20in> ;
    cosmos_sdtm:object "TULOC" ;
    cosmos_sdtm:predicateTerm <https://www.cdisc.org/cosmos/sdtm_v1.0/PredicateTermEnum#SPECIFIES> ;
    cosmos_sdtm:subject "TUDIR" .

<https://w3id.org/cdisc/cosmos/dss/TU/TUSPLIT_RECIST1_1/TUDTC/relationship> a cosmos_sdtm:RelationShip ;
    cosmos_sdtm:linkingPhrase <https://www.cdisc.org/cosmos/sdtm_v1.0/LinkingPhraseEnum#is%20the%20date%20of%20occurrence%20for> ;
    cosmos_sdtm:object "TUTESTCD" ;
    cosmos_sdtm:predicateTerm <https://www.cdisc.org/cosmos/sdtm_v1.0/PredicateTermEnum#IS_TIMING_FOR> ;
    cosmos_sdtm:subject "TUDTC" .

<https://w3id.org/cdisc/cosmos/dss/TU/TUSPLIT_RECIST1_1/TUEVAL/relationship> a cosmos_sdtm:RelationShip ;
    cosmos_sdtm:linkingPhrase <https://www.cdisc.org/cosmos/sdtm_v1.0/LinkingPhraseEnum#is%20the%20role%20of%20the%20assessor%20who%20performed%20the%20test%20in> ;
    cosmos_sdtm:object "TUTESTCD" ;
    cosmos_sdtm:predicateTerm <https://www.cdisc.org/cosmos/sdtm_v1.0/PredicateTermEnum#PERFORMS> ;
    cosmos_sdtm:subject "TUEVAL" .

<https://w3id.org/cdisc/cosmos/dss/TU/TUSPLIT_RECIST1_1/TUEVALID/relationship> a cosmos_sdtm:RelationShip ;
    cosmos_sdtm:linkingPhrase <https://www.cdisc.org/cosmos/sdtm_v1.0/LinkingPhraseEnum#is%20an%20identifier%20for%20the%20evaluator%20with%20the%20role%20in> ;
    cosmos_sdtm:object "TUEVAL" ;
    cosmos_sdtm:predicateTerm <https://www.cdisc.org/cosmos/sdtm_v1.0/PredicateTermEnum#IDENTIFIES> ;
    cosmos_sdtm:subject "TUEVALID" .

<https://w3id.org/cdisc/cosmos/dss/TU/TUSPLIT_RECIST1_1/TULAT/relationship> a cosmos_sdtm:RelationShip ;
    cosmos_sdtm:linkingPhrase <https://www.cdisc.org/cosmos/sdtm_v1.0/LinkingPhraseEnum#further%20specifies%20the%20anatomical%20location%20in> ;
    cosmos_sdtm:object "TULOC" ;
    cosmos_sdtm:predicateTerm <https://www.cdisc.org/cosmos/sdtm_v1.0/PredicateTermEnum#SPECIFIES> ;
    cosmos_sdtm:subject "TULAT" .

<https://w3id.org/cdisc/cosmos/dss/TU/TUSPLIT_RECIST1_1/TULNKID/relationship> a cosmos_sdtm:RelationShip ;
    cosmos_sdtm:linkingPhrase <https://www.cdisc.org/cosmos/sdtm_v1.0/LinkingPhraseEnum#identifies%20the%20tumor%20found%20by%20the%20test%20in> ;
    cosmos_sdtm:object "TUTESTCD" ;
    cosmos_sdtm:predicateTerm <https://www.cdisc.org/cosmos/sdtm_v1.0/PredicateTermEnum#IDENTIFIES_TUMOR_IN> ;
    cosmos_sdtm:subject "TULNKID" .

<https://w3id.org/cdisc/cosmos/dss/TU/TUSPLIT_RECIST1_1/TULOC/relationship> a cosmos_sdtm:RelationShip ;
    cosmos_sdtm:linkingPhrase <https://www.cdisc.org/cosmos/sdtm_v1.0/LinkingPhraseEnum#specifies%20the%20anatomical%20location%20of%20the%20tumor%20identified%20by> ;
    cosmos_sdtm:object "TULNKID" ;
    cosmos_sdtm:predicateTerm <https://www.cdisc.org/cosmos/sdtm_v1.0/PredicateTermEnum#SPECIFIES> ;
    cosmos_sdtm:subject "TULOC" .

<https://w3id.org/cdisc/cosmos/dss/TU/TUSPLIT_RECIST1_1/TULOCDTL/relationship> a cosmos_sdtm:RelationShip ;
    cosmos_sdtm:linkingPhrase <https://www.cdisc.org/cosmos/sdtm_v1.0/LinkingPhraseEnum#indicates%20the%20location%20detail%20for%20the%20tumor%20identified%20by> ;
    cosmos_sdtm:object "TULNKID" ;
    cosmos_sdtm:predicateTerm <https://www.cdisc.org/cosmos/sdtm_v1.0/PredicateTermEnum#SPECIFIES> ;
    cosmos_sdtm:subject "TULOCDTL" .

<https://w3id.org/cdisc/cosmos/dss/TU/TUSPLIT_RECIST1_1/TUMETHOD/relationship> a cosmos_sdtm:RelationShip ;
    cosmos_sdtm:linkingPhrase <https://www.cdisc.org/cosmos/sdtm_v1.0/LinkingPhraseEnum#is%20the%20method%20for%20the%20test%20in> ;
    cosmos_sdtm:object "TUTESTCD" ;
    cosmos_sdtm:predicateTerm <https://www.cdisc.org/cosmos/sdtm_v1.0/PredicateTermEnum#SPECIFIES> ;
    cosmos_sdtm:subject "TUMETHOD" .

<https://w3id.org/cdisc/cosmos/dss/TU/TUSPLIT_RECIST1_1/TUORRES/assignedTerm> a cosmos_sdtm:AssignedTerm ;
    cosmos_sdtm:conceptId NCIT:C94520 ;
    cosmos_sdtm:value "TARGET" .

<https://w3id.org/cdisc/cosmos/dss/TU/TUSPLIT_RECIST1_1/TUORRES/relationship> a cosmos_sdtm:RelationShip ;
    cosmos_sdtm:linkingPhrase <https://www.cdisc.org/cosmos/sdtm_v1.0/LinkingPhraseEnum#is%20the%20result%20of%20the%20test%20in> ;
    cosmos_sdtm:object "TUTESTCD" ;
    cosmos_sdtm:predicateTerm <https://www.cdisc.org/cosmos/sdtm_v1.0/PredicateTermEnum#IS_RESULT_OF> ;
    cosmos_sdtm:subject "TUORRES" .

<https://w3id.org/cdisc/cosmos/dss/TU/TUSPLIT_RECIST1_1/TUREFID/relationship> a cosmos_sdtm:RelationShip ;
    cosmos_sdtm:linkingPhrase <https://www.cdisc.org/cosmos/sdtm_v1.0/LinkingPhraseEnum#identifies%20the%20image%20from%20the%20procedure%20in> ;
    cosmos_sdtm:object "PRTRT" ;
    cosmos_sdtm:predicateTerm <https://www.cdisc.org/cosmos/sdtm_v1.0/PredicateTermEnum#IDENTIFIES_PRODUCT_IN> ;
    cosmos_sdtm:subject "TUREFID" .

<https://w3id.org/cdisc/cosmos/dss/TU/TUSPLIT_RECIST1_1/TUSTRESC/assignedTerm> a cosmos_sdtm:AssignedTerm ;
    cosmos_sdtm:conceptId NCIT:C94520 ;
    cosmos_sdtm:value "TARGET" .

<https://w3id.org/cdisc/cosmos/dss/TU/TUSPLIT_RECIST1_1/TUSTRESC/relationship> a cosmos_sdtm:RelationShip ;
    cosmos_sdtm:linkingPhrase <https://www.cdisc.org/cosmos/sdtm_v1.0/LinkingPhraseEnum#is%20the%20result%20of%20the%20test%20in> ;
    cosmos_sdtm:object "TUTESTCD" ;
    cosmos_sdtm:predicateTerm <https://www.cdisc.org/cosmos/sdtm_v1.0/PredicateTermEnum#IS_RESULT_OF> ;
    cosmos_sdtm:subject "TUSTRESC" .

<https://w3id.org/cdisc/cosmos/dss/TU/TUSPLIT_RECIST1_1/TUTEST/assignedTerm> a cosmos_sdtm:AssignedTerm ;
    cosmos_sdtm:conceptId NCIT:C225438 ;
    cosmos_sdtm:value "Tumor Split" .

<https://w3id.org/cdisc/cosmos/dss/TU/TUSPLIT_RECIST1_1/TUTEST/relationship> a cosmos_sdtm:RelationShip ;
    cosmos_sdtm:linkingPhrase <https://www.cdisc.org/cosmos/sdtm_v1.0/LinkingPhraseEnum#decodes%20the%20value%20in> ;
    cosmos_sdtm:object "TUTESTCD" ;
    cosmos_sdtm:predicateTerm <https://www.cdisc.org/cosmos/sdtm_v1.0/PredicateTermEnum#DECODES> ;
    cosmos_sdtm:subject "TUTEST" .

<https://w3id.org/cdisc/cosmos/dss/TU/TUSPLIT_RECIST1_1/TUTESTCD/assignedTerm> a cosmos_sdtm:AssignedTerm ;
    cosmos_sdtm:conceptId NCIT:C225438 ;
    cosmos_sdtm:value "TUSPLIT" .

<https://w3id.org/cdisc/cosmos/dss/TU/TUSPLIT_RECIST1_1/TUTESTCD/relationship> a cosmos_sdtm:RelationShip ;
    cosmos_sdtm:linkingPhrase <https://www.cdisc.org/cosmos/sdtm_v1.0/LinkingPhraseEnum#is%20the%20code%20for%20the%20value%20in> ;
    cosmos_sdtm:object "TUTEST" ;
    cosmos_sdtm:predicateTerm <https://www.cdisc.org/cosmos/sdtm_v1.0/PredicateTermEnum#IS_DECODED_BY> ;
    cosmos_sdtm:subject "TUTESTCD" .

<https://w3id.org/cdisc/cosmos/dss/TU/DRCRLTLC/TUDTC> a cosmos_sdtm:SDTMVariable ;
    cosmos_sdtm:dataElementConceptId NCIT:C82515 ;
    cosmos_sdtm:isNonStandard false ;
    cosmos_sdtm:mandatoryValue false ;
    cosmos_sdtm:mandatoryVariable true ;
    cosmos_sdtm:name "TUDTC" ;
    cosmos_sdtm:originSource NCIT:C70793 ;
    cosmos_sdtm:originType NCIT:C170548 ;
    cosmos_sdtm:relationship <https://w3id.org/cdisc/cosmos/dss/TU/DRCRLTLC/TUDTC/relationship> ;
    cosmos_sdtm:role <https://www.cdisc.org/cosmos/sdtm_v1.0/RoleEnum#Timing> .

<https://w3id.org/cdisc/cosmos/dss/TU/DRCRLTLC/TUEVAL> a cosmos_sdtm:SDTMVariable ;
    cosmos_sdtm:assignedTerm <https://w3id.org/cdisc/cosmos/dss/TU/DRCRLTLC/TUEVAL/assignedTerm> ;
    cosmos_sdtm:codelist NCIT:C78735 ;
    cosmos_sdtm:comparator <https://www.cdisc.org/cosmos/sdtm_v1.0/ComparatorEnum#EQ> ;
    cosmos_sdtm:dataElementConceptId NCIT:C51824 ;
    cosmos_sdtm:isNonStandard false ;
    cosmos_sdtm:mandatoryValue false ;
    cosmos_sdtm:mandatoryVariable false ;
    cosmos_sdtm:name "TUEVAL" ;
    cosmos_sdtm:originSource NCIT:C70793 ;
    cosmos_sdtm:originType NCIT:C170547 ;
    cosmos_sdtm:relationship <https://w3id.org/cdisc/cosmos/dss/TU/DRCRLTLC/TUEVAL/relationship> ;
    cosmos_sdtm:role <https://www.cdisc.org/cosmos/sdtm_v1.0/RoleEnum#Qualifier> .

<https://w3id.org/cdisc/cosmos/dss/TU/DRCRLTLC/TUEVALID> a cosmos_sdtm:SDTMVariable ;
    cosmos_sdtm:codelist NCIT:C96777 ;
    cosmos_sdtm:comparator <https://www.cdisc.org/cosmos/sdtm_v1.0/ComparatorEnum#IN> ;
    cosmos_sdtm:dataElementConceptId NCIT:C117043 ;
    cosmos_sdtm:isNonStandard false ;
    cosmos_sdtm:mandatoryValue false ;
    cosmos_sdtm:mandatoryVariable false ;
    cosmos_sdtm:name "TUEVALID" ;
    cosmos_sdtm:originSource NCIT:C68608 ;
    cosmos_sdtm:originType NCIT:C170548 ;
    cosmos_sdtm:relationship <https://w3id.org/cdisc/cosmos/dss/TU/DRCRLTLC/TUEVALID/relationship> ;
    cosmos_sdtm:role <https://www.cdisc.org/cosmos/sdtm_v1.0/RoleEnum#Qualifier> ;
    cosmos_sdtm:valueList "RADIOLOGIST 1",
        "RADIOLOGIST 2",
        "RADIOLOGIST 3" .

<https://w3id.org/cdisc/cosmos/dss/TU/DRCRLTLC/TUORRES> a cosmos_sdtm:SDTMVariable ;
    cosmos_sdtm:codelist NCIT:C66742 ;
    cosmos_sdtm:dataElementConceptId NCIT:C70856 ;
    cosmos_sdtm:dataType <https://www.cdisc.org/cosmos/sdtm_v1.0/SDTMVariableDataTypeEnum#text> ;
    cosmos_sdtm:isNonStandard false ;
    cosmos_sdtm:length 40 ;
    cosmos_sdtm:mandatoryValue false ;
    cosmos_sdtm:mandatoryVariable true ;
    cosmos_sdtm:name "TUORRES" ;
    cosmos_sdtm:originSource NCIT:C25936 ;
    cosmos_sdtm:originType NCIT:C170548 ;
    cosmos_sdtm:relationship <https://w3id.org/cdisc/cosmos/dss/TU/DRCRLTLC/TUORRES/relationship> ;
    cosmos_sdtm:role <https://www.cdisc.org/cosmos/sdtm_v1.0/RoleEnum#Qualifier> ;
    cosmos_sdtm:valueList "N",
        "U",
        "Y" ;
    cosmos_sdtm:vlmTarget true .

<https://w3id.org/cdisc/cosmos/dss/TU/DRCRLTLC/TUSTRESC> a cosmos_sdtm:SDTMVariable ;
    cosmos_sdtm:codelist NCIT:C66742 ;
    cosmos_sdtm:dataElementConceptId NCIT:C70856 ;
    cosmos_sdtm:dataType <https://www.cdisc.org/cosmos/sdtm_v1.0/SDTMVariableDataTypeEnum#text> ;
    cosmos_sdtm:isNonStandard false ;
    cosmos_sdtm:length 40 ;
    cosmos_sdtm:mandatoryValue false ;
    cosmos_sdtm:mandatoryVariable true ;
    cosmos_sdtm:name "TUSTRESC" ;
    cosmos_sdtm:originSource NCIT:C70793 ;
    cosmos_sdtm:originType NCIT:C170549 ;
    cosmos_sdtm:relationship <https://w3id.org/cdisc/cosmos/dss/TU/DRCRLTLC/TUSTRESC/relationship> ;
    cosmos_sdtm:role <https://www.cdisc.org/cosmos/sdtm_v1.0/RoleEnum#Qualifier> ;
    cosmos_sdtm:valueList "N",
        "U",
        "Y" ;
    cosmos_sdtm:vlmTarget true .

<https://w3id.org/cdisc/cosmos/dss/TU/DRCRLTLC/TUTEST> a cosmos_sdtm:SDTMVariable ;
    cosmos_sdtm:assignedTerm <https://w3id.org/cdisc/cosmos/dss/TU/DRCRLTLC/TUTEST/assignedTerm> ;
    cosmos_sdtm:codelist NCIT:C96783 ;
    cosmos_sdtm:isNonStandard false ;
    cosmos_sdtm:mandatoryValue true ;
    cosmos_sdtm:mandatoryVariable true ;
    cosmos_sdtm:name "TUTEST" ;
    cosmos_sdtm:originSource NCIT:C70793 ;
    cosmos_sdtm:originType NCIT:C170547 ;
    cosmos_sdtm:relationship <https://w3id.org/cdisc/cosmos/dss/TU/DRCRLTLC/TUTEST/relationship> ;
    cosmos_sdtm:role <https://www.cdisc.org/cosmos/sdtm_v1.0/RoleEnum#Qualifier> .

<https://w3id.org/cdisc/cosmos/dss/TU/DRCRLTLC/TUTESTCD> a cosmos_sdtm:SDTMVariable ;
    cosmos_sdtm:assignedTerm <https://w3id.org/cdisc/cosmos/dss/TU/DRCRLTLC/TUTESTCD/assignedTerm> ;
    cosmos_sdtm:codelist NCIT:C96784 ;
    cosmos_sdtm:comparator <https://www.cdisc.org/cosmos/sdtm_v1.0/ComparatorEnum#EQ> ;
    cosmos_sdtm:isNonStandard false ;
    cosmos_sdtm:mandatoryValue true ;
    cosmos_sdtm:mandatoryVariable true ;
    cosmos_sdtm:name "TUTESTCD" ;
    cosmos_sdtm:originSource NCIT:C70793 ;
    cosmos_sdtm:originType NCIT:C170547 ;
    cosmos_sdtm:relationship <https://w3id.org/cdisc/cosmos/dss/TU/DRCRLTLC/TUTESTCD/relationship> ;
    cosmos_sdtm:role <https://www.cdisc.org/cosmos/sdtm_v1.0/RoleEnum#Topic> .

<https://w3id.org/cdisc/cosmos/dss/TU/NTIND/TUDTC> a cosmos_sdtm:SDTMVariable ;
    cosmos_sdtm:dataElementConceptId NCIT:C82515 ;
    cosmos_sdtm:isNonStandard false ;
    cosmos_sdtm:mandatoryValue false ;
    cosmos_sdtm:mandatoryVariable true ;
    cosmos_sdtm:name "TUDTC" ;
    cosmos_sdtm:originSource NCIT:C70793 ;
    cosmos_sdtm:originType NCIT:C170548 ;
    cosmos_sdtm:relationship <https://w3id.org/cdisc/cosmos/dss/TU/NTIND/TUDTC/relationship> ;
    cosmos_sdtm:role <https://www.cdisc.org/cosmos/sdtm_v1.0/RoleEnum#Timing> .

<https://w3id.org/cdisc/cosmos/dss/TU/NTIND/TUEVAL> a cosmos_sdtm:SDTMVariable ;
    cosmos_sdtm:assignedTerm <https://w3id.org/cdisc/cosmos/dss/TU/NTIND/TUEVAL/assignedTerm> ;
    cosmos_sdtm:codelist NCIT:C78735 ;
    cosmos_sdtm:comparator <https://www.cdisc.org/cosmos/sdtm_v1.0/ComparatorEnum#EQ> ;
    cosmos_sdtm:dataElementConceptId NCIT:C51824 ;
    cosmos_sdtm:isNonStandard false ;
    cosmos_sdtm:mandatoryValue false ;
    cosmos_sdtm:mandatoryVariable false ;
    cosmos_sdtm:name "TUEVAL" ;
    cosmos_sdtm:originSource NCIT:C70793 ;
    cosmos_sdtm:originType NCIT:C170547 ;
    cosmos_sdtm:relationship <https://w3id.org/cdisc/cosmos/dss/TU/NTIND/TUEVAL/relationship> ;
    cosmos_sdtm:role <https://www.cdisc.org/cosmos/sdtm_v1.0/RoleEnum#Qualifier> .

<https://w3id.org/cdisc/cosmos/dss/TU/NTIND/TUEVALID> a cosmos_sdtm:SDTMVariable ;
    cosmos_sdtm:codelist NCIT:C96777 ;
    cosmos_sdtm:comparator <https://www.cdisc.org/cosmos/sdtm_v1.0/ComparatorEnum#IN> ;
    cosmos_sdtm:dataElementConceptId NCIT:C117043 ;
    cosmos_sdtm:isNonStandard false ;
    cosmos_sdtm:mandatoryValue false ;
    cosmos_sdtm:mandatoryVariable false ;
    cosmos_sdtm:name "TUEVALID" ;
    cosmos_sdtm:originSource NCIT:C68608 ;
    cosmos_sdtm:originType NCIT:C170548 ;
    cosmos_sdtm:relationship <https://w3id.org/cdisc/cosmos/dss/TU/NTIND/TUEVALID/relationship> ;
    cosmos_sdtm:role <https://www.cdisc.org/cosmos/sdtm_v1.0/RoleEnum#Qualifier> ;
    cosmos_sdtm:valueList "RADIOLOGIST 1",
        "RADIOLOGIST 2",
        "RADIOLOGIST 3" .

<https://w3id.org/cdisc/cosmos/dss/TU/NTIND/TUORRES> a cosmos_sdtm:SDTMVariable ;
    cosmos_sdtm:codelist NCIT:C66742 ;
    cosmos_sdtm:dataElementConceptId NCIT:C70856 ;
    cosmos_sdtm:dataType <https://www.cdisc.org/cosmos/sdtm_v1.0/SDTMVariableDataTypeEnum#text> ;
    cosmos_sdtm:isNonStandard false ;
    cosmos_sdtm:length 24 ;
    cosmos_sdtm:mandatoryValue false ;
    cosmos_sdtm:mandatoryVariable true ;
    cosmos_sdtm:name "TUORRES" ;
    cosmos_sdtm:originSource NCIT:C25936 ;
    cosmos_sdtm:originType NCIT:C170548 ;
    cosmos_sdtm:relationship <https://w3id.org/cdisc/cosmos/dss/TU/NTIND/TUORRES/relationship> ;
    cosmos_sdtm:role <https://www.cdisc.org/cosmos/sdtm_v1.0/RoleEnum#Qualifier> ;
    cosmos_sdtm:valueList "N",
        "U",
        "Y" ;
    cosmos_sdtm:vlmTarget true .

<https://w3id.org/cdisc/cosmos/dss/TU/NTIND/TUSTRESC> a cosmos_sdtm:SDTMVariable ;
    cosmos_sdtm:codelist NCIT:C66742 ;
    cosmos_sdtm:dataElementConceptId NCIT:C70856 ;
    cosmos_sdtm:dataType <https://www.cdisc.org/cosmos/sdtm_v1.0/SDTMVariableDataTypeEnum#text> ;
    cosmos_sdtm:isNonStandard false ;
    cosmos_sdtm:length 24 ;
    cosmos_sdtm:mandatoryValue false ;
    cosmos_sdtm:mandatoryVariable true ;
    cosmos_sdtm:name "TUSTRESC" ;
    cosmos_sdtm:originSource NCIT:C70793 ;
    cosmos_sdtm:originType NCIT:C170549 ;
    cosmos_sdtm:relationship <https://w3id.org/cdisc/cosmos/dss/TU/NTIND/TUSTRESC/relationship> ;
    cosmos_sdtm:role <https://www.cdisc.org/cosmos/sdtm_v1.0/RoleEnum#Qualifier> ;
    cosmos_sdtm:valueList "N",
        "U",
        "Y" ;
    cosmos_sdtm:vlmTarget true .

<https://w3id.org/cdisc/cosmos/dss/TU/NTIND/TUTEST> a cosmos_sdtm:SDTMVariable ;
    cosmos_sdtm:assignedTerm <https://w3id.org/cdisc/cosmos/dss/TU/NTIND/TUTEST/assignedTerm> ;
    cosmos_sdtm:codelist NCIT:C96783 ;
    cosmos_sdtm:isNonStandard false ;
    cosmos_sdtm:mandatoryValue true ;
    cosmos_sdtm:mandatoryVariable true ;
    cosmos_sdtm:name "TUTEST" ;
    cosmos_sdtm:originSource NCIT:C70793 ;
    cosmos_sdtm:originType NCIT:C170547 ;
    cosmos_sdtm:relationship <https://w3id.org/cdisc/cosmos/dss/TU/NTIND/TUTEST/relationship> ;
    cosmos_sdtm:role <https://www.cdisc.org/cosmos/sdtm_v1.0/RoleEnum#Qualifier> .

<https://w3id.org/cdisc/cosmos/dss/TU/NTIND/TUTESTCD> a cosmos_sdtm:SDTMVariable ;
    cosmos_sdtm:assignedTerm <https://w3id.org/cdisc/cosmos/dss/TU/NTIND/TUTESTCD/assignedTerm> ;
    cosmos_sdtm:codelist NCIT:C96784 ;
    cosmos_sdtm:comparator <https://www.cdisc.org/cosmos/sdtm_v1.0/ComparatorEnum#EQ> ;
    cosmos_sdtm:isNonStandard false ;
    cosmos_sdtm:mandatoryValue true ;
    cosmos_sdtm:mandatoryVariable true ;
    cosmos_sdtm:name "TUTESTCD" ;
    cosmos_sdtm:originSource NCIT:C70793 ;
    cosmos_sdtm:originType NCIT:C170547 ;
    cosmos_sdtm:relationship <https://w3id.org/cdisc/cosmos/dss/TU/NTIND/TUTESTCD/relationship> ;
    cosmos_sdtm:role <https://www.cdisc.org/cosmos/sdtm_v1.0/RoleEnum#Topic> .

<https://w3id.org/cdisc/cosmos/dss/TU/NTIND_RECIST1_1/TUDTC> a cosmos_sdtm:SDTMVariable ;
    cosmos_sdtm:dataElementConceptId NCIT:C82515 ;
    cosmos_sdtm:isNonStandard false ;
    cosmos_sdtm:mandatoryValue false ;
    cosmos_sdtm:mandatoryVariable true ;
    cosmos_sdtm:name "TUDTC" ;
    cosmos_sdtm:originSource NCIT:C25936 ;
    cosmos_sdtm:originType NCIT:C170548 ;
    cosmos_sdtm:relationship <https://w3id.org/cdisc/cosmos/dss/TU/NTIND_RECIST1_1/TUDTC/relationship> ;
    cosmos_sdtm:role <https://www.cdisc.org/cosmos/sdtm_v1.0/RoleEnum#Timing> .

<https://w3id.org/cdisc/cosmos/dss/TU/NTIND_RECIST1_1/TUEVAL> a cosmos_sdtm:SDTMVariable ;
    cosmos_sdtm:assignedTerm <https://w3id.org/cdisc/cosmos/dss/TU/NTIND_RECIST1_1/TUEVAL/assignedTerm> ;
    cosmos_sdtm:codelist NCIT:C78735 ;
    cosmos_sdtm:comparator <https://www.cdisc.org/cosmos/sdtm_v1.0/ComparatorEnum#EQ> ;
    cosmos_sdtm:dataElementConceptId NCIT:C51824 ;
    cosmos_sdtm:isNonStandard false ;
    cosmos_sdtm:mandatoryValue false ;
    cosmos_sdtm:mandatoryVariable false ;
    cosmos_sdtm:name "TUEVAL" ;
    cosmos_sdtm:originSource NCIT:C70793 ;
    cosmos_sdtm:originType NCIT:C170547 ;
    cosmos_sdtm:relationship <https://w3id.org/cdisc/cosmos/dss/TU/NTIND_RECIST1_1/TUEVAL/relationship> ;
    cosmos_sdtm:role <https://www.cdisc.org/cosmos/sdtm_v1.0/RoleEnum#Qualifier> .

<https://w3id.org/cdisc/cosmos/dss/TU/NTIND_RECIST1_1/TUORRES> a cosmos_sdtm:SDTMVariable ;
    cosmos_sdtm:codelist NCIT:C66742 ;
    cosmos_sdtm:dataElementConceptId NCIT:C70856 ;
    cosmos_sdtm:dataType <https://www.cdisc.org/cosmos/sdtm_v1.0/SDTMVariableDataTypeEnum#text> ;
    cosmos_sdtm:isNonStandard false ;
    cosmos_sdtm:length 1 ;
    cosmos_sdtm:mandatoryValue false ;
    cosmos_sdtm:mandatoryVariable true ;
    cosmos_sdtm:name "TUORRES" ;
    cosmos_sdtm:originSource NCIT:C25936 ;
    cosmos_sdtm:originType NCIT:C170548 ;
    cosmos_sdtm:relationship <https://w3id.org/cdisc/cosmos/dss/TU/NTIND_RECIST1_1/TUORRES/relationship> ;
    cosmos_sdtm:role <https://www.cdisc.org/cosmos/sdtm_v1.0/RoleEnum#Qualifier> ;
    cosmos_sdtm:valueList "N",
        "Y" ;
    cosmos_sdtm:vlmTarget true .

<https://w3id.org/cdisc/cosmos/dss/TU/NTIND_RECIST1_1/TUSTRESC> a cosmos_sdtm:SDTMVariable ;
    cosmos_sdtm:codelist NCIT:C66742 ;
    cosmos_sdtm:dataElementConceptId NCIT:C70856 ;
    cosmos_sdtm:dataType <https://www.cdisc.org/cosmos/sdtm_v1.0/SDTMVariableDataTypeEnum#text> ;
    cosmos_sdtm:isNonStandard false ;
    cosmos_sdtm:length 1 ;
    cosmos_sdtm:mandatoryValue false ;
    cosmos_sdtm:mandatoryVariable true ;
    cosmos_sdtm:name "TUSTRESC" ;
    cosmos_sdtm:originSource NCIT:C70793 ;
    cosmos_sdtm:originType NCIT:C170549 ;
    cosmos_sdtm:relationship <https://w3id.org/cdisc/cosmos/dss/TU/NTIND_RECIST1_1/TUSTRESC/relationship> ;
    cosmos_sdtm:role <https://www.cdisc.org/cosmos/sdtm_v1.0/RoleEnum#Qualifier> ;
    cosmos_sdtm:valueList "N",
        "Y" ;
    cosmos_sdtm:vlmTarget true .

<https://w3id.org/cdisc/cosmos/dss/TU/NTIND_RECIST1_1/TUTEST> a cosmos_sdtm:SDTMVariable ;
    cosmos_sdtm:assignedTerm <https://w3id.org/cdisc/cosmos/dss/TU/NTIND_RECIST1_1/TUTEST/assignedTerm> ;
    cosmos_sdtm:codelist NCIT:C96783 ;
    cosmos_sdtm:isNonStandard false ;
    cosmos_sdtm:mandatoryValue true ;
    cosmos_sdtm:mandatoryVariable true ;
    cosmos_sdtm:name "TUTEST" ;
    cosmos_sdtm:originSource NCIT:C70793 ;
    cosmos_sdtm:originType NCIT:C170547 ;
    cosmos_sdtm:relationship <https://w3id.org/cdisc/cosmos/dss/TU/NTIND_RECIST1_1/TUTEST/relationship> ;
    cosmos_sdtm:role <https://www.cdisc.org/cosmos/sdtm_v1.0/RoleEnum#Qualifier> .

<https://w3id.org/cdisc/cosmos/dss/TU/NTIND_RECIST1_1/TUTESTCD> a cosmos_sdtm:SDTMVariable ;
    cosmos_sdtm:assignedTerm <https://w3id.org/cdisc/cosmos/dss/TU/NTIND_RECIST1_1/TUTESTCD/assignedTerm> ;
    cosmos_sdtm:codelist NCIT:C96784 ;
    cosmos_sdtm:comparator <https://www.cdisc.org/cosmos/sdtm_v1.0/ComparatorEnum#EQ> ;
    cosmos_sdtm:isNonStandard false ;
    cosmos_sdtm:mandatoryValue true ;
    cosmos_sdtm:mandatoryVariable true ;
    cosmos_sdtm:name "TUTESTCD" ;
    cosmos_sdtm:originSource NCIT:C70793 ;
    cosmos_sdtm:originType NCIT:C170547 ;
    cosmos_sdtm:relationship <https://w3id.org/cdisc/cosmos/dss/TU/NTIND_RECIST1_1/TUTESTCD/relationship> ;
    cosmos_sdtm:role <https://www.cdisc.org/cosmos/sdtm_v1.0/RoleEnum#Topic> .

<https://w3id.org/cdisc/cosmos/dss/TU/TIND/TUDTC> a cosmos_sdtm:SDTMVariable ;
    cosmos_sdtm:dataElementConceptId NCIT:C82515 ;
    cosmos_sdtm:isNonStandard false ;
    cosmos_sdtm:mandatoryValue false ;
    cosmos_sdtm:mandatoryVariable true ;
    cosmos_sdtm:name "TUDTC" ;
    cosmos_sdtm:originSource NCIT:C70793 ;
    cosmos_sdtm:originType NCIT:C170548 ;
    cosmos_sdtm:relationship <https://w3id.org/cdisc/cosmos/dss/TU/TIND/TUDTC/relationship> ;
    cosmos_sdtm:role <https://www.cdisc.org/cosmos/sdtm_v1.0/RoleEnum#Timing> .

<https://w3id.org/cdisc/cosmos/dss/TU/TIND/TUEVAL> a cosmos_sdtm:SDTMVariable ;
    cosmos_sdtm:assignedTerm <https://w3id.org/cdisc/cosmos/dss/TU/TIND/TUEVAL/assignedTerm> ;
    cosmos_sdtm:codelist NCIT:C78735 ;
    cosmos_sdtm:comparator <https://www.cdisc.org/cosmos/sdtm_v1.0/ComparatorEnum#EQ> ;
    cosmos_sdtm:dataElementConceptId NCIT:C51824 ;
    cosmos_sdtm:isNonStandard false ;
    cosmos_sdtm:mandatoryValue false ;
    cosmos_sdtm:mandatoryVariable false ;
    cosmos_sdtm:name "TUEVAL" ;
    cosmos_sdtm:originSource NCIT:C70793 ;
    cosmos_sdtm:originType NCIT:C170547 ;
    cosmos_sdtm:relationship <https://w3id.org/cdisc/cosmos/dss/TU/TIND/TUEVAL/relationship> ;
    cosmos_sdtm:role <https://www.cdisc.org/cosmos/sdtm_v1.0/RoleEnum#Qualifier> .

<https://w3id.org/cdisc/cosmos/dss/TU/TIND/TUEVALID> a cosmos_sdtm:SDTMVariable ;
    cosmos_sdtm:codelist NCIT:C96777 ;
    cosmos_sdtm:comparator <https://www.cdisc.org/cosmos/sdtm_v1.0/ComparatorEnum#IN> ;
    cosmos_sdtm:dataElementConceptId NCIT:C117043 ;
    cosmos_sdtm:isNonStandard false ;
    cosmos_sdtm:mandatoryValue false ;
    cosmos_sdtm:mandatoryVariable false ;
    cosmos_sdtm:name "TUEVALID" ;
    cosmos_sdtm:originSource NCIT:C68608 ;
    cosmos_sdtm:originType NCIT:C170548 ;
    cosmos_sdtm:relationship <https://w3id.org/cdisc/cosmos/dss/TU/TIND/TUEVALID/relationship> ;
    cosmos_sdtm:role <https://www.cdisc.org/cosmos/sdtm_v1.0/RoleEnum#Qualifier> ;
    cosmos_sdtm:valueList "RADIOLOGIST 1",
        "RADIOLOGIST 2",
        "RADIOLOGIST 3" .

<https://w3id.org/cdisc/cosmos/dss/TU/TIND/TUORRES> a cosmos_sdtm:SDTMVariable ;
    cosmos_sdtm:codelist NCIT:C66742 ;
    cosmos_sdtm:dataElementConceptId NCIT:C70856 ;
    cosmos_sdtm:dataType <https://www.cdisc.org/cosmos/sdtm_v1.0/SDTMVariableDataTypeEnum#text> ;
    cosmos_sdtm:isNonStandard false ;
    cosmos_sdtm:length 24 ;
    cosmos_sdtm:mandatoryValue false ;
    cosmos_sdtm:mandatoryVariable true ;
    cosmos_sdtm:name "TUORRES" ;
    cosmos_sdtm:originSource NCIT:C25936 ;
    cosmos_sdtm:originType NCIT:C170548 ;
    cosmos_sdtm:relationship <https://w3id.org/cdisc/cosmos/dss/TU/TIND/TUORRES/relationship> ;
    cosmos_sdtm:role <https://www.cdisc.org/cosmos/sdtm_v1.0/RoleEnum#Qualifier> ;
    cosmos_sdtm:valueList "N",
        "U",
        "Y" ;
    cosmos_sdtm:vlmTarget true .

<https://w3id.org/cdisc/cosmos/dss/TU/TIND/TUSTRESC> a cosmos_sdtm:SDTMVariable ;
    cosmos_sdtm:codelist NCIT:C66742 ;
    cosmos_sdtm:dataElementConceptId NCIT:C70856 ;
    cosmos_sdtm:dataType <https://www.cdisc.org/cosmos/sdtm_v1.0/SDTMVariableDataTypeEnum#text> ;
    cosmos_sdtm:isNonStandard false ;
    cosmos_sdtm:length 24 ;
    cosmos_sdtm:mandatoryValue false ;
    cosmos_sdtm:mandatoryVariable true ;
    cosmos_sdtm:name "TUSTRESC" ;
    cosmos_sdtm:originSource NCIT:C70793 ;
    cosmos_sdtm:originType NCIT:C170549 ;
    cosmos_sdtm:relationship <https://w3id.org/cdisc/cosmos/dss/TU/TIND/TUSTRESC/relationship> ;
    cosmos_sdtm:role <https://www.cdisc.org/cosmos/sdtm_v1.0/RoleEnum#Qualifier> ;
    cosmos_sdtm:valueList "N",
        "U",
        "Y" ;
    cosmos_sdtm:vlmTarget true .

<https://w3id.org/cdisc/cosmos/dss/TU/TIND/TUTEST> a cosmos_sdtm:SDTMVariable ;
    cosmos_sdtm:assignedTerm <https://w3id.org/cdisc/cosmos/dss/TU/TIND/TUTEST/assignedTerm> ;
    cosmos_sdtm:codelist NCIT:C96783 ;
    cosmos_sdtm:isNonStandard false ;
    cosmos_sdtm:mandatoryValue true ;
    cosmos_sdtm:mandatoryVariable true ;
    cosmos_sdtm:name "TUTEST" ;
    cosmos_sdtm:originSource NCIT:C70793 ;
    cosmos_sdtm:originType NCIT:C170547 ;
    cosmos_sdtm:relationship <https://w3id.org/cdisc/cosmos/dss/TU/TIND/TUTEST/relationship> ;
    cosmos_sdtm:role <https://www.cdisc.org/cosmos/sdtm_v1.0/RoleEnum#Qualifier> .

<https://w3id.org/cdisc/cosmos/dss/TU/TIND/TUTESTCD> a cosmos_sdtm:SDTMVariable ;
    cosmos_sdtm:assignedTerm <https://w3id.org/cdisc/cosmos/dss/TU/TIND/TUTESTCD/assignedTerm> ;
    cosmos_sdtm:codelist NCIT:C96784 ;
    cosmos_sdtm:comparator <https://www.cdisc.org/cosmos/sdtm_v1.0/ComparatorEnum#EQ> ;
    cosmos_sdtm:isNonStandard false ;
    cosmos_sdtm:mandatoryValue true ;
    cosmos_sdtm:mandatoryVariable true ;
    cosmos_sdtm:name "TUTESTCD" ;
    cosmos_sdtm:originSource NCIT:C70793 ;
    cosmos_sdtm:originType NCIT:C170547 ;
    cosmos_sdtm:relationship <https://w3id.org/cdisc/cosmos/dss/TU/TIND/TUTESTCD/relationship> ;
    cosmos_sdtm:role <https://www.cdisc.org/cosmos/sdtm_v1.0/RoleEnum#Topic> .

<https://w3id.org/cdisc/cosmos/dss/TU/TIND_RECIST1_1/TUDTC> a cosmos_sdtm:SDTMVariable ;
    cosmos_sdtm:dataElementConceptId NCIT:C82515 ;
    cosmos_sdtm:isNonStandard false ;
    cosmos_sdtm:mandatoryValue false ;
    cosmos_sdtm:mandatoryVariable true ;
    cosmos_sdtm:name "TUDTC" ;
    cosmos_sdtm:originSource NCIT:C25936 ;
    cosmos_sdtm:originType NCIT:C170548 ;
    cosmos_sdtm:relationship <https://w3id.org/cdisc/cosmos/dss/TU/TIND_RECIST1_1/TUDTC/relationship> ;
    cosmos_sdtm:role <https://www.cdisc.org/cosmos/sdtm_v1.0/RoleEnum#Timing> .

<https://w3id.org/cdisc/cosmos/dss/TU/TIND_RECIST1_1/TUEVAL> a cosmos_sdtm:SDTMVariable ;
    cosmos_sdtm:assignedTerm <https://w3id.org/cdisc/cosmos/dss/TU/TIND_RECIST1_1/TUEVAL/assignedTerm> ;
    cosmos_sdtm:codelist NCIT:C78735 ;
    cosmos_sdtm:comparator <https://www.cdisc.org/cosmos/sdtm_v1.0/ComparatorEnum#EQ> ;
    cosmos_sdtm:dataElementConceptId NCIT:C51824 ;
    cosmos_sdtm:isNonStandard false ;
    cosmos_sdtm:mandatoryValue false ;
    cosmos_sdtm:mandatoryVariable false ;
    cosmos_sdtm:name "TUEVAL" ;
    cosmos_sdtm:originSource NCIT:C70793 ;
    cosmos_sdtm:originType NCIT:C170547 ;
    cosmos_sdtm:relationship <https://w3id.org/cdisc/cosmos/dss/TU/TIND_RECIST1_1/TUEVAL/relationship> ;
    cosmos_sdtm:role <https://www.cdisc.org/cosmos/sdtm_v1.0/RoleEnum#Qualifier> .

<https://w3id.org/cdisc/cosmos/dss/TU/TIND_RECIST1_1/TUORRES> a cosmos_sdtm:SDTMVariable ;
    cosmos_sdtm:codelist NCIT:C66742 ;
    cosmos_sdtm:dataElementConceptId NCIT:C70856 ;
    cosmos_sdtm:dataType <https://www.cdisc.org/cosmos/sdtm_v1.0/SDTMVariableDataTypeEnum#text> ;
    cosmos_sdtm:isNonStandard false ;
    cosmos_sdtm:length 1 ;
    cosmos_sdtm:mandatoryValue false ;
    cosmos_sdtm:mandatoryVariable true ;
    cosmos_sdtm:name "TUORRES" ;
    cosmos_sdtm:originSource NCIT:C25936 ;
    cosmos_sdtm:originType NCIT:C170548 ;
    cosmos_sdtm:relationship <https://w3id.org/cdisc/cosmos/dss/TU/TIND_RECIST1_1/TUORRES/relationship> ;
    cosmos_sdtm:role <https://www.cdisc.org/cosmos/sdtm_v1.0/RoleEnum#Qualifier> ;
    cosmos_sdtm:valueList "N",
        "Y" ;
    cosmos_sdtm:vlmTarget true .

<https://w3id.org/cdisc/cosmos/dss/TU/TIND_RECIST1_1/TUSTRESC> a cosmos_sdtm:SDTMVariable ;
    cosmos_sdtm:codelist NCIT:C66742 ;
    cosmos_sdtm:dataElementConceptId NCIT:C70856 ;
    cosmos_sdtm:dataType <https://www.cdisc.org/cosmos/sdtm_v1.0/SDTMVariableDataTypeEnum#text> ;
    cosmos_sdtm:isNonStandard false ;
    cosmos_sdtm:length 1 ;
    cosmos_sdtm:mandatoryValue false ;
    cosmos_sdtm:mandatoryVariable true ;
    cosmos_sdtm:name "TUSTRESC" ;
    cosmos_sdtm:originSource NCIT:C70793 ;
    cosmos_sdtm:originType NCIT:C170549 ;
    cosmos_sdtm:relationship <https://w3id.org/cdisc/cosmos/dss/TU/TIND_RECIST1_1/TUSTRESC/relationship> ;
    cosmos_sdtm:role <https://www.cdisc.org/cosmos/sdtm_v1.0/RoleEnum#Qualifier> ;
    cosmos_sdtm:valueList "N",
        "Y" ;
    cosmos_sdtm:vlmTarget true .

<https://w3id.org/cdisc/cosmos/dss/TU/TIND_RECIST1_1/TUTEST> a cosmos_sdtm:SDTMVariable ;
    cosmos_sdtm:assignedTerm <https://w3id.org/cdisc/cosmos/dss/TU/TIND_RECIST1_1/TUTEST/assignedTerm> ;
    cosmos_sdtm:codelist NCIT:C96783 ;
    cosmos_sdtm:isNonStandard false ;
    cosmos_sdtm:mandatoryValue true ;
    cosmos_sdtm:mandatoryVariable true ;
    cosmos_sdtm:name "TUTEST" ;
    cosmos_sdtm:originSource NCIT:C70793 ;
    cosmos_sdtm:originType NCIT:C170547 ;
    cosmos_sdtm:relationship <https://w3id.org/cdisc/cosmos/dss/TU/TIND_RECIST1_1/TUTEST/relationship> ;
    cosmos_sdtm:role <https://www.cdisc.org/cosmos/sdtm_v1.0/RoleEnum#Qualifier> .

<https://w3id.org/cdisc/cosmos/dss/TU/TIND_RECIST1_1/TUTESTCD> a cosmos_sdtm:SDTMVariable ;
    cosmos_sdtm:assignedTerm <https://w3id.org/cdisc/cosmos/dss/TU/TIND_RECIST1_1/TUTESTCD/assignedTerm> ;
    cosmos_sdtm:codelist NCIT:C96784 ;
    cosmos_sdtm:comparator <https://www.cdisc.org/cosmos/sdtm_v1.0/ComparatorEnum#EQ> ;
    cosmos_sdtm:isNonStandard false ;
    cosmos_sdtm:mandatoryValue true ;
    cosmos_sdtm:mandatoryVariable true ;
    cosmos_sdtm:name "TUTESTCD" ;
    cosmos_sdtm:originSource NCIT:C70793 ;
    cosmos_sdtm:originType NCIT:C170547 ;
    cosmos_sdtm:relationship <https://w3id.org/cdisc/cosmos/dss/TU/TIND_RECIST1_1/TUTESTCD/relationship> ;
    cosmos_sdtm:role <https://www.cdisc.org/cosmos/sdtm_v1.0/RoleEnum#Topic> .

<https://w3id.org/cdisc/cosmos/dss/TU/TUMERGE/TUDIR> a cosmos_sdtm:SDTMVariable ;
    cosmos_sdtm:codelist NCIT:C99074 ;
    cosmos_sdtm:dataElementConceptId NCIT:C54215 ;
    cosmos_sdtm:isNonStandard false ;
    cosmos_sdtm:mandatoryValue false ;
    cosmos_sdtm:mandatoryVariable false ;
    cosmos_sdtm:name "TUDIR" ;
    cosmos_sdtm:originSource NCIT:C25936 ;
    cosmos_sdtm:originType NCIT:C170548 ;
    cosmos_sdtm:relationship <https://w3id.org/cdisc/cosmos/dss/TU/TUMERGE/TUDIR/relationship> ;
    cosmos_sdtm:role <https://www.cdisc.org/cosmos/sdtm_v1.0/RoleEnum#Qualifier> .

<https://w3id.org/cdisc/cosmos/dss/TU/TUMERGE/TUDTC> a cosmos_sdtm:SDTMVariable ;
    cosmos_sdtm:dataElementConceptId NCIT:C82515 ;
    cosmos_sdtm:isNonStandard false ;
    cosmos_sdtm:mandatoryValue false ;
    cosmos_sdtm:mandatoryVariable true ;
    cosmos_sdtm:name "TUDTC" ;
    cosmos_sdtm:originSource NCIT:C70793 ;
    cosmos_sdtm:originType NCIT:C170548 ;
    cosmos_sdtm:relationship <https://w3id.org/cdisc/cosmos/dss/TU/TUMERGE/TUDTC/relationship> ;
    cosmos_sdtm:role <https://www.cdisc.org/cosmos/sdtm_v1.0/RoleEnum#Timing> .

<https://w3id.org/cdisc/cosmos/dss/TU/TUMERGE/TUEVAL> a cosmos_sdtm:SDTMVariable ;
    cosmos_sdtm:codelist NCIT:C78735 ;
    cosmos_sdtm:comparator <https://www.cdisc.org/cosmos/sdtm_v1.0/ComparatorEnum#IN> ;
    cosmos_sdtm:dataElementConceptId NCIT:C51824 ;
    cosmos_sdtm:isNonStandard false ;
    cosmos_sdtm:mandatoryValue false ;
    cosmos_sdtm:mandatoryVariable false ;
    cosmos_sdtm:name "TUEVAL" ;
    cosmos_sdtm:originSource NCIT:C70793 ;
    cosmos_sdtm:originType NCIT:C170547 ;
    cosmos_sdtm:relationship <https://w3id.org/cdisc/cosmos/dss/TU/TUMERGE/TUEVAL/relationship> ;
    cosmos_sdtm:role <https://www.cdisc.org/cosmos/sdtm_v1.0/RoleEnum#Qualifier> ;
    cosmos_sdtm:valueList "INDEPENDENT ASSESSOR",
        "INVESTIGATOR",
        "RADIOLOGIST" .

<https://w3id.org/cdisc/cosmos/dss/TU/TUMERGE/TUEVALID> a cosmos_sdtm:SDTMVariable ;
    cosmos_sdtm:codelist NCIT:C96777 ;
    cosmos_sdtm:comparator <https://www.cdisc.org/cosmos/sdtm_v1.0/ComparatorEnum#IN> ;
    cosmos_sdtm:dataElementConceptId NCIT:C117043 ;
    cosmos_sdtm:isNonStandard false ;
    cosmos_sdtm:mandatoryValue false ;
    cosmos_sdtm:mandatoryVariable false ;
    cosmos_sdtm:name "TUEVALID" ;
    cosmos_sdtm:originSource NCIT:C68608 ;
    cosmos_sdtm:originType NCIT:C170548 ;
    cosmos_sdtm:relationship <https://w3id.org/cdisc/cosmos/dss/TU/TUMERGE/TUEVALID/relationship> ;
    cosmos_sdtm:role <https://www.cdisc.org/cosmos/sdtm_v1.0/RoleEnum#Qualifier> ;
    cosmos_sdtm:valueList "RADIOLOGIST 1",
        "RADIOLOGIST 2",
        "RADIOLOGIST 3" .

<https://w3id.org/cdisc/cosmos/dss/TU/TUMERGE/TULAT> a cosmos_sdtm:SDTMVariable ;
    cosmos_sdtm:codelist NCIT:C99073 ;
    cosmos_sdtm:dataElementConceptId NCIT:C25185 ;
    cosmos_sdtm:isNonStandard false ;
    cosmos_sdtm:mandatoryValue false ;
    cosmos_sdtm:mandatoryVariable false ;
    cosmos_sdtm:name "TULAT" ;
    cosmos_sdtm:originSource NCIT:C25936 ;
    cosmos_sdtm:originType NCIT:C170548 ;
    cosmos_sdtm:relationship <https://w3id.org/cdisc/cosmos/dss/TU/TUMERGE/TULAT/relationship> ;
    cosmos_sdtm:role <https://www.cdisc.org/cosmos/sdtm_v1.0/RoleEnum#Qualifier> .

<https://w3id.org/cdisc/cosmos/dss/TU/TUMERGE/TULNKID> a cosmos_sdtm:SDTMVariable ;
    cosmos_sdtm:dataElementConceptId NCIT:C117436 ;
    cosmos_sdtm:isNonStandard false ;
    cosmos_sdtm:mandatoryValue false ;
    cosmos_sdtm:mandatoryVariable true ;
    cosmos_sdtm:name "TULNKID" ;
    cosmos_sdtm:originSource NCIT:C70793 ;
    cosmos_sdtm:originType NCIT:C170547 ;
    cosmos_sdtm:relationship <https://w3id.org/cdisc/cosmos/dss/TU/TUMERGE/TULNKID/relationship> ;
    cosmos_sdtm:role <https://www.cdisc.org/cosmos/sdtm_v1.0/RoleEnum#Identifier> .

<https://w3id.org/cdisc/cosmos/dss/TU/TUMERGE/TULOC> a cosmos_sdtm:SDTMVariable ;
    cosmos_sdtm:codelist NCIT:C74456 ;
    cosmos_sdtm:dataElementConceptId NCIT:C170500 ;
    cosmos_sdtm:isNonStandard false ;
    cosmos_sdtm:mandatoryValue false ;
    cosmos_sdtm:mandatoryVariable true ;
    cosmos_sdtm:name "TULOC" ;
    cosmos_sdtm:originSource NCIT:C25936 ;
    cosmos_sdtm:originType NCIT:C170548 ;
    cosmos_sdtm:relationship <https://w3id.org/cdisc/cosmos/dss/TU/TUMERGE/TULOC/relationship> ;
    cosmos_sdtm:role <https://www.cdisc.org/cosmos/sdtm_v1.0/RoleEnum#Qualifier> .

<https://w3id.org/cdisc/cosmos/dss/TU/TUMERGE/TUMETHOD> a cosmos_sdtm:SDTMVariable ;
    cosmos_sdtm:codelist NCIT:C85492 ;
    cosmos_sdtm:comparator <https://www.cdisc.org/cosmos/sdtm_v1.0/ComparatorEnum#IN> ;
    cosmos_sdtm:dataElementConceptId NCIT:C82535 ;
    cosmos_sdtm:isNonStandard false ;
    cosmos_sdtm:mandatoryValue false ;
    cosmos_sdtm:mandatoryVariable true ;
    cosmos_sdtm:name "TUMETHOD" ;
    cosmos_sdtm:originSource NCIT:C25936 ;
    cosmos_sdtm:originType NCIT:C170548 ;
    cosmos_sdtm:relationship <https://w3id.org/cdisc/cosmos/dss/TU/TUMERGE/TUMETHOD/relationship> ;
    cosmos_sdtm:role <https://www.cdisc.org/cosmos/sdtm_v1.0/RoleEnum#Qualifier> ;
    cosmos_sdtm:valueList "CALIPER MEASUREMENT METHOD",
        "CT SCAN",
        "ENDOSCOPY",
        "LYMPHANGIOGRAPHY",
        "MAMMOGRAPHY",
        "MRI",
        "NUCLEAR RADIOLOGY",
        "PET SCAN",
        "PET/CT SCAN",
        "PET/MRI SCAN",
        "PHOTOGRAPHY",
        "SCINTIGRAPHY",
        "TOTAL BODY RADIOGRAPHY",
        "ULTRASOUND",
        "X-RAY" .

<https://w3id.org/cdisc/cosmos/dss/TU/TUMERGE/TUORRES> a cosmos_sdtm:SDTMVariable ;
    cosmos_sdtm:assignedTerm <https://w3id.org/cdisc/cosmos/dss/TU/TUMERGE/TUORRES/assignedTerm> ;
    cosmos_sdtm:codelist NCIT:C123650 ;
    cosmos_sdtm:dataElementConceptId NCIT:C70856 ;
    cosmos_sdtm:dataType <https://www.cdisc.org/cosmos/sdtm_v1.0/SDTMVariableDataTypeEnum#text> ;
    cosmos_sdtm:isNonStandard false ;
    cosmos_sdtm:length 24 ;
    cosmos_sdtm:mandatoryValue false ;
    cosmos_sdtm:mandatoryVariable true ;
    cosmos_sdtm:name "TUORRES" ;
    cosmos_sdtm:originSource NCIT:C25936 ;
    cosmos_sdtm:originType NCIT:C170548 ;
    cosmos_sdtm:relationship <https://w3id.org/cdisc/cosmos/dss/TU/TUMERGE/TUORRES/relationship> ;
    cosmos_sdtm:role <https://www.cdisc.org/cosmos/sdtm_v1.0/RoleEnum#Qualifier> ;
    cosmos_sdtm:vlmTarget true .

<https://w3id.org/cdisc/cosmos/dss/TU/TUMERGE/TUREFID> a cosmos_sdtm:SDTMVariable ;
    cosmos_sdtm:dataElementConceptId NCIT:C117442 ;
    cosmos_sdtm:isNonStandard false ;
    cosmos_sdtm:mandatoryValue false ;
    cosmos_sdtm:mandatoryVariable true ;
    cosmos_sdtm:name "TUREFID" ;
    cosmos_sdtm:originSource NCIT:C70793 ;
    cosmos_sdtm:originType NCIT:C170547 ;
    cosmos_sdtm:relationship <https://w3id.org/cdisc/cosmos/dss/TU/TUMERGE/TUREFID/relationship> ;
    cosmos_sdtm:role <https://www.cdisc.org/cosmos/sdtm_v1.0/RoleEnum#Identifier> .

<https://w3id.org/cdisc/cosmos/dss/TU/TUMERGE/TUSTRESC> a cosmos_sdtm:SDTMVariable ;
    cosmos_sdtm:assignedTerm <https://w3id.org/cdisc/cosmos/dss/TU/TUMERGE/TUSTRESC/assignedTerm> ;
    cosmos_sdtm:codelist NCIT:C123650 ;
    cosmos_sdtm:dataElementConceptId NCIT:C70856 ;
    cosmos_sdtm:dataType <https://www.cdisc.org/cosmos/sdtm_v1.0/SDTMVariableDataTypeEnum#text> ;
    cosmos_sdtm:isNonStandard false ;
    cosmos_sdtm:length 24 ;
    cosmos_sdtm:mandatoryValue false ;
    cosmos_sdtm:mandatoryVariable true ;
    cosmos_sdtm:name "TUSTRESC" ;
    cosmos_sdtm:originSource NCIT:C70793 ;
    cosmos_sdtm:originType NCIT:C170549 ;
    cosmos_sdtm:relationship <https://w3id.org/cdisc/cosmos/dss/TU/TUMERGE/TUSTRESC/relationship> ;
    cosmos_sdtm:role <https://www.cdisc.org/cosmos/sdtm_v1.0/RoleEnum#Qualifier> ;
    cosmos_sdtm:vlmTarget true .

<https://w3id.org/cdisc/cosmos/dss/TU/TUMERGE/TUTEST> a cosmos_sdtm:SDTMVariable ;
    cosmos_sdtm:assignedTerm <https://w3id.org/cdisc/cosmos/dss/TU/TUMERGE/TUTEST/assignedTerm> ;
    cosmos_sdtm:codelist NCIT:C96783 ;
    cosmos_sdtm:isNonStandard false ;
    cosmos_sdtm:mandatoryValue true ;
    cosmos_sdtm:mandatoryVariable true ;
    cosmos_sdtm:name "TUTEST" ;
    cosmos_sdtm:originSource NCIT:C70793 ;
    cosmos_sdtm:originType NCIT:C170547 ;
    cosmos_sdtm:relationship <https://w3id.org/cdisc/cosmos/dss/TU/TUMERGE/TUTEST/relationship> ;
    cosmos_sdtm:role <https://www.cdisc.org/cosmos/sdtm_v1.0/RoleEnum#Qualifier> .

<https://w3id.org/cdisc/cosmos/dss/TU/TUMERGE/TUTESTCD> a cosmos_sdtm:SDTMVariable ;
    cosmos_sdtm:assignedTerm <https://w3id.org/cdisc/cosmos/dss/TU/TUMERGE/TUTESTCD/assignedTerm> ;
    cosmos_sdtm:codelist NCIT:C96784 ;
    cosmos_sdtm:comparator <https://www.cdisc.org/cosmos/sdtm_v1.0/ComparatorEnum#EQ> ;
    cosmos_sdtm:isNonStandard false ;
    cosmos_sdtm:mandatoryValue true ;
    cosmos_sdtm:mandatoryVariable true ;
    cosmos_sdtm:name "TUTESTCD" ;
    cosmos_sdtm:originSource NCIT:C70793 ;
    cosmos_sdtm:originType NCIT:C170547 ;
    cosmos_sdtm:relationship <https://w3id.org/cdisc/cosmos/dss/TU/TUMERGE/TUTESTCD/relationship> ;
    cosmos_sdtm:role <https://www.cdisc.org/cosmos/sdtm_v1.0/RoleEnum#Topic> .

<https://w3id.org/cdisc/cosmos/dss/TU/TUMERGE_RECIST1_1/TUDIR> a cosmos_sdtm:SDTMVariable ;
    cosmos_sdtm:codelist NCIT:C99074 ;
    cosmos_sdtm:dataElementConceptId NCIT:C54215 ;
    cosmos_sdtm:isNonStandard false ;
    cosmos_sdtm:mandatoryValue false ;
    cosmos_sdtm:mandatoryVariable false ;
    cosmos_sdtm:name "TUDIR" ;
    cosmos_sdtm:originSource NCIT:C25936 ;
    cosmos_sdtm:originType NCIT:C170548 ;
    cosmos_sdtm:relationship <https://w3id.org/cdisc/cosmos/dss/TU/TUMERGE_RECIST1_1/TUDIR/relationship> ;
    cosmos_sdtm:role <https://www.cdisc.org/cosmos/sdtm_v1.0/RoleEnum#Qualifier> .

<https://w3id.org/cdisc/cosmos/dss/TU/TUMERGE_RECIST1_1/TUDTC> a cosmos_sdtm:SDTMVariable ;
    cosmos_sdtm:dataElementConceptId NCIT:C82515 ;
    cosmos_sdtm:isNonStandard false ;
    cosmos_sdtm:mandatoryValue false ;
    cosmos_sdtm:mandatoryVariable true ;
    cosmos_sdtm:name "TUDTC" ;
    cosmos_sdtm:originSource NCIT:C25936 ;
    cosmos_sdtm:originType NCIT:C170548 ;
    cosmos_sdtm:relationship <https://w3id.org/cdisc/cosmos/dss/TU/TUMERGE_RECIST1_1/TUDTC/relationship> ;
    cosmos_sdtm:role <https://www.cdisc.org/cosmos/sdtm_v1.0/RoleEnum#Timing> .

<https://w3id.org/cdisc/cosmos/dss/TU/TUMERGE_RECIST1_1/TUEVAL> a cosmos_sdtm:SDTMVariable ;
    cosmos_sdtm:codelist NCIT:C78735 ;
    cosmos_sdtm:comparator <https://www.cdisc.org/cosmos/sdtm_v1.0/ComparatorEnum#IN> ;
    cosmos_sdtm:dataElementConceptId NCIT:C51824 ;
    cosmos_sdtm:isNonStandard false ;
    cosmos_sdtm:mandatoryValue false ;
    cosmos_sdtm:mandatoryVariable false ;
    cosmos_sdtm:name "TUEVAL" ;
    cosmos_sdtm:originSource NCIT:C70793 ;
    cosmos_sdtm:originType NCIT:C170547 ;
    cosmos_sdtm:relationship <https://w3id.org/cdisc/cosmos/dss/TU/TUMERGE_RECIST1_1/TUEVAL/relationship> ;
    cosmos_sdtm:role <https://www.cdisc.org/cosmos/sdtm_v1.0/RoleEnum#Qualifier> ;
    cosmos_sdtm:valueList "INDEPENDENT ASSESSOR",
        "INVESTIGATOR",
        "RADIOLOGIST" .

<https://w3id.org/cdisc/cosmos/dss/TU/TUMERGE_RECIST1_1/TUEVALID> a cosmos_sdtm:SDTMVariable ;
    cosmos_sdtm:codelist NCIT:C96777 ;
    cosmos_sdtm:comparator <https://www.cdisc.org/cosmos/sdtm_v1.0/ComparatorEnum#IN> ;
    cosmos_sdtm:dataElementConceptId NCIT:C117043 ;
    cosmos_sdtm:isNonStandard false ;
    cosmos_sdtm:mandatoryValue false ;
    cosmos_sdtm:mandatoryVariable false ;
    cosmos_sdtm:name "TUEVALID" ;
    cosmos_sdtm:originSource NCIT:C68608 ;
    cosmos_sdtm:originType NCIT:C170548 ;
    cosmos_sdtm:relationship <https://w3id.org/cdisc/cosmos/dss/TU/TUMERGE_RECIST1_1/TUEVALID/relationship> ;
    cosmos_sdtm:role <https://www.cdisc.org/cosmos/sdtm_v1.0/RoleEnum#Qualifier> ;
    cosmos_sdtm:valueList "RADIOLOGIST 1",
        "RADIOLOGIST 2",
        "RADIOLOGIST 3" .

<https://w3id.org/cdisc/cosmos/dss/TU/TUMERGE_RECIST1_1/TULAT> a cosmos_sdtm:SDTMVariable ;
    cosmos_sdtm:codelist NCIT:C99073 ;
    cosmos_sdtm:dataElementConceptId NCIT:C25185 ;
    cosmos_sdtm:isNonStandard false ;
    cosmos_sdtm:mandatoryValue false ;
    cosmos_sdtm:mandatoryVariable false ;
    cosmos_sdtm:name "TULAT" ;
    cosmos_sdtm:originSource NCIT:C25936 ;
    cosmos_sdtm:originType NCIT:C170548 ;
    cosmos_sdtm:relationship <https://w3id.org/cdisc/cosmos/dss/TU/TUMERGE_RECIST1_1/TULAT/relationship> ;
    cosmos_sdtm:role <https://www.cdisc.org/cosmos/sdtm_v1.0/RoleEnum#Qualifier> .

<https://w3id.org/cdisc/cosmos/dss/TU/TUMERGE_RECIST1_1/TULNKID> a cosmos_sdtm:SDTMVariable ;
    cosmos_sdtm:dataElementConceptId NCIT:C117436 ;
    cosmos_sdtm:isNonStandard false ;
    cosmos_sdtm:mandatoryValue false ;
    cosmos_sdtm:mandatoryVariable true ;
    cosmos_sdtm:name "TULNKID" ;
    cosmos_sdtm:originSource NCIT:C70793 ;
    cosmos_sdtm:originType NCIT:C170547 ;
    cosmos_sdtm:relationship <https://w3id.org/cdisc/cosmos/dss/TU/TUMERGE_RECIST1_1/TULNKID/relationship> ;
    cosmos_sdtm:role <https://www.cdisc.org/cosmos/sdtm_v1.0/RoleEnum#Identifier> .

<https://w3id.org/cdisc/cosmos/dss/TU/TUMERGE_RECIST1_1/TULOC> a cosmos_sdtm:SDTMVariable ;
    cosmos_sdtm:codelist NCIT:C74456 ;
    cosmos_sdtm:dataElementConceptId NCIT:C170500 ;
    cosmos_sdtm:isNonStandard false ;
    cosmos_sdtm:mandatoryValue false ;
    cosmos_sdtm:mandatoryVariable true ;
    cosmos_sdtm:name "TULOC" ;
    cosmos_sdtm:originSource NCIT:C25936 ;
    cosmos_sdtm:originType NCIT:C170548 ;
    cosmos_sdtm:relationship <https://w3id.org/cdisc/cosmos/dss/TU/TUMERGE_RECIST1_1/TULOC/relationship> ;
    cosmos_sdtm:role <https://www.cdisc.org/cosmos/sdtm_v1.0/RoleEnum#Qualifier> .

<https://w3id.org/cdisc/cosmos/dss/TU/TUMERGE_RECIST1_1/TULOCDTL> a cosmos_sdtm:SDTMVariable ;
    cosmos_sdtm:isNonStandard true ;
    cosmos_sdtm:mandatoryValue false ;
    cosmos_sdtm:mandatoryVariable false ;
    cosmos_sdtm:name "TULOCDTL" ;
    cosmos_sdtm:originSource NCIT:C25936 ;
    cosmos_sdtm:originType NCIT:C170548 ;
    cosmos_sdtm:relationship <https://w3id.org/cdisc/cosmos/dss/TU/TUMERGE_RECIST1_1/TULOCDTL/relationship> ;
    cosmos_sdtm:role <https://www.cdisc.org/cosmos/sdtm_v1.0/RoleEnum#Qualifier> .

<https://w3id.org/cdisc/cosmos/dss/TU/TUMERGE_RECIST1_1/TUMETHOD> a cosmos_sdtm:SDTMVariable ;
    cosmos_sdtm:codelist NCIT:C85492 ;
    cosmos_sdtm:comparator <https://www.cdisc.org/cosmos/sdtm_v1.0/ComparatorEnum#IN> ;
    cosmos_sdtm:dataElementConceptId NCIT:C82535 ;
    cosmos_sdtm:isNonStandard false ;
    cosmos_sdtm:mandatoryValue false ;
    cosmos_sdtm:mandatoryVariable true ;
    cosmos_sdtm:name "TUMETHOD" ;
    cosmos_sdtm:originSource NCIT:C25936 ;
    cosmos_sdtm:originType NCIT:C170548 ;
    cosmos_sdtm:relationship <https://w3id.org/cdisc/cosmos/dss/TU/TUMERGE_RECIST1_1/TUMETHOD/relationship> ;
    cosmos_sdtm:role <https://www.cdisc.org/cosmos/sdtm_v1.0/RoleEnum#Qualifier> ;
    cosmos_sdtm:valueList "CALIPER MEASUREMENT METHOD",
        "CT SCAN",
        "ENDOSCOPY",
        "LYMPHANGIOGRAPHY",
        "MAMMOGRAPHY",
        "MRI",
        "NUCLEAR RADIOLOGY",
        "PET SCAN",
        "PET/CT SCAN",
        "PET/MRI SCAN",
        "PHOTOGRAPHY",
        "SCINTIGRAPHY",
        "TOTAL BODY RADIOGRAPHY",
        "ULTRASOUND",
        "X-RAY" .

<https://w3id.org/cdisc/cosmos/dss/TU/TUMERGE_RECIST1_1/TUORRES> a cosmos_sdtm:SDTMVariable ;
    cosmos_sdtm:assignedTerm <https://w3id.org/cdisc/cosmos/dss/TU/TUMERGE_RECIST1_1/TUORRES/assignedTerm> ;
    cosmos_sdtm:codelist NCIT:C123650 ;
    cosmos_sdtm:dataElementConceptId NCIT:C70856 ;
    cosmos_sdtm:dataType <https://www.cdisc.org/cosmos/sdtm_v1.0/SDTMVariableDataTypeEnum#text> ;
    cosmos_sdtm:isNonStandard false ;
    cosmos_sdtm:length 10 ;
    cosmos_sdtm:mandatoryValue false ;
    cosmos_sdtm:mandatoryVariable true ;
    cosmos_sdtm:name "TUORRES" ;
    cosmos_sdtm:originSource NCIT:C25936 ;
    cosmos_sdtm:originType NCIT:C170548 ;
    cosmos_sdtm:relationship <https://w3id.org/cdisc/cosmos/dss/TU/TUMERGE_RECIST1_1/TUORRES/relationship> ;
    cosmos_sdtm:role <https://www.cdisc.org/cosmos/sdtm_v1.0/RoleEnum#Qualifier> ;
    cosmos_sdtm:vlmTarget true .

<https://w3id.org/cdisc/cosmos/dss/TU/TUMERGE_RECIST1_1/TUREFID> a cosmos_sdtm:SDTMVariable ;
    cosmos_sdtm:dataElementConceptId NCIT:C117442 ;
    cosmos_sdtm:isNonStandard false ;
    cosmos_sdtm:mandatoryValue false ;
    cosmos_sdtm:mandatoryVariable true ;
    cosmos_sdtm:name "TUREFID" ;
    cosmos_sdtm:originSource NCIT:C70793 ;
    cosmos_sdtm:originType NCIT:C170547 ;
    cosmos_sdtm:relationship <https://w3id.org/cdisc/cosmos/dss/TU/TUMERGE_RECIST1_1/TUREFID/relationship> ;
    cosmos_sdtm:role <https://www.cdisc.org/cosmos/sdtm_v1.0/RoleEnum#Identifier> .

<https://w3id.org/cdisc/cosmos/dss/TU/TUMERGE_RECIST1_1/TUSTRESC> a cosmos_sdtm:SDTMVariable ;
    cosmos_sdtm:assignedTerm <https://w3id.org/cdisc/cosmos/dss/TU/TUMERGE_RECIST1_1/TUSTRESC/assignedTerm> ;
    cosmos_sdtm:codelist NCIT:C123650 ;
    cosmos_sdtm:dataElementConceptId NCIT:C70856 ;
    cosmos_sdtm:dataType <https://www.cdisc.org/cosmos/sdtm_v1.0/SDTMVariableDataTypeEnum#text> ;
    cosmos_sdtm:isNonStandard false ;
    cosmos_sdtm:length 10 ;
    cosmos_sdtm:mandatoryValue false ;
    cosmos_sdtm:mandatoryVariable true ;
    cosmos_sdtm:name "TUSTRESC" ;
    cosmos_sdtm:originSource NCIT:C70793 ;
    cosmos_sdtm:originType NCIT:C170549 ;
    cosmos_sdtm:relationship <https://w3id.org/cdisc/cosmos/dss/TU/TUMERGE_RECIST1_1/TUSTRESC/relationship> ;
    cosmos_sdtm:role <https://www.cdisc.org/cosmos/sdtm_v1.0/RoleEnum#Qualifier> ;
    cosmos_sdtm:vlmTarget true .

<https://w3id.org/cdisc/cosmos/dss/TU/TUMERGE_RECIST1_1/TUTEST> a cosmos_sdtm:SDTMVariable ;
    cosmos_sdtm:assignedTerm <https://w3id.org/cdisc/cosmos/dss/TU/TUMERGE_RECIST1_1/TUTEST/assignedTerm> ;
    cosmos_sdtm:codelist NCIT:C96783 ;
    cosmos_sdtm:isNonStandard false ;
    cosmos_sdtm:mandatoryValue true ;
    cosmos_sdtm:mandatoryVariable true ;
    cosmos_sdtm:name "TUTEST" ;
    cosmos_sdtm:originSource NCIT:C70793 ;
    cosmos_sdtm:originType NCIT:C170547 ;
    cosmos_sdtm:relationship <https://w3id.org/cdisc/cosmos/dss/TU/TUMERGE_RECIST1_1/TUTEST/relationship> ;
    cosmos_sdtm:role <https://www.cdisc.org/cosmos/sdtm_v1.0/RoleEnum#Qualifier> .

<https://w3id.org/cdisc/cosmos/dss/TU/TUMERGE_RECIST1_1/TUTESTCD> a cosmos_sdtm:SDTMVariable ;
    cosmos_sdtm:assignedTerm <https://w3id.org/cdisc/cosmos/dss/TU/TUMERGE_RECIST1_1/TUTESTCD/assignedTerm> ;
    cosmos_sdtm:codelist NCIT:C96784 ;
    cosmos_sdtm:comparator <https://www.cdisc.org/cosmos/sdtm_v1.0/ComparatorEnum#EQ> ;
    cosmos_sdtm:isNonStandard false ;
    cosmos_sdtm:mandatoryValue true ;
    cosmos_sdtm:mandatoryVariable true ;
    cosmos_sdtm:name "TUTESTCD" ;
    cosmos_sdtm:originSource NCIT:C70793 ;
    cosmos_sdtm:originType NCIT:C170547 ;
    cosmos_sdtm:relationship <https://w3id.org/cdisc/cosmos/dss/TU/TUMERGE_RECIST1_1/TUTESTCD/relationship> ;
    cosmos_sdtm:role <https://www.cdisc.org/cosmos/sdtm_v1.0/RoleEnum#Topic> .

<https://w3id.org/cdisc/cosmos/dss/TU/TUMIDENT/PRVIR> a cosmos_sdtm:SDTMVariable ;
    cosmos_sdtm:codelist NCIT:C66742 ;
    cosmos_sdtm:isNonStandard true ;
    cosmos_sdtm:mandatoryValue false ;
    cosmos_sdtm:mandatoryVariable false ;
    cosmos_sdtm:name "PRVIR" ;
    cosmos_sdtm:originSource NCIT:C25936 ;
    cosmos_sdtm:originType NCIT:C170548 ;
    cosmos_sdtm:relationship <https://w3id.org/cdisc/cosmos/dss/TU/TUMIDENT/PRVIR/relationship> ;
    cosmos_sdtm:role <https://www.cdisc.org/cosmos/sdtm_v1.0/RoleEnum#Qualifier> ;
    cosmos_sdtm:subsetCodelist "NY_NY" ;
    cosmos_sdtm:valueList "N",
        "Y" .

<https://w3id.org/cdisc/cosmos/dss/TU/TUMIDENT/PRVIRP> a cosmos_sdtm:SDTMVariable ;
    cosmos_sdtm:codelist NCIT:C66742 ;
    cosmos_sdtm:isNonStandard true ;
    cosmos_sdtm:mandatoryValue false ;
    cosmos_sdtm:mandatoryVariable false ;
    cosmos_sdtm:name "PRVIRP" ;
    cosmos_sdtm:originSource NCIT:C25936 ;
    cosmos_sdtm:originType NCIT:C170548 ;
    cosmos_sdtm:relationship <https://w3id.org/cdisc/cosmos/dss/TU/TUMIDENT/PRVIRP/relationship> ;
    cosmos_sdtm:role <https://www.cdisc.org/cosmos/sdtm_v1.0/RoleEnum#Qualifier> ;
    cosmos_sdtm:subsetCodelist "NY_NY" ;
    cosmos_sdtm:valueList "N",
        "Y" .

<https://w3id.org/cdisc/cosmos/dss/TU/TUMIDENT/TUDIR> a cosmos_sdtm:SDTMVariable ;
    cosmos_sdtm:codelist NCIT:C99074 ;
    cosmos_sdtm:dataElementConceptId NCIT:C54215 ;
    cosmos_sdtm:isNonStandard false ;
    cosmos_sdtm:mandatoryValue false ;
    cosmos_sdtm:mandatoryVariable false ;
    cosmos_sdtm:name "TUDIR" ;
    cosmos_sdtm:originSource NCIT:C25936 ;
    cosmos_sdtm:originType NCIT:C170548 ;
    cosmos_sdtm:relationship <https://w3id.org/cdisc/cosmos/dss/TU/TUMIDENT/TUDIR/relationship> ;
    cosmos_sdtm:role <https://www.cdisc.org/cosmos/sdtm_v1.0/RoleEnum#Qualifier> .

<https://w3id.org/cdisc/cosmos/dss/TU/TUMIDENT/TUDTC> a cosmos_sdtm:SDTMVariable ;
    cosmos_sdtm:dataElementConceptId NCIT:C82515 ;
    cosmos_sdtm:isNonStandard false ;
    cosmos_sdtm:mandatoryValue false ;
    cosmos_sdtm:mandatoryVariable true ;
    cosmos_sdtm:name "TUDTC" ;
    cosmos_sdtm:originSource NCIT:C70793 ;
    cosmos_sdtm:originType NCIT:C170548 ;
    cosmos_sdtm:relationship <https://w3id.org/cdisc/cosmos/dss/TU/TUMIDENT/TUDTC/relationship> ;
    cosmos_sdtm:role <https://www.cdisc.org/cosmos/sdtm_v1.0/RoleEnum#Timing> .

<https://w3id.org/cdisc/cosmos/dss/TU/TUMIDENT/TUEVAL> a cosmos_sdtm:SDTMVariable ;
    cosmos_sdtm:codelist NCIT:C78735 ;
    cosmos_sdtm:comparator <https://www.cdisc.org/cosmos/sdtm_v1.0/ComparatorEnum#IN> ;
    cosmos_sdtm:dataElementConceptId NCIT:C51824 ;
    cosmos_sdtm:isNonStandard false ;
    cosmos_sdtm:mandatoryValue false ;
    cosmos_sdtm:mandatoryVariable false ;
    cosmos_sdtm:name "TUEVAL" ;
    cosmos_sdtm:originSource NCIT:C70793 ;
    cosmos_sdtm:originType NCIT:C170547 ;
    cosmos_sdtm:relationship <https://w3id.org/cdisc/cosmos/dss/TU/TUMIDENT/TUEVAL/relationship> ;
    cosmos_sdtm:role <https://www.cdisc.org/cosmos/sdtm_v1.0/RoleEnum#Qualifier> ;
    cosmos_sdtm:valueList "INDEPENDENT ASSESSOR",
        "INVESTIGATOR",
        "RADIOLOGIST" .

<https://w3id.org/cdisc/cosmos/dss/TU/TUMIDENT/TUEVALID> a cosmos_sdtm:SDTMVariable ;
    cosmos_sdtm:codelist NCIT:C96777 ;
    cosmos_sdtm:comparator <https://www.cdisc.org/cosmos/sdtm_v1.0/ComparatorEnum#IN> ;
    cosmos_sdtm:dataElementConceptId NCIT:C117043 ;
    cosmos_sdtm:isNonStandard false ;
    cosmos_sdtm:mandatoryValue false ;
    cosmos_sdtm:mandatoryVariable false ;
    cosmos_sdtm:name "TUEVALID" ;
    cosmos_sdtm:originSource NCIT:C68608 ;
    cosmos_sdtm:originType NCIT:C170548 ;
    cosmos_sdtm:relationship <https://w3id.org/cdisc/cosmos/dss/TU/TUMIDENT/TUEVALID/relationship> ;
    cosmos_sdtm:role <https://www.cdisc.org/cosmos/sdtm_v1.0/RoleEnum#Qualifier> ;
    cosmos_sdtm:valueList "RADIOLOGIST 1",
        "RADIOLOGIST 2",
        "RADIOLOGIST 3" .

<https://w3id.org/cdisc/cosmos/dss/TU/TUMIDENT/TULAT> a cosmos_sdtm:SDTMVariable ;
    cosmos_sdtm:codelist NCIT:C99073 ;
    cosmos_sdtm:dataElementConceptId NCIT:C25185 ;
    cosmos_sdtm:isNonStandard false ;
    cosmos_sdtm:mandatoryValue false ;
    cosmos_sdtm:mandatoryVariable false ;
    cosmos_sdtm:name "TULAT" ;
    cosmos_sdtm:originSource NCIT:C25936 ;
    cosmos_sdtm:originType NCIT:C170548 ;
    cosmos_sdtm:relationship <https://w3id.org/cdisc/cosmos/dss/TU/TUMIDENT/TULAT/relationship> ;
    cosmos_sdtm:role <https://www.cdisc.org/cosmos/sdtm_v1.0/RoleEnum#Qualifier> .

<https://w3id.org/cdisc/cosmos/dss/TU/TUMIDENT/TULNKID> a cosmos_sdtm:SDTMVariable ;
    cosmos_sdtm:dataElementConceptId NCIT:C117436 ;
    cosmos_sdtm:isNonStandard false ;
    cosmos_sdtm:mandatoryValue false ;
    cosmos_sdtm:mandatoryVariable true ;
    cosmos_sdtm:name "TULNKID" ;
    cosmos_sdtm:originSource NCIT:C70793 ;
    cosmos_sdtm:originType NCIT:C170547 ;
    cosmos_sdtm:relationship <https://w3id.org/cdisc/cosmos/dss/TU/TUMIDENT/TULNKID/relationship> ;
    cosmos_sdtm:role <https://www.cdisc.org/cosmos/sdtm_v1.0/RoleEnum#Identifier> .

<https://w3id.org/cdisc/cosmos/dss/TU/TUMIDENT/TULOC> a cosmos_sdtm:SDTMVariable ;
    cosmos_sdtm:codelist NCIT:C74456 ;
    cosmos_sdtm:dataElementConceptId NCIT:C170500 ;
    cosmos_sdtm:isNonStandard false ;
    cosmos_sdtm:mandatoryValue false ;
    cosmos_sdtm:mandatoryVariable true ;
    cosmos_sdtm:name "TULOC" ;
    cosmos_sdtm:originSource NCIT:C25936 ;
    cosmos_sdtm:originType NCIT:C170548 ;
    cosmos_sdtm:relationship <https://w3id.org/cdisc/cosmos/dss/TU/TUMIDENT/TULOC/relationship> ;
    cosmos_sdtm:role <https://www.cdisc.org/cosmos/sdtm_v1.0/RoleEnum#Qualifier> .

<https://w3id.org/cdisc/cosmos/dss/TU/TUMIDENT/TUMETHOD> a cosmos_sdtm:SDTMVariable ;
    cosmos_sdtm:codelist NCIT:C85492 ;
    cosmos_sdtm:comparator <https://www.cdisc.org/cosmos/sdtm_v1.0/ComparatorEnum#IN> ;
    cosmos_sdtm:dataElementConceptId NCIT:C82535 ;
    cosmos_sdtm:isNonStandard false ;
    cosmos_sdtm:mandatoryValue false ;
    cosmos_sdtm:mandatoryVariable true ;
    cosmos_sdtm:name "TUMETHOD" ;
    cosmos_sdtm:originSource NCIT:C25936 ;
    cosmos_sdtm:originType NCIT:C170548 ;
    cosmos_sdtm:relationship <https://w3id.org/cdisc/cosmos/dss/TU/TUMIDENT/TUMETHOD/relationship> ;
    cosmos_sdtm:role <https://www.cdisc.org/cosmos/sdtm_v1.0/RoleEnum#Qualifier> ;
    cosmos_sdtm:valueList "CALIPER MEASUREMENT METHOD",
        "CT SCAN",
        "ENDOSCOPY",
        "LYMPHANGIOGRAPHY",
        "MAMMOGRAPHY",
        "MRI",
        "NUCLEAR RADIOLOGY",
        "PET SCAN",
        "PET/CT SCAN",
        "PET/MRI SCAN",
        "PHOTOGRAPHY",
        "SCINTIGRAPHY",
        "TOTAL BODY RADIOGRAPHY",
        "ULTRASOUND",
        "X-RAY" .

<https://w3id.org/cdisc/cosmos/dss/TU/TUMIDENT/TUORRES> a cosmos_sdtm:SDTMVariable ;
    cosmos_sdtm:codelist NCIT:C123650 ;
    cosmos_sdtm:dataElementConceptId NCIT:C70856 ;
    cosmos_sdtm:dataType <https://www.cdisc.org/cosmos/sdtm_v1.0/SDTMVariableDataTypeEnum#text> ;
    cosmos_sdtm:isNonStandard false ;
    cosmos_sdtm:length 24 ;
    cosmos_sdtm:mandatoryValue false ;
    cosmos_sdtm:mandatoryVariable true ;
    cosmos_sdtm:name "TUORRES" ;
    cosmos_sdtm:originSource NCIT:C25936 ;
    cosmos_sdtm:originType NCIT:C170548 ;
    cosmos_sdtm:relationship <https://w3id.org/cdisc/cosmos/dss/TU/TUMIDENT/TUORRES/relationship> ;
    cosmos_sdtm:role <https://www.cdisc.org/cosmos/sdtm_v1.0/RoleEnum#Qualifier> ;
    cosmos_sdtm:valueList "NEW",
        "NON-TARGET",
        "TARGET" ;
    cosmos_sdtm:vlmTarget true .

<https://w3id.org/cdisc/cosmos/dss/TU/TUMIDENT/TUREFID> a cosmos_sdtm:SDTMVariable ;
    cosmos_sdtm:dataElementConceptId NCIT:C117442 ;
    cosmos_sdtm:isNonStandard false ;
    cosmos_sdtm:mandatoryValue false ;
    cosmos_sdtm:mandatoryVariable true ;
    cosmos_sdtm:name "TUREFID" ;
    cosmos_sdtm:originSource NCIT:C70793 ;
    cosmos_sdtm:originType NCIT:C170547 ;
    cosmos_sdtm:relationship <https://w3id.org/cdisc/cosmos/dss/TU/TUMIDENT/TUREFID/relationship> ;
    cosmos_sdtm:role <https://www.cdisc.org/cosmos/sdtm_v1.0/RoleEnum#Identifier> .

<https://w3id.org/cdisc/cosmos/dss/TU/TUMIDENT/TUSTRESC> a cosmos_sdtm:SDTMVariable ;
    cosmos_sdtm:codelist NCIT:C123650 ;
    cosmos_sdtm:dataElementConceptId NCIT:C70856 ;
    cosmos_sdtm:dataType <https://www.cdisc.org/cosmos/sdtm_v1.0/SDTMVariableDataTypeEnum#text> ;
    cosmos_sdtm:isNonStandard false ;
    cosmos_sdtm:length 24 ;
    cosmos_sdtm:mandatoryValue false ;
    cosmos_sdtm:mandatoryVariable true ;
    cosmos_sdtm:name "TUSTRESC" ;
    cosmos_sdtm:originSource NCIT:C70793 ;
    cosmos_sdtm:originType NCIT:C170549 ;
    cosmos_sdtm:relationship <https://w3id.org/cdisc/cosmos/dss/TU/TUMIDENT/TUSTRESC/relationship> ;
    cosmos_sdtm:role <https://www.cdisc.org/cosmos/sdtm_v1.0/RoleEnum#Qualifier> ;
    cosmos_sdtm:valueList "NEW",
        "NON-TARGET",
        "TARGET" ;
    cosmos_sdtm:vlmTarget true .

<https://w3id.org/cdisc/cosmos/dss/TU/TUMIDENT/TUTEST> a cosmos_sdtm:SDTMVariable ;
    cosmos_sdtm:assignedTerm <https://w3id.org/cdisc/cosmos/dss/TU/TUMIDENT/TUTEST/assignedTerm> ;
    cosmos_sdtm:codelist NCIT:C96783 ;
    cosmos_sdtm:isNonStandard false ;
    cosmos_sdtm:mandatoryValue true ;
    cosmos_sdtm:mandatoryVariable true ;
    cosmos_sdtm:name "TUTEST" ;
    cosmos_sdtm:originSource NCIT:C70793 ;
    cosmos_sdtm:originType NCIT:C170547 ;
    cosmos_sdtm:relationship <https://w3id.org/cdisc/cosmos/dss/TU/TUMIDENT/TUTEST/relationship> ;
    cosmos_sdtm:role <https://www.cdisc.org/cosmos/sdtm_v1.0/RoleEnum#Qualifier> .

<https://w3id.org/cdisc/cosmos/dss/TU/TUMIDENT/TUTESTCD> a cosmos_sdtm:SDTMVariable ;
    cosmos_sdtm:assignedTerm <https://w3id.org/cdisc/cosmos/dss/TU/TUMIDENT/TUTESTCD/assignedTerm> ;
    cosmos_sdtm:codelist NCIT:C96784 ;
    cosmos_sdtm:comparator <https://www.cdisc.org/cosmos/sdtm_v1.0/ComparatorEnum#EQ> ;
    cosmos_sdtm:isNonStandard false ;
    cosmos_sdtm:mandatoryValue true ;
    cosmos_sdtm:mandatoryVariable true ;
    cosmos_sdtm:name "TUTESTCD" ;
    cosmos_sdtm:originSource NCIT:C70793 ;
    cosmos_sdtm:originType NCIT:C170547 ;
    cosmos_sdtm:relationship <https://w3id.org/cdisc/cosmos/dss/TU/TUMIDENT/TUTESTCD/relationship> ;
    cosmos_sdtm:role <https://www.cdisc.org/cosmos/sdtm_v1.0/RoleEnum#Topic> .

<https://w3id.org/cdisc/cosmos/dss/TU/TUMIDENT_RECIST1_1/TUDIR> a cosmos_sdtm:SDTMVariable ;
    cosmos_sdtm:codelist NCIT:C99074 ;
    cosmos_sdtm:dataElementConceptId NCIT:C54215 ;
    cosmos_sdtm:isNonStandard false ;
    cosmos_sdtm:mandatoryValue false ;
    cosmos_sdtm:mandatoryVariable false ;
    cosmos_sdtm:name "TUDIR" ;
    cosmos_sdtm:originSource NCIT:C25936 ;
    cosmos_sdtm:originType NCIT:C170548 ;
    cosmos_sdtm:relationship <https://w3id.org/cdisc/cosmos/dss/TU/TUMIDENT_RECIST1_1/TUDIR/relationship> ;
    cosmos_sdtm:role <https://www.cdisc.org/cosmos/sdtm_v1.0/RoleEnum#Qualifier> .

<https://w3id.org/cdisc/cosmos/dss/TU/TUMIDENT_RECIST1_1/TUDTC> a cosmos_sdtm:SDTMVariable ;
    cosmos_sdtm:dataElementConceptId NCIT:C82515 ;
    cosmos_sdtm:isNonStandard false ;
    cosmos_sdtm:mandatoryValue false ;
    cosmos_sdtm:mandatoryVariable true ;
    cosmos_sdtm:name "TUDTC" ;
    cosmos_sdtm:originSource NCIT:C25936 ;
    cosmos_sdtm:originType NCIT:C170548 ;
    cosmos_sdtm:relationship <https://w3id.org/cdisc/cosmos/dss/TU/TUMIDENT_RECIST1_1/TUDTC/relationship> ;
    cosmos_sdtm:role <https://www.cdisc.org/cosmos/sdtm_v1.0/RoleEnum#Timing> .

<https://w3id.org/cdisc/cosmos/dss/TU/TUMIDENT_RECIST1_1/TUEVAL> a cosmos_sdtm:SDTMVariable ;
    cosmos_sdtm:codelist NCIT:C78735 ;
    cosmos_sdtm:comparator <https://www.cdisc.org/cosmos/sdtm_v1.0/ComparatorEnum#IN> ;
    cosmos_sdtm:dataElementConceptId NCIT:C51824 ;
    cosmos_sdtm:isNonStandard false ;
    cosmos_sdtm:mandatoryValue false ;
    cosmos_sdtm:mandatoryVariable false ;
    cosmos_sdtm:name "TUEVAL" ;
    cosmos_sdtm:originSource NCIT:C70793 ;
    cosmos_sdtm:originType NCIT:C170547 ;
    cosmos_sdtm:relationship <https://w3id.org/cdisc/cosmos/dss/TU/TUMIDENT_RECIST1_1/TUEVAL/relationship> ;
    cosmos_sdtm:role <https://www.cdisc.org/cosmos/sdtm_v1.0/RoleEnum#Qualifier> ;
    cosmos_sdtm:valueList "INDEPENDENT ASSESSOR",
        "INVESTIGATOR",
        "RADIOLOGIST" .

<https://w3id.org/cdisc/cosmos/dss/TU/TUMIDENT_RECIST1_1/TUEVALID> a cosmos_sdtm:SDTMVariable ;
    cosmos_sdtm:codelist NCIT:C96777 ;
    cosmos_sdtm:comparator <https://www.cdisc.org/cosmos/sdtm_v1.0/ComparatorEnum#IN> ;
    cosmos_sdtm:dataElementConceptId NCIT:C117043 ;
    cosmos_sdtm:isNonStandard false ;
    cosmos_sdtm:mandatoryValue false ;
    cosmos_sdtm:mandatoryVariable false ;
    cosmos_sdtm:name "TUEVALID" ;
    cosmos_sdtm:originSource NCIT:C68608 ;
    cosmos_sdtm:originType NCIT:C170548 ;
    cosmos_sdtm:relationship <https://w3id.org/cdisc/cosmos/dss/TU/TUMIDENT_RECIST1_1/TUEVALID/relationship> ;
    cosmos_sdtm:role <https://www.cdisc.org/cosmos/sdtm_v1.0/RoleEnum#Qualifier> ;
    cosmos_sdtm:valueList "RADIOLOGIST 1",
        "RADIOLOGIST 2",
        "RADIOLOGIST 3" .

<https://w3id.org/cdisc/cosmos/dss/TU/TUMIDENT_RECIST1_1/TULAT> a cosmos_sdtm:SDTMVariable ;
    cosmos_sdtm:codelist NCIT:C99073 ;
    cosmos_sdtm:dataElementConceptId NCIT:C25185 ;
    cosmos_sdtm:isNonStandard false ;
    cosmos_sdtm:mandatoryValue false ;
    cosmos_sdtm:mandatoryVariable false ;
    cosmos_sdtm:name "TULAT" ;
    cosmos_sdtm:originSource NCIT:C25936 ;
    cosmos_sdtm:originType NCIT:C170548 ;
    cosmos_sdtm:relationship <https://w3id.org/cdisc/cosmos/dss/TU/TUMIDENT_RECIST1_1/TULAT/relationship> ;
    cosmos_sdtm:role <https://www.cdisc.org/cosmos/sdtm_v1.0/RoleEnum#Qualifier> .

<https://w3id.org/cdisc/cosmos/dss/TU/TUMIDENT_RECIST1_1/TULNKID> a cosmos_sdtm:SDTMVariable ;
    cosmos_sdtm:dataElementConceptId NCIT:C117436 ;
    cosmos_sdtm:isNonStandard false ;
    cosmos_sdtm:mandatoryValue false ;
    cosmos_sdtm:mandatoryVariable true ;
    cosmos_sdtm:name "TULNKID" ;
    cosmos_sdtm:originSource NCIT:C70793 ;
    cosmos_sdtm:originType NCIT:C170547 ;
    cosmos_sdtm:relationship <https://w3id.org/cdisc/cosmos/dss/TU/TUMIDENT_RECIST1_1/TULNKID/relationship> ;
    cosmos_sdtm:role <https://www.cdisc.org/cosmos/sdtm_v1.0/RoleEnum#Identifier> .

<https://w3id.org/cdisc/cosmos/dss/TU/TUMIDENT_RECIST1_1/TULOC> a cosmos_sdtm:SDTMVariable ;
    cosmos_sdtm:codelist NCIT:C74456 ;
    cosmos_sdtm:dataElementConceptId NCIT:C170500 ;
    cosmos_sdtm:isNonStandard false ;
    cosmos_sdtm:mandatoryValue false ;
    cosmos_sdtm:mandatoryVariable true ;
    cosmos_sdtm:name "TULOC" ;
    cosmos_sdtm:originSource NCIT:C25936 ;
    cosmos_sdtm:originType NCIT:C170548 ;
    cosmos_sdtm:relationship <https://w3id.org/cdisc/cosmos/dss/TU/TUMIDENT_RECIST1_1/TULOC/relationship> ;
    cosmos_sdtm:role <https://www.cdisc.org/cosmos/sdtm_v1.0/RoleEnum#Qualifier> .

<https://w3id.org/cdisc/cosmos/dss/TU/TUMIDENT_RECIST1_1/TULOCDTL> a cosmos_sdtm:SDTMVariable ;
    cosmos_sdtm:isNonStandard true ;
    cosmos_sdtm:mandatoryValue false ;
    cosmos_sdtm:mandatoryVariable false ;
    cosmos_sdtm:name "TULOCDTL" ;
    cosmos_sdtm:originSource NCIT:C25936 ;
    cosmos_sdtm:originType NCIT:C170548 ;
    cosmos_sdtm:relationship <https://w3id.org/cdisc/cosmos/dss/TU/TUMIDENT_RECIST1_1/TULOCDTL/relationship> ;
    cosmos_sdtm:role <https://www.cdisc.org/cosmos/sdtm_v1.0/RoleEnum#Qualifier> .

<https://w3id.org/cdisc/cosmos/dss/TU/TUMIDENT_RECIST1_1/TUMETHOD> a cosmos_sdtm:SDTMVariable ;
    cosmos_sdtm:codelist NCIT:C85492 ;
    cosmos_sdtm:comparator <https://www.cdisc.org/cosmos/sdtm_v1.0/ComparatorEnum#IN> ;
    cosmos_sdtm:dataElementConceptId NCIT:C82535 ;
    cosmos_sdtm:isNonStandard false ;
    cosmos_sdtm:mandatoryValue false ;
    cosmos_sdtm:mandatoryVariable true ;
    cosmos_sdtm:name "TUMETHOD" ;
    cosmos_sdtm:originSource NCIT:C25936 ;
    cosmos_sdtm:originType NCIT:C170548 ;
    cosmos_sdtm:relationship <https://w3id.org/cdisc/cosmos/dss/TU/TUMIDENT_RECIST1_1/TUMETHOD/relationship> ;
    cosmos_sdtm:role <https://www.cdisc.org/cosmos/sdtm_v1.0/RoleEnum#Qualifier> ;
    cosmos_sdtm:valueList "CALIPER MEASUREMENT METHOD",
        "CT SCAN",
        "ENDOSCOPY",
        "LYMPHANGIOGRAPHY",
        "MAMMOGRAPHY",
        "MRI",
        "NUCLEAR RADIOLOGY",
        "PET SCAN",
        "PET/CT SCAN",
        "PET/MRI SCAN",
        "PHOTOGRAPHY",
        "SCINTIGRAPHY",
        "TOTAL BODY RADIOGRAPHY",
        "ULTRASOUND",
        "X-RAY" .

<https://w3id.org/cdisc/cosmos/dss/TU/TUMIDENT_RECIST1_1/TUORRES> a cosmos_sdtm:SDTMVariable ;
    cosmos_sdtm:codelist NCIT:C123650 ;
    cosmos_sdtm:dataElementConceptId NCIT:C70856 ;
    cosmos_sdtm:dataType <https://www.cdisc.org/cosmos/sdtm_v1.0/SDTMVariableDataTypeEnum#text> ;
    cosmos_sdtm:isNonStandard false ;
    cosmos_sdtm:length 10 ;
    cosmos_sdtm:mandatoryValue false ;
    cosmos_sdtm:mandatoryVariable true ;
    cosmos_sdtm:name "TUORRES" ;
    cosmos_sdtm:originSource NCIT:C25936 ;
    cosmos_sdtm:originType NCIT:C170548 ;
    cosmos_sdtm:relationship <https://w3id.org/cdisc/cosmos/dss/TU/TUMIDENT_RECIST1_1/TUORRES/relationship> ;
    cosmos_sdtm:role <https://www.cdisc.org/cosmos/sdtm_v1.0/RoleEnum#Qualifier> ;
    cosmos_sdtm:valueList "NEW",
        "NON-TARGET",
        "TARGET" ;
    cosmos_sdtm:vlmTarget true .

<https://w3id.org/cdisc/cosmos/dss/TU/TUMIDENT_RECIST1_1/TUPRVIR> a cosmos_sdtm:SDTMVariable ;
    cosmos_sdtm:codelist NCIT:C66742 ;
    cosmos_sdtm:isNonStandard true ;
    cosmos_sdtm:mandatoryValue false ;
    cosmos_sdtm:mandatoryVariable false ;
    cosmos_sdtm:name "TUPRVIR" ;
    cosmos_sdtm:originSource NCIT:C25936 ;
    cosmos_sdtm:originType NCIT:C170548 ;
    cosmos_sdtm:relationship <https://w3id.org/cdisc/cosmos/dss/TU/TUMIDENT_RECIST1_1/TUPRVIR/relationship> ;
    cosmos_sdtm:role <https://www.cdisc.org/cosmos/sdtm_v1.0/RoleEnum#Qualifier> ;
    cosmos_sdtm:subsetCodelist "NY_NY" ;
    cosmos_sdtm:valueList "N",
        "Y" .

<https://w3id.org/cdisc/cosmos/dss/TU/TUMIDENT_RECIST1_1/TUPRVIRP> a cosmos_sdtm:SDTMVariable ;
    cosmos_sdtm:codelist NCIT:C66742 ;
    cosmos_sdtm:isNonStandard true ;
    cosmos_sdtm:mandatoryValue false ;
    cosmos_sdtm:mandatoryVariable false ;
    cosmos_sdtm:name "TUPRVIRP" ;
    cosmos_sdtm:originSource NCIT:C25936 ;
    cosmos_sdtm:originType NCIT:C170548 ;
    cosmos_sdtm:relationship <https://w3id.org/cdisc/cosmos/dss/TU/TUMIDENT_RECIST1_1/TUPRVIRP/relationship> ;
    cosmos_sdtm:role <https://www.cdisc.org/cosmos/sdtm_v1.0/RoleEnum#Qualifier> ;
    cosmos_sdtm:subsetCodelist "NY_NY" ;
    cosmos_sdtm:valueList "N",
        "Y" .

<https://w3id.org/cdisc/cosmos/dss/TU/TUMIDENT_RECIST1_1/TUREFID> a cosmos_sdtm:SDTMVariable ;
    cosmos_sdtm:dataElementConceptId NCIT:C117442 ;
    cosmos_sdtm:isNonStandard false ;
    cosmos_sdtm:mandatoryValue false ;
    cosmos_sdtm:mandatoryVariable true ;
    cosmos_sdtm:name "TUREFID" ;
    cosmos_sdtm:originSource NCIT:C70793 ;
    cosmos_sdtm:originType NCIT:C170547 ;
    cosmos_sdtm:relationship <https://w3id.org/cdisc/cosmos/dss/TU/TUMIDENT_RECIST1_1/TUREFID/relationship> ;
    cosmos_sdtm:role <https://www.cdisc.org/cosmos/sdtm_v1.0/RoleEnum#Identifier> .

<https://w3id.org/cdisc/cosmos/dss/TU/TUMIDENT_RECIST1_1/TUSTRESC> a cosmos_sdtm:SDTMVariable ;
    cosmos_sdtm:codelist NCIT:C123650 ;
    cosmos_sdtm:dataElementConceptId NCIT:C70856 ;
    cosmos_sdtm:dataType <https://www.cdisc.org/cosmos/sdtm_v1.0/SDTMVariableDataTypeEnum#text> ;
    cosmos_sdtm:isNonStandard false ;
    cosmos_sdtm:length 10 ;
    cosmos_sdtm:mandatoryValue false ;
    cosmos_sdtm:mandatoryVariable true ;
    cosmos_sdtm:name "TUSTRESC" ;
    cosmos_sdtm:originSource NCIT:C70793 ;
    cosmos_sdtm:originType NCIT:C170549 ;
    cosmos_sdtm:relationship <https://w3id.org/cdisc/cosmos/dss/TU/TUMIDENT_RECIST1_1/TUSTRESC/relationship> ;
    cosmos_sdtm:role <https://www.cdisc.org/cosmos/sdtm_v1.0/RoleEnum#Qualifier> ;
    cosmos_sdtm:valueList "NEW",
        "NON-TARGET",
        "TARGET" ;
    cosmos_sdtm:vlmTarget true .

<https://w3id.org/cdisc/cosmos/dss/TU/TUMIDENT_RECIST1_1/TUTEST> a cosmos_sdtm:SDTMVariable ;
    cosmos_sdtm:assignedTerm <https://w3id.org/cdisc/cosmos/dss/TU/TUMIDENT_RECIST1_1/TUTEST/assignedTerm> ;
    cosmos_sdtm:codelist NCIT:C96783 ;
    cosmos_sdtm:isNonStandard false ;
    cosmos_sdtm:mandatoryValue true ;
    cosmos_sdtm:mandatoryVariable true ;
    cosmos_sdtm:name "TUTEST" ;
    cosmos_sdtm:originSource NCIT:C70793 ;
    cosmos_sdtm:originType NCIT:C170547 ;
    cosmos_sdtm:relationship <https://w3id.org/cdisc/cosmos/dss/TU/TUMIDENT_RECIST1_1/TUTEST/relationship> ;
    cosmos_sdtm:role <https://www.cdisc.org/cosmos/sdtm_v1.0/RoleEnum#Qualifier> .

<https://w3id.org/cdisc/cosmos/dss/TU/TUMIDENT_RECIST1_1/TUTESTCD> a cosmos_sdtm:SDTMVariable ;
    cosmos_sdtm:assignedTerm <https://w3id.org/cdisc/cosmos/dss/TU/TUMIDENT_RECIST1_1/TUTESTCD/assignedTerm> ;
    cosmos_sdtm:codelist NCIT:C96784 ;
    cosmos_sdtm:comparator <https://www.cdisc.org/cosmos/sdtm_v1.0/ComparatorEnum#EQ> ;
    cosmos_sdtm:isNonStandard false ;
    cosmos_sdtm:mandatoryValue true ;
    cosmos_sdtm:mandatoryVariable true ;
    cosmos_sdtm:name "TUTESTCD" ;
    cosmos_sdtm:originSource NCIT:C70793 ;
    cosmos_sdtm:originType NCIT:C170547 ;
    cosmos_sdtm:relationship <https://w3id.org/cdisc/cosmos/dss/TU/TUMIDENT_RECIST1_1/TUTESTCD/relationship> ;
    cosmos_sdtm:role <https://www.cdisc.org/cosmos/sdtm_v1.0/RoleEnum#Topic> .

<https://w3id.org/cdisc/cosmos/dss/TU/TUSPLIT/TUDIR> a cosmos_sdtm:SDTMVariable ;
    cosmos_sdtm:codelist NCIT:C99074 ;
    cosmos_sdtm:dataElementConceptId NCIT:C54215 ;
    cosmos_sdtm:isNonStandard false ;
    cosmos_sdtm:mandatoryValue false ;
    cosmos_sdtm:mandatoryVariable false ;
    cosmos_sdtm:name "TUDIR" ;
    cosmos_sdtm:originSource NCIT:C25936 ;
    cosmos_sdtm:originType NCIT:C170548 ;
    cosmos_sdtm:relationship <https://w3id.org/cdisc/cosmos/dss/TU/TUSPLIT/TUDIR/relationship> ;
    cosmos_sdtm:role <https://www.cdisc.org/cosmos/sdtm_v1.0/RoleEnum#Qualifier> .

<https://w3id.org/cdisc/cosmos/dss/TU/TUSPLIT/TUDTC> a cosmos_sdtm:SDTMVariable ;
    cosmos_sdtm:dataElementConceptId NCIT:C82515 ;
    cosmos_sdtm:isNonStandard false ;
    cosmos_sdtm:mandatoryValue false ;
    cosmos_sdtm:mandatoryVariable true ;
    cosmos_sdtm:name "TUDTC" ;
    cosmos_sdtm:originSource NCIT:C70793 ;
    cosmos_sdtm:originType NCIT:C170548 ;
    cosmos_sdtm:relationship <https://w3id.org/cdisc/cosmos/dss/TU/TUSPLIT/TUDTC/relationship> ;
    cosmos_sdtm:role <https://www.cdisc.org/cosmos/sdtm_v1.0/RoleEnum#Timing> .

<https://w3id.org/cdisc/cosmos/dss/TU/TUSPLIT/TUEVAL> a cosmos_sdtm:SDTMVariable ;
    cosmos_sdtm:codelist NCIT:C78735 ;
    cosmos_sdtm:comparator <https://www.cdisc.org/cosmos/sdtm_v1.0/ComparatorEnum#IN> ;
    cosmos_sdtm:dataElementConceptId NCIT:C51824 ;
    cosmos_sdtm:isNonStandard false ;
    cosmos_sdtm:mandatoryValue false ;
    cosmos_sdtm:mandatoryVariable false ;
    cosmos_sdtm:name "TUEVAL" ;
    cosmos_sdtm:originSource NCIT:C70793 ;
    cosmos_sdtm:originType NCIT:C170547 ;
    cosmos_sdtm:relationship <https://w3id.org/cdisc/cosmos/dss/TU/TUSPLIT/TUEVAL/relationship> ;
    cosmos_sdtm:role <https://www.cdisc.org/cosmos/sdtm_v1.0/RoleEnum#Qualifier> ;
    cosmos_sdtm:valueList "INDEPENDENT ASSESSOR",
        "INVESTIGATOR",
        "RADIOLOGIST" .

<https://w3id.org/cdisc/cosmos/dss/TU/TUSPLIT/TUEVALID> a cosmos_sdtm:SDTMVariable ;
    cosmos_sdtm:codelist NCIT:C96777 ;
    cosmos_sdtm:comparator <https://www.cdisc.org/cosmos/sdtm_v1.0/ComparatorEnum#IN> ;
    cosmos_sdtm:dataElementConceptId NCIT:C117043 ;
    cosmos_sdtm:isNonStandard false ;
    cosmos_sdtm:mandatoryValue false ;
    cosmos_sdtm:mandatoryVariable false ;
    cosmos_sdtm:name "TUEVALID" ;
    cosmos_sdtm:originSource NCIT:C68608 ;
    cosmos_sdtm:originType NCIT:C170548 ;
    cosmos_sdtm:relationship <https://w3id.org/cdisc/cosmos/dss/TU/TUSPLIT/TUEVALID/relationship> ;
    cosmos_sdtm:role <https://www.cdisc.org/cosmos/sdtm_v1.0/RoleEnum#Qualifier> ;
    cosmos_sdtm:valueList "RADIOLOGIST 1",
        "RADIOLOGIST 2",
        "RADIOLOGIST 3" .

<https://w3id.org/cdisc/cosmos/dss/TU/TUSPLIT/TULAT> a cosmos_sdtm:SDTMVariable ;
    cosmos_sdtm:codelist NCIT:C99073 ;
    cosmos_sdtm:dataElementConceptId NCIT:C25185 ;
    cosmos_sdtm:isNonStandard false ;
    cosmos_sdtm:mandatoryValue false ;
    cosmos_sdtm:mandatoryVariable false ;
    cosmos_sdtm:name "TULAT" ;
    cosmos_sdtm:originSource NCIT:C25936 ;
    cosmos_sdtm:originType NCIT:C170548 ;
    cosmos_sdtm:relationship <https://w3id.org/cdisc/cosmos/dss/TU/TUSPLIT/TULAT/relationship> ;
    cosmos_sdtm:role <https://www.cdisc.org/cosmos/sdtm_v1.0/RoleEnum#Qualifier> .

<https://w3id.org/cdisc/cosmos/dss/TU/TUSPLIT/TULNKID> a cosmos_sdtm:SDTMVariable ;
    cosmos_sdtm:dataElementConceptId NCIT:C117436 ;
    cosmos_sdtm:isNonStandard false ;
    cosmos_sdtm:mandatoryValue false ;
    cosmos_sdtm:mandatoryVariable true ;
    cosmos_sdtm:name "TULNKID" ;
    cosmos_sdtm:originSource NCIT:C70793 ;
    cosmos_sdtm:originType NCIT:C170547 ;
    cosmos_sdtm:relationship <https://w3id.org/cdisc/cosmos/dss/TU/TUSPLIT/TULNKID/relationship> ;
    cosmos_sdtm:role <https://www.cdisc.org/cosmos/sdtm_v1.0/RoleEnum#Identifier> .

<https://w3id.org/cdisc/cosmos/dss/TU/TUSPLIT/TULOC> a cosmos_sdtm:SDTMVariable ;
    cosmos_sdtm:codelist NCIT:C74456 ;
    cosmos_sdtm:dataElementConceptId NCIT:C170500 ;
    cosmos_sdtm:isNonStandard false ;
    cosmos_sdtm:mandatoryValue false ;
    cosmos_sdtm:mandatoryVariable true ;
    cosmos_sdtm:name "TULOC" ;
    cosmos_sdtm:originSource NCIT:C25936 ;
    cosmos_sdtm:originType NCIT:C170548 ;
    cosmos_sdtm:relationship <https://w3id.org/cdisc/cosmos/dss/TU/TUSPLIT/TULOC/relationship> ;
    cosmos_sdtm:role <https://www.cdisc.org/cosmos/sdtm_v1.0/RoleEnum#Qualifier> .

<https://w3id.org/cdisc/cosmos/dss/TU/TUSPLIT/TUMETHOD> a cosmos_sdtm:SDTMVariable ;
    cosmos_sdtm:codelist NCIT:C85492 ;
    cosmos_sdtm:comparator <https://www.cdisc.org/cosmos/sdtm_v1.0/ComparatorEnum#IN> ;
    cosmos_sdtm:dataElementConceptId NCIT:C82535 ;
    cosmos_sdtm:isNonStandard false ;
    cosmos_sdtm:mandatoryValue false ;
    cosmos_sdtm:mandatoryVariable true ;
    cosmos_sdtm:name "TUMETHOD" ;
    cosmos_sdtm:originSource NCIT:C25936 ;
    cosmos_sdtm:originType NCIT:C170548 ;
    cosmos_sdtm:relationship <https://w3id.org/cdisc/cosmos/dss/TU/TUSPLIT/TUMETHOD/relationship> ;
    cosmos_sdtm:role <https://www.cdisc.org/cosmos/sdtm_v1.0/RoleEnum#Qualifier> ;
    cosmos_sdtm:valueList "CALIPER MEASUREMENT METHOD",
        "CT SCAN",
        "ENDOSCOPY",
        "LYMPHANGIOGRAPHY",
        "MAMMOGRAPHY",
        "MRI",
        "NUCLEAR RADIOLOGY",
        "PET SCAN",
        "PET/CT SCAN",
        "PET/MRI SCAN",
        "PHOTOGRAPHY",
        "SCINTIGRAPHY",
        "TOTAL BODY RADIOGRAPHY",
        "ULTRASOUND",
        "X-RAY" .

<https://w3id.org/cdisc/cosmos/dss/TU/TUSPLIT/TUORRES> a cosmos_sdtm:SDTMVariable ;
    cosmos_sdtm:assignedTerm <https://w3id.org/cdisc/cosmos/dss/TU/TUSPLIT/TUORRES/assignedTerm> ;
    cosmos_sdtm:codelist NCIT:C123650 ;
    cosmos_sdtm:dataElementConceptId NCIT:C70856 ;
    cosmos_sdtm:dataType <https://www.cdisc.org/cosmos/sdtm_v1.0/SDTMVariableDataTypeEnum#text> ;
    cosmos_sdtm:isNonStandard false ;
    cosmos_sdtm:length 24 ;
    cosmos_sdtm:mandatoryValue false ;
    cosmos_sdtm:mandatoryVariable true ;
    cosmos_sdtm:name "TUORRES" ;
    cosmos_sdtm:originSource NCIT:C25936 ;
    cosmos_sdtm:originType NCIT:C170548 ;
    cosmos_sdtm:relationship <https://w3id.org/cdisc/cosmos/dss/TU/TUSPLIT/TUORRES/relationship> ;
    cosmos_sdtm:role <https://www.cdisc.org/cosmos/sdtm_v1.0/RoleEnum#Qualifier> ;
    cosmos_sdtm:vlmTarget true .

<https://w3id.org/cdisc/cosmos/dss/TU/TUSPLIT/TUREFID> a cosmos_sdtm:SDTMVariable ;
    cosmos_sdtm:dataElementConceptId NCIT:C117442 ;
    cosmos_sdtm:isNonStandard false ;
    cosmos_sdtm:mandatoryValue false ;
    cosmos_sdtm:mandatoryVariable true ;
    cosmos_sdtm:name "TUREFID" ;
    cosmos_sdtm:originSource NCIT:C70793 ;
    cosmos_sdtm:originType NCIT:C170547 ;
    cosmos_sdtm:relationship <https://w3id.org/cdisc/cosmos/dss/TU/TUSPLIT/TUREFID/relationship> ;
    cosmos_sdtm:role <https://www.cdisc.org/cosmos/sdtm_v1.0/RoleEnum#Identifier> .

<https://w3id.org/cdisc/cosmos/dss/TU/TUSPLIT/TUSTRESC> a cosmos_sdtm:SDTMVariable ;
    cosmos_sdtm:assignedTerm <https://w3id.org/cdisc/cosmos/dss/TU/TUSPLIT/TUSTRESC/assignedTerm> ;
    cosmos_sdtm:codelist NCIT:C123650 ;
    cosmos_sdtm:dataElementConceptId NCIT:C70856 ;
    cosmos_sdtm:dataType <https://www.cdisc.org/cosmos/sdtm_v1.0/SDTMVariableDataTypeEnum#text> ;
    cosmos_sdtm:isNonStandard false ;
    cosmos_sdtm:length 24 ;
    cosmos_sdtm:mandatoryValue false ;
    cosmos_sdtm:mandatoryVariable true ;
    cosmos_sdtm:name "TUSTRESC" ;
    cosmos_sdtm:originSource NCIT:C70793 ;
    cosmos_sdtm:originType NCIT:C170549 ;
    cosmos_sdtm:relationship <https://w3id.org/cdisc/cosmos/dss/TU/TUSPLIT/TUSTRESC/relationship> ;
    cosmos_sdtm:role <https://www.cdisc.org/cosmos/sdtm_v1.0/RoleEnum#Qualifier> ;
    cosmos_sdtm:vlmTarget true .

<https://w3id.org/cdisc/cosmos/dss/TU/TUSPLIT/TUTEST> a cosmos_sdtm:SDTMVariable ;
    cosmos_sdtm:assignedTerm <https://w3id.org/cdisc/cosmos/dss/TU/TUSPLIT/TUTEST/assignedTerm> ;
    cosmos_sdtm:codelist NCIT:C96783 ;
    cosmos_sdtm:isNonStandard false ;
    cosmos_sdtm:mandatoryValue true ;
    cosmos_sdtm:mandatoryVariable true ;
    cosmos_sdtm:name "TUTEST" ;
    cosmos_sdtm:originSource NCIT:C70793 ;
    cosmos_sdtm:originType NCIT:C170547 ;
    cosmos_sdtm:relationship <https://w3id.org/cdisc/cosmos/dss/TU/TUSPLIT/TUTEST/relationship> ;
    cosmos_sdtm:role <https://www.cdisc.org/cosmos/sdtm_v1.0/RoleEnum#Qualifier> .

<https://w3id.org/cdisc/cosmos/dss/TU/TUSPLIT/TUTESTCD> a cosmos_sdtm:SDTMVariable ;
    cosmos_sdtm:assignedTerm <https://w3id.org/cdisc/cosmos/dss/TU/TUSPLIT/TUTESTCD/assignedTerm> ;
    cosmos_sdtm:codelist NCIT:C96784 ;
    cosmos_sdtm:comparator <https://www.cdisc.org/cosmos/sdtm_v1.0/ComparatorEnum#EQ> ;
    cosmos_sdtm:isNonStandard false ;
    cosmos_sdtm:mandatoryValue true ;
    cosmos_sdtm:mandatoryVariable true ;
    cosmos_sdtm:name "TUTESTCD" ;
    cosmos_sdtm:originSource NCIT:C70793 ;
    cosmos_sdtm:originType NCIT:C170547 ;
    cosmos_sdtm:relationship <https://w3id.org/cdisc/cosmos/dss/TU/TUSPLIT/TUTESTCD/relationship> ;
    cosmos_sdtm:role <https://www.cdisc.org/cosmos/sdtm_v1.0/RoleEnum#Topic> .

<https://w3id.org/cdisc/cosmos/dss/TU/TUSPLIT_RECIST1_1/TUDIR> a cosmos_sdtm:SDTMVariable ;
    cosmos_sdtm:codelist NCIT:C99074 ;
    cosmos_sdtm:dataElementConceptId NCIT:C54215 ;
    cosmos_sdtm:isNonStandard false ;
    cosmos_sdtm:mandatoryValue false ;
    cosmos_sdtm:mandatoryVariable false ;
    cosmos_sdtm:name "TUDIR" ;
    cosmos_sdtm:originSource NCIT:C25936 ;
    cosmos_sdtm:originType NCIT:C170548 ;
    cosmos_sdtm:relationship <https://w3id.org/cdisc/cosmos/dss/TU/TUSPLIT_RECIST1_1/TUDIR/relationship> ;
    cosmos_sdtm:role <https://www.cdisc.org/cosmos/sdtm_v1.0/RoleEnum#Qualifier> .

<https://w3id.org/cdisc/cosmos/dss/TU/TUSPLIT_RECIST1_1/TUDTC> a cosmos_sdtm:SDTMVariable ;
    cosmos_sdtm:dataElementConceptId NCIT:C82515 ;
    cosmos_sdtm:isNonStandard false ;
    cosmos_sdtm:mandatoryValue false ;
    cosmos_sdtm:mandatoryVariable true ;
    cosmos_sdtm:name "TUDTC" ;
    cosmos_sdtm:originSource NCIT:C25936 ;
    cosmos_sdtm:originType NCIT:C170548 ;
    cosmos_sdtm:relationship <https://w3id.org/cdisc/cosmos/dss/TU/TUSPLIT_RECIST1_1/TUDTC/relationship> ;
    cosmos_sdtm:role <https://www.cdisc.org/cosmos/sdtm_v1.0/RoleEnum#Timing> .

<https://w3id.org/cdisc/cosmos/dss/TU/TUSPLIT_RECIST1_1/TUEVAL> a cosmos_sdtm:SDTMVariable ;
    cosmos_sdtm:codelist NCIT:C78735 ;
    cosmos_sdtm:comparator <https://www.cdisc.org/cosmos/sdtm_v1.0/ComparatorEnum#IN> ;
    cosmos_sdtm:dataElementConceptId NCIT:C51824 ;
    cosmos_sdtm:isNonStandard false ;
    cosmos_sdtm:mandatoryValue false ;
    cosmos_sdtm:mandatoryVariable false ;
    cosmos_sdtm:name "TUEVAL" ;
    cosmos_sdtm:originSource NCIT:C70793 ;
    cosmos_sdtm:originType NCIT:C170547 ;
    cosmos_sdtm:relationship <https://w3id.org/cdisc/cosmos/dss/TU/TUSPLIT_RECIST1_1/TUEVAL/relationship> ;
    cosmos_sdtm:role <https://www.cdisc.org/cosmos/sdtm_v1.0/RoleEnum#Qualifier> ;
    cosmos_sdtm:valueList "INDEPENDENT ASSESSOR",
        "INVESTIGATOR",
        "RADIOLOGIST" .

<https://w3id.org/cdisc/cosmos/dss/TU/TUSPLIT_RECIST1_1/TUEVALID> a cosmos_sdtm:SDTMVariable ;
    cosmos_sdtm:codelist NCIT:C96777 ;
    cosmos_sdtm:comparator <https://www.cdisc.org/cosmos/sdtm_v1.0/ComparatorEnum#IN> ;
    cosmos_sdtm:dataElementConceptId NCIT:C117043 ;
    cosmos_sdtm:isNonStandard false ;
    cosmos_sdtm:mandatoryValue false ;
    cosmos_sdtm:mandatoryVariable false ;
    cosmos_sdtm:name "TUEVALID" ;
    cosmos_sdtm:originSource NCIT:C68608 ;
    cosmos_sdtm:originType NCIT:C170548 ;
    cosmos_sdtm:relationship <https://w3id.org/cdisc/cosmos/dss/TU/TUSPLIT_RECIST1_1/TUEVALID/relationship> ;
    cosmos_sdtm:role <https://www.cdisc.org/cosmos/sdtm_v1.0/RoleEnum#Qualifier> ;
    cosmos_sdtm:valueList "RADIOLOGIST 1",
        "RADIOLOGIST 2",
        "RADIOLOGIST 3" .

<https://w3id.org/cdisc/cosmos/dss/TU/TUSPLIT_RECIST1_1/TULAT> a cosmos_sdtm:SDTMVariable ;
    cosmos_sdtm:codelist NCIT:C99073 ;
    cosmos_sdtm:dataElementConceptId NCIT:C25185 ;
    cosmos_sdtm:isNonStandard false ;
    cosmos_sdtm:mandatoryValue false ;
    cosmos_sdtm:mandatoryVariable false ;
    cosmos_sdtm:name "TULAT" ;
    cosmos_sdtm:originSource NCIT:C25936 ;
    cosmos_sdtm:originType NCIT:C170548 ;
    cosmos_sdtm:relationship <https://w3id.org/cdisc/cosmos/dss/TU/TUSPLIT_RECIST1_1/TULAT/relationship> ;
    cosmos_sdtm:role <https://www.cdisc.org/cosmos/sdtm_v1.0/RoleEnum#Qualifier> .

<https://w3id.org/cdisc/cosmos/dss/TU/TUSPLIT_RECIST1_1/TULNKID> a cosmos_sdtm:SDTMVariable ;
    cosmos_sdtm:dataElementConceptId NCIT:C117436 ;
    cosmos_sdtm:isNonStandard false ;
    cosmos_sdtm:mandatoryValue false ;
    cosmos_sdtm:mandatoryVariable true ;
    cosmos_sdtm:name "TULNKID" ;
    cosmos_sdtm:originSource NCIT:C70793 ;
    cosmos_sdtm:originType NCIT:C170547 ;
    cosmos_sdtm:relationship <https://w3id.org/cdisc/cosmos/dss/TU/TUSPLIT_RECIST1_1/TULNKID/relationship> ;
    cosmos_sdtm:role <https://www.cdisc.org/cosmos/sdtm_v1.0/RoleEnum#Identifier> .

<https://w3id.org/cdisc/cosmos/dss/TU/TUSPLIT_RECIST1_1/TULOC> a cosmos_sdtm:SDTMVariable ;
    cosmos_sdtm:codelist NCIT:C74456 ;
    cosmos_sdtm:dataElementConceptId NCIT:C170500 ;
    cosmos_sdtm:isNonStandard false ;
    cosmos_sdtm:mandatoryValue false ;
    cosmos_sdtm:mandatoryVariable true ;
    cosmos_sdtm:name "TULOC" ;
    cosmos_sdtm:originSource NCIT:C25936 ;
    cosmos_sdtm:originType NCIT:C170548 ;
    cosmos_sdtm:relationship <https://w3id.org/cdisc/cosmos/dss/TU/TUSPLIT_RECIST1_1/TULOC/relationship> ;
    cosmos_sdtm:role <https://www.cdisc.org/cosmos/sdtm_v1.0/RoleEnum#Qualifier> .

<https://w3id.org/cdisc/cosmos/dss/TU/TUSPLIT_RECIST1_1/TULOCDTL> a cosmos_sdtm:SDTMVariable ;
    cosmos_sdtm:isNonStandard true ;
    cosmos_sdtm:mandatoryValue false ;
    cosmos_sdtm:mandatoryVariable false ;
    cosmos_sdtm:name "TULOCDTL" ;
    cosmos_sdtm:originSource NCIT:C25936 ;
    cosmos_sdtm:originType NCIT:C170548 ;
    cosmos_sdtm:relationship <https://w3id.org/cdisc/cosmos/dss/TU/TUSPLIT_RECIST1_1/TULOCDTL/relationship> ;
    cosmos_sdtm:role <https://www.cdisc.org/cosmos/sdtm_v1.0/RoleEnum#Qualifier> .

<https://w3id.org/cdisc/cosmos/dss/TU/TUSPLIT_RECIST1_1/TUMETHOD> a cosmos_sdtm:SDTMVariable ;
    cosmos_sdtm:codelist NCIT:C85492 ;
    cosmos_sdtm:comparator <https://www.cdisc.org/cosmos/sdtm_v1.0/ComparatorEnum#IN> ;
    cosmos_sdtm:dataElementConceptId NCIT:C82535 ;
    cosmos_sdtm:isNonStandard false ;
    cosmos_sdtm:mandatoryValue false ;
    cosmos_sdtm:mandatoryVariable true ;
    cosmos_sdtm:name "TUMETHOD" ;
    cosmos_sdtm:originSource NCIT:C25936 ;
    cosmos_sdtm:originType NCIT:C170548 ;
    cosmos_sdtm:relationship <https://w3id.org/cdisc/cosmos/dss/TU/TUSPLIT_RECIST1_1/TUMETHOD/relationship> ;
    cosmos_sdtm:role <https://www.cdisc.org/cosmos/sdtm_v1.0/RoleEnum#Qualifier> ;
    cosmos_sdtm:valueList "CALIPER MEASUREMENT METHOD",
        "CT SCAN",
        "ENDOSCOPY",
        "LYMPHANGIOGRAPHY",
        "MAMMOGRAPHY",
        "MRI",
        "NUCLEAR RADIOLOGY",
        "PET SCAN",
        "PET/CT SCAN",
        "PET/MRI SCAN",
        "PHOTOGRAPHY",
        "SCINTIGRAPHY",
        "TOTAL BODY RADIOGRAPHY",
        "ULTRASOUND",
        "X-RAY" .

<https://w3id.org/cdisc/cosmos/dss/TU/TUSPLIT_RECIST1_1/TUORRES> a cosmos_sdtm:SDTMVariable ;
    cosmos_sdtm:assignedTerm <https://w3id.org/cdisc/cosmos/dss/TU/TUSPLIT_RECIST1_1/TUORRES/assignedTerm> ;
    cosmos_sdtm:codelist NCIT:C123650 ;
    cosmos_sdtm:dataElementConceptId NCIT:C70856 ;
    cosmos_sdtm:dataType <https://www.cdisc.org/cosmos/sdtm_v1.0/SDTMVariableDataTypeEnum#text> ;
    cosmos_sdtm:isNonStandard false ;
    cosmos_sdtm:length 10 ;
    cosmos_sdtm:mandatoryValue false ;
    cosmos_sdtm:mandatoryVariable true ;
    cosmos_sdtm:name "TUORRES" ;
    cosmos_sdtm:originSource NCIT:C25936 ;
    cosmos_sdtm:originType NCIT:C170548 ;
    cosmos_sdtm:relationship <https://w3id.org/cdisc/cosmos/dss/TU/TUSPLIT_RECIST1_1/TUORRES/relationship> ;
    cosmos_sdtm:role <https://www.cdisc.org/cosmos/sdtm_v1.0/RoleEnum#Qualifier> ;
    cosmos_sdtm:vlmTarget true .

<https://w3id.org/cdisc/cosmos/dss/TU/TUSPLIT_RECIST1_1/TUREFID> a cosmos_sdtm:SDTMVariable ;
    cosmos_sdtm:dataElementConceptId NCIT:C117442 ;
    cosmos_sdtm:isNonStandard false ;
    cosmos_sdtm:mandatoryValue false ;
    cosmos_sdtm:mandatoryVariable true ;
    cosmos_sdtm:name "TUREFID" ;
    cosmos_sdtm:originSource NCIT:C70793 ;
    cosmos_sdtm:originType NCIT:C170547 ;
    cosmos_sdtm:relationship <https://w3id.org/cdisc/cosmos/dss/TU/TUSPLIT_RECIST1_1/TUREFID/relationship> ;
    cosmos_sdtm:role <https://www.cdisc.org/cosmos/sdtm_v1.0/RoleEnum#Identifier> .

<https://w3id.org/cdisc/cosmos/dss/TU/TUSPLIT_RECIST1_1/TUSTRESC> a cosmos_sdtm:SDTMVariable ;
    cosmos_sdtm:assignedTerm <https://w3id.org/cdisc/cosmos/dss/TU/TUSPLIT_RECIST1_1/TUSTRESC/assignedTerm> ;
    cosmos_sdtm:codelist NCIT:C123650 ;
    cosmos_sdtm:dataElementConceptId NCIT:C70856 ;
    cosmos_sdtm:dataType <https://www.cdisc.org/cosmos/sdtm_v1.0/SDTMVariableDataTypeEnum#text> ;
    cosmos_sdtm:isNonStandard false ;
    cosmos_sdtm:length 10 ;
    cosmos_sdtm:mandatoryValue false ;
    cosmos_sdtm:mandatoryVariable true ;
    cosmos_sdtm:name "TUSTRESC" ;
    cosmos_sdtm:originSource NCIT:C70793 ;
    cosmos_sdtm:originType NCIT:C170549 ;
    cosmos_sdtm:relationship <https://w3id.org/cdisc/cosmos/dss/TU/TUSPLIT_RECIST1_1/TUSTRESC/relationship> ;
    cosmos_sdtm:role <https://www.cdisc.org/cosmos/sdtm_v1.0/RoleEnum#Qualifier> ;
    cosmos_sdtm:vlmTarget true .

<https://w3id.org/cdisc/cosmos/dss/TU/TUSPLIT_RECIST1_1/TUTEST> a cosmos_sdtm:SDTMVariable ;
    cosmos_sdtm:assignedTerm <https://w3id.org/cdisc/cosmos/dss/TU/TUSPLIT_RECIST1_1/TUTEST/assignedTerm> ;
    cosmos_sdtm:codelist NCIT:C96783 ;
    cosmos_sdtm:isNonStandard false ;
    cosmos_sdtm:mandatoryValue true ;
    cosmos_sdtm:mandatoryVariable true ;
    cosmos_sdtm:name "TUTEST" ;
    cosmos_sdtm:originSource NCIT:C70793 ;
    cosmos_sdtm:originType NCIT:C170547 ;
    cosmos_sdtm:relationship <https://w3id.org/cdisc/cosmos/dss/TU/TUSPLIT_RECIST1_1/TUTEST/relationship> ;
    cosmos_sdtm:role <https://www.cdisc.org/cosmos/sdtm_v1.0/RoleEnum#Qualifier> .

<https://w3id.org/cdisc/cosmos/dss/TU/TUSPLIT_RECIST1_1/TUTESTCD> a cosmos_sdtm:SDTMVariable ;
    cosmos_sdtm:assignedTerm <https://w3id.org/cdisc/cosmos/dss/TU/TUSPLIT_RECIST1_1/TUTESTCD/assignedTerm> ;
    cosmos_sdtm:codelist NCIT:C96784 ;
    cosmos_sdtm:comparator <https://www.cdisc.org/cosmos/sdtm_v1.0/ComparatorEnum#EQ> ;
    cosmos_sdtm:isNonStandard false ;
    cosmos_sdtm:mandatoryValue true ;
    cosmos_sdtm:mandatoryVariable true ;
    cosmos_sdtm:name "TUTESTCD" ;
    cosmos_sdtm:originSource NCIT:C70793 ;
    cosmos_sdtm:originType NCIT:C170547 ;
    cosmos_sdtm:relationship <https://w3id.org/cdisc/cosmos/dss/TU/TUSPLIT_RECIST1_1/TUTESTCD/relationship> ;
    cosmos_sdtm:role <https://www.cdisc.org/cosmos/sdtm_v1.0/RoleEnum#Topic> .

NCIT:C74456 a cosmos_sdtm:CodeList ;
    dcterms:identifier "C74456" ;
    skos:exactMatch <http://ncicb.nci.nih.gov/xml/owl/EVS/Thesaurus.owl#C74456> ;
    cosmos_sdtm:submissionValue "LOC" .

NCIT:C85492 a cosmos_sdtm:CodeList ;
    dcterms:identifier "C85492" ;
    skos:exactMatch <http://ncicb.nci.nih.gov/xml/owl/EVS/Thesaurus.owl#C85492> ;
    cosmos_sdtm:submissionValue "METHOD" .

NCIT:C99073 a cosmos_sdtm:CodeList ;
    dcterms:identifier "C99073" ;
    skos:exactMatch <http://ncicb.nci.nih.gov/xml/owl/EVS/Thesaurus.owl#C99073> ;
    cosmos_sdtm:submissionValue "LAT" .

NCIT:C99074 a cosmos_sdtm:CodeList ;
    dcterms:identifier "C99074" ;
    skos:exactMatch <http://ncicb.nci.nih.gov/xml/owl/EVS/Thesaurus.owl#C99074> ;
    cosmos_sdtm:submissionValue "DIR" .

NCIT:C96777 a cosmos_sdtm:CodeList ;
    dcterms:identifier "C96777" ;
    skos:exactMatch <http://ncicb.nci.nih.gov/xml/owl/EVS/Thesaurus.owl#C96777> ;
    cosmos_sdtm:submissionValue "MEDEVAL" .

NCIT:C78735 a cosmos_sdtm:CodeList ;
    dcterms:identifier "C78735" ;
    skos:exactMatch <http://ncicb.nci.nih.gov/xml/owl/EVS/Thesaurus.owl#C78735> ;
    cosmos_sdtm:submissionValue "EVAL" .

NCIT:C96783 a cosmos_sdtm:CodeList ;
    dcterms:identifier "C96783" ;
    skos:exactMatch <http://ncicb.nci.nih.gov/xml/owl/EVS/Thesaurus.owl#C96783> ;
    cosmos_sdtm:submissionValue "TUTEST" .

NCIT:C96784 a cosmos_sdtm:CodeList ;
    dcterms:identifier "C96784" ;
    skos:exactMatch <http://ncicb.nci.nih.gov/xml/owl/EVS/Thesaurus.owl#C96784> ;
    cosmos_sdtm:submissionValue "TUTESTCD" .

NCIT:C123650 a cosmos_sdtm:CodeList ;
    dcterms:identifier "C123650" ;
    skos:exactMatch <http://ncicb.nci.nih.gov/xml/owl/EVS/Thesaurus.owl#C123650> ;
    cosmos_sdtm:submissionValue "TUIDRS" .

NCIT:C66742 a cosmos_sdtm:CodeList ;
    dcterms:identifier "C66742" ;
    skos:exactMatch <http://ncicb.nci.nih.gov/xml/owl/EVS/Thesaurus.owl#C66742> ;
    cosmos_sdtm:submissionValue "NY" .

