@prefix NCIT: <http://purl.obolibrary.org/obo/NCIT_> .
@prefix cosmos_sdtm: <https://www.cdisc.org/cosmos/sdtm_v1.0/> .
@prefix dcterms: <http://purl.org/dc/terms/> .
@prefix owl: <http://www.w3.org/2002/07/owl#> .
@prefix rdf: <http://www.w3.org/1999/02/22-rdf-syntax-ns#> .
@prefix rdfs: <http://www.w3.org/2000/01/rdf-schema#> .
@prefix skos: <http://www.w3.org/2004/02/skos/core#> .
@prefix xsd: <http://www.w3.org/2001/XMLSchema#> .

<https://w3id.org/cdisc/cosmos/dss/RE> a owl:Ontology ;
    rdfs:label "CDISC COSMoS Dataset Specializations, RE (instances)" ;
    dcterms:identifier "2026-07-14" ;
    dcterms:source <https://raw.githubusercontent.com/cdisc-org/COSMoS/031429b1d14823721991cd23ee88a11616686ce3/export/cdisc_sdtm_dataset_specializations_latest.csv> ;
    rdfs:comment "Dataset Specialization instances for domain RE, rendered from the pinned COSMoS export. Variable order is the export's row order, carried as rdf:_n membership beside the variables edges. length and significantDigits are cast from the export's decimal form to integer; packageType is not in the export and is set to the enum's single value. A biomedicalConceptId or dataElementConceptId that resolves to no node is carried as the published string. The concept nodes those edges reach are declared in the Biomedical Concept instance graph, which is not imported. Draft - not a normative CDISC artifact." ;
    owl:imports <https://w3id.org/cdisc/cosmos/sdtm/> ;
    owl:versionIRI <https://w3id.org/cdisc/cosmos/dss/RE/0.4.0> ;
    owl:versionInfo "v0.4.0" .

<https://w3id.org/cdisc/cosmos/dss/RE/ADDRELF_RE> a cosmos_sdtm:SDTMGroup ;
    dcterms:identifier "ADDRELF_RE" ;
    rdf:_1 <https://w3id.org/cdisc/cosmos/dss/RE/ADDRELF_RE/RETESTCD> ;
    rdf:_2 <https://w3id.org/cdisc/cosmos/dss/RE/ADDRELF_RE/RETEST> ;
    rdf:_3 <https://w3id.org/cdisc/cosmos/dss/RE/ADDRELF_RE/REORRES> ;
    rdf:_4 <https://w3id.org/cdisc/cosmos/dss/RE/ADDRELF_RE/RESTRESC> ;
    rdf:_5 <https://w3id.org/cdisc/cosmos/dss/RE/ADDRELF_RE/REDTC> ;
    cosmos_sdtm:biomedicalConceptId NCIT:C189634 ;
    cosmos_sdtm:domain "RE" ;
    cosmos_sdtm:packageDate "2026-05-26"^^xsd:date ;
    cosmos_sdtm:packageType <https://www.cdisc.org/cosmos/sdtm_v1.0/PackageTypeEnum#sdtm> ;
    cosmos_sdtm:sdtmigStartVersion "3-4" ;
    cosmos_sdtm:shortName "Additional Disease-Related Findings (RE)" ;
    cosmos_sdtm:source "RE.RETESTCD" ;
    cosmos_sdtm:variables <https://w3id.org/cdisc/cosmos/dss/RE/ADDRELF_RE/REDTC>,
        <https://w3id.org/cdisc/cosmos/dss/RE/ADDRELF_RE/REORRES>,
        <https://w3id.org/cdisc/cosmos/dss/RE/ADDRELF_RE/RESTRESC>,
        <https://w3id.org/cdisc/cosmos/dss/RE/ADDRELF_RE/RETEST>,
        <https://w3id.org/cdisc/cosmos/dss/RE/ADDRELF_RE/RETESTCD> .

<https://w3id.org/cdisc/cosmos/dss/RE/AIRTRAP_RE> a cosmos_sdtm:SDTMGroup ;
    dcterms:identifier "AIRTRAP_RE" ;
    rdf:_1 <https://w3id.org/cdisc/cosmos/dss/RE/AIRTRAP_RE/RETESTCD> ;
    rdf:_2 <https://w3id.org/cdisc/cosmos/dss/RE/AIRTRAP_RE/RETEST> ;
    rdf:_3 <https://w3id.org/cdisc/cosmos/dss/RE/AIRTRAP_RE/REORRES> ;
    rdf:_4 <https://w3id.org/cdisc/cosmos/dss/RE/AIRTRAP_RE/REORRESU> ;
    rdf:_5 <https://w3id.org/cdisc/cosmos/dss/RE/AIRTRAP_RE/RESTRESC> ;
    rdf:_6 <https://w3id.org/cdisc/cosmos/dss/RE/AIRTRAP_RE/RESTRESN> ;
    rdf:_7 <https://w3id.org/cdisc/cosmos/dss/RE/AIRTRAP_RE/RESTRESU> ;
    rdf:_8 <https://w3id.org/cdisc/cosmos/dss/RE/AIRTRAP_RE/REDTC> ;
    cosmos_sdtm:biomedicalConceptId NCIT:C170620 ;
    cosmos_sdtm:domain "RE" ;
    cosmos_sdtm:packageDate "2026-05-26"^^xsd:date ;
    cosmos_sdtm:packageType <https://www.cdisc.org/cosmos/sdtm_v1.0/PackageTypeEnum#sdtm> ;
    cosmos_sdtm:sdtmigStartVersion "3-4" ;
    cosmos_sdtm:shortName "Air Trapping (RE)" ;
    cosmos_sdtm:source "RE.RETESTCD" ;
    cosmos_sdtm:variables <https://w3id.org/cdisc/cosmos/dss/RE/AIRTRAP_RE/REDTC>,
        <https://w3id.org/cdisc/cosmos/dss/RE/AIRTRAP_RE/REORRES>,
        <https://w3id.org/cdisc/cosmos/dss/RE/AIRTRAP_RE/REORRESU>,
        <https://w3id.org/cdisc/cosmos/dss/RE/AIRTRAP_RE/RESTRESC>,
        <https://w3id.org/cdisc/cosmos/dss/RE/AIRTRAP_RE/RESTRESN>,
        <https://w3id.org/cdisc/cosmos/dss/RE/AIRTRAP_RE/RESTRESU>,
        <https://w3id.org/cdisc/cosmos/dss/RE/AIRTRAP_RE/RETEST>,
        <https://w3id.org/cdisc/cosmos/dss/RE/AIRTRAP_RE/RETESTCD> .

<https://w3id.org/cdisc/cosmos/dss/RE/ALVVOL_RE> a cosmos_sdtm:SDTMGroup ;
    dcterms:identifier "ALVVOL_RE" ;
    rdf:_1 <https://w3id.org/cdisc/cosmos/dss/RE/ALVVOL_RE/RETESTCD> ;
    rdf:_2 <https://w3id.org/cdisc/cosmos/dss/RE/ALVVOL_RE/RETEST> ;
    rdf:_3 <https://w3id.org/cdisc/cosmos/dss/RE/ALVVOL_RE/REORRES> ;
    rdf:_4 <https://w3id.org/cdisc/cosmos/dss/RE/ALVVOL_RE/REORRESU> ;
    rdf:_5 <https://w3id.org/cdisc/cosmos/dss/RE/ALVVOL_RE/RESTRESC> ;
    rdf:_6 <https://w3id.org/cdisc/cosmos/dss/RE/ALVVOL_RE/RESTRESN> ;
    rdf:_7 <https://w3id.org/cdisc/cosmos/dss/RE/ALVVOL_RE/RESTRESU> ;
    rdf:_8 <https://w3id.org/cdisc/cosmos/dss/RE/ALVVOL_RE/REDTC> ;
    cosmos_sdtm:biomedicalConceptId NCIT:C156584 ;
    cosmos_sdtm:domain "RE" ;
    cosmos_sdtm:packageDate "2026-05-26"^^xsd:date ;
    cosmos_sdtm:packageType <https://www.cdisc.org/cosmos/sdtm_v1.0/PackageTypeEnum#sdtm> ;
    cosmos_sdtm:sdtmigStartVersion "3-4" ;
    cosmos_sdtm:shortName "Alveolar Volume (RE)" ;
    cosmos_sdtm:source "RE.RETESTCD" ;
    cosmos_sdtm:variables <https://w3id.org/cdisc/cosmos/dss/RE/ALVVOL_RE/REDTC>,
        <https://w3id.org/cdisc/cosmos/dss/RE/ALVVOL_RE/REORRES>,
        <https://w3id.org/cdisc/cosmos/dss/RE/ALVVOL_RE/REORRESU>,
        <https://w3id.org/cdisc/cosmos/dss/RE/ALVVOL_RE/RESTRESC>,
        <https://w3id.org/cdisc/cosmos/dss/RE/ALVVOL_RE/RESTRESN>,
        <https://w3id.org/cdisc/cosmos/dss/RE/ALVVOL_RE/RESTRESU>,
        <https://w3id.org/cdisc/cosmos/dss/RE/ALVVOL_RE/RETEST>,
        <https://w3id.org/cdisc/cosmos/dss/RE/ALVVOL_RE/RETESTCD> .

<https://w3id.org/cdisc/cosmos/dss/RE/AWVOLPP_RE> a cosmos_sdtm:SDTMGroup ;
    dcterms:identifier "AWVOLPP_RE" ;
    rdf:_1 <https://w3id.org/cdisc/cosmos/dss/RE/AWVOLPP_RE/RETESTCD> ;
    rdf:_2 <https://w3id.org/cdisc/cosmos/dss/RE/AWVOLPP_RE/RETEST> ;
    rdf:_3 <https://w3id.org/cdisc/cosmos/dss/RE/AWVOLPP_RE/REORRES> ;
    rdf:_4 <https://w3id.org/cdisc/cosmos/dss/RE/AWVOLPP_RE/REORRESU> ;
    rdf:_5 <https://w3id.org/cdisc/cosmos/dss/RE/AWVOLPP_RE/RESTRESC> ;
    rdf:_6 <https://w3id.org/cdisc/cosmos/dss/RE/AWVOLPP_RE/RESTRESN> ;
    rdf:_7 <https://w3id.org/cdisc/cosmos/dss/RE/AWVOLPP_RE/RESTRESU> ;
    rdf:_8 <https://w3id.org/cdisc/cosmos/dss/RE/AWVOLPP_RE/REDTC> ;
    cosmos_sdtm:biomedicalConceptId NCIT:C170621 ;
    cosmos_sdtm:domain "RE" ;
    cosmos_sdtm:packageDate "2026-05-26"^^xsd:date ;
    cosmos_sdtm:packageType <https://www.cdisc.org/cosmos/sdtm_v1.0/PackageTypeEnum#sdtm> ;
    cosmos_sdtm:sdtmigStartVersion "3-4" ;
    cosmos_sdtm:shortName "Percent Predicted Airway Volume (RE)" ;
    cosmos_sdtm:source "RE.RETESTCD" ;
    cosmos_sdtm:variables <https://w3id.org/cdisc/cosmos/dss/RE/AWVOLPP_RE/REDTC>,
        <https://w3id.org/cdisc/cosmos/dss/RE/AWVOLPP_RE/REORRES>,
        <https://w3id.org/cdisc/cosmos/dss/RE/AWVOLPP_RE/REORRESU>,
        <https://w3id.org/cdisc/cosmos/dss/RE/AWVOLPP_RE/RESTRESC>,
        <https://w3id.org/cdisc/cosmos/dss/RE/AWVOLPP_RE/RESTRESN>,
        <https://w3id.org/cdisc/cosmos/dss/RE/AWVOLPP_RE/RESTRESU>,
        <https://w3id.org/cdisc/cosmos/dss/RE/AWVOLPP_RE/RETEST>,
        <https://w3id.org/cdisc/cosmos/dss/RE/AWVOLPP_RE/RETESTCD> .

<https://w3id.org/cdisc/cosmos/dss/RE/AWVOL_RE> a cosmos_sdtm:SDTMGroup ;
    dcterms:identifier "AWVOL_RE" ;
    rdf:_1 <https://w3id.org/cdisc/cosmos/dss/RE/AWVOL_RE/RETESTCD> ;
    rdf:_2 <https://w3id.org/cdisc/cosmos/dss/RE/AWVOL_RE/RETEST> ;
    rdf:_3 <https://w3id.org/cdisc/cosmos/dss/RE/AWVOL_RE/REORRES> ;
    rdf:_4 <https://w3id.org/cdisc/cosmos/dss/RE/AWVOL_RE/REORRESU> ;
    rdf:_5 <https://w3id.org/cdisc/cosmos/dss/RE/AWVOL_RE/RESTRESC> ;
    rdf:_6 <https://w3id.org/cdisc/cosmos/dss/RE/AWVOL_RE/RESTRESN> ;
    rdf:_7 <https://w3id.org/cdisc/cosmos/dss/RE/AWVOL_RE/RESTRESU> ;
    rdf:_8 <https://w3id.org/cdisc/cosmos/dss/RE/AWVOL_RE/REDTC> ;
    cosmos_sdtm:biomedicalConceptId NCIT:C170457 ;
    cosmos_sdtm:domain "RE" ;
    cosmos_sdtm:packageDate "2026-05-26"^^xsd:date ;
    cosmos_sdtm:packageType <https://www.cdisc.org/cosmos/sdtm_v1.0/PackageTypeEnum#sdtm> ;
    cosmos_sdtm:sdtmigStartVersion "3-4" ;
    cosmos_sdtm:shortName "Airway Volume (RE)" ;
    cosmos_sdtm:source "RE.RETESTCD" ;
    cosmos_sdtm:variables <https://w3id.org/cdisc/cosmos/dss/RE/AWVOL_RE/REDTC>,
        <https://w3id.org/cdisc/cosmos/dss/RE/AWVOL_RE/REORRES>,
        <https://w3id.org/cdisc/cosmos/dss/RE/AWVOL_RE/REORRESU>,
        <https://w3id.org/cdisc/cosmos/dss/RE/AWVOL_RE/RESTRESC>,
        <https://w3id.org/cdisc/cosmos/dss/RE/AWVOL_RE/RESTRESN>,
        <https://w3id.org/cdisc/cosmos/dss/RE/AWVOL_RE/RESTRESU>,
        <https://w3id.org/cdisc/cosmos/dss/RE/AWVOL_RE/RETEST>,
        <https://w3id.org/cdisc/cosmos/dss/RE/AWVOL_RE/RETESTCD> .

<https://w3id.org/cdisc/cosmos/dss/RE/AWWVOL_RE> a cosmos_sdtm:SDTMGroup ;
    dcterms:identifier "AWWVOL_RE" ;
    rdf:_1 <https://w3id.org/cdisc/cosmos/dss/RE/AWWVOL_RE/RETESTCD> ;
    rdf:_2 <https://w3id.org/cdisc/cosmos/dss/RE/AWWVOL_RE/RETEST> ;
    rdf:_3 <https://w3id.org/cdisc/cosmos/dss/RE/AWWVOL_RE/REORRES> ;
    rdf:_4 <https://w3id.org/cdisc/cosmos/dss/RE/AWWVOL_RE/REORRESU> ;
    rdf:_5 <https://w3id.org/cdisc/cosmos/dss/RE/AWWVOL_RE/RESTRESC> ;
    rdf:_6 <https://w3id.org/cdisc/cosmos/dss/RE/AWWVOL_RE/RESTRESN> ;
    rdf:_7 <https://w3id.org/cdisc/cosmos/dss/RE/AWWVOL_RE/RESTRESU> ;
    rdf:_8 <https://w3id.org/cdisc/cosmos/dss/RE/AWWVOL_RE/REDTC> ;
    cosmos_sdtm:biomedicalConceptId NCIT:C170619 ;
    cosmos_sdtm:domain "RE" ;
    cosmos_sdtm:packageDate "2026-05-26"^^xsd:date ;
    cosmos_sdtm:packageType <https://www.cdisc.org/cosmos/sdtm_v1.0/PackageTypeEnum#sdtm> ;
    cosmos_sdtm:sdtmigStartVersion "3-4" ;
    cosmos_sdtm:shortName "Airway Wall Volume (RE)" ;
    cosmos_sdtm:source "RE.RETESTCD" ;
    cosmos_sdtm:variables <https://w3id.org/cdisc/cosmos/dss/RE/AWWVOL_RE/REDTC>,
        <https://w3id.org/cdisc/cosmos/dss/RE/AWWVOL_RE/REORRES>,
        <https://w3id.org/cdisc/cosmos/dss/RE/AWWVOL_RE/REORRESU>,
        <https://w3id.org/cdisc/cosmos/dss/RE/AWWVOL_RE/RESTRESC>,
        <https://w3id.org/cdisc/cosmos/dss/RE/AWWVOL_RE/RESTRESN>,
        <https://w3id.org/cdisc/cosmos/dss/RE/AWWVOL_RE/RESTRESU>,
        <https://w3id.org/cdisc/cosmos/dss/RE/AWWVOL_RE/RETEST>,
        <https://w3id.org/cdisc/cosmos/dss/RE/AWWVOL_RE/RETESTCD> .

<https://w3id.org/cdisc/cosmos/dss/RE/BLDFLRT_RE> a cosmos_sdtm:SDTMGroup ;
    dcterms:identifier "BLDFLRT_RE" ;
    rdf:_1 <https://w3id.org/cdisc/cosmos/dss/RE/BLDFLRT_RE/RETESTCD> ;
    rdf:_2 <https://w3id.org/cdisc/cosmos/dss/RE/BLDFLRT_RE/RETEST> ;
    rdf:_3 <https://w3id.org/cdisc/cosmos/dss/RE/BLDFLRT_RE/REORRES> ;
    rdf:_4 <https://w3id.org/cdisc/cosmos/dss/RE/BLDFLRT_RE/REORRESU> ;
    rdf:_5 <https://w3id.org/cdisc/cosmos/dss/RE/BLDFLRT_RE/RESTRESC> ;
    rdf:_6 <https://w3id.org/cdisc/cosmos/dss/RE/BLDFLRT_RE/RESTRESN> ;
    rdf:_7 <https://w3id.org/cdisc/cosmos/dss/RE/BLDFLRT_RE/RESTRESU> ;
    rdf:_8 <https://w3id.org/cdisc/cosmos/dss/RE/BLDFLRT_RE/REDTC> ;
    cosmos_sdtm:biomedicalConceptId NCIT:C94866 ;
    cosmos_sdtm:domain "RE" ;
    cosmos_sdtm:packageDate "2026-05-26"^^xsd:date ;
    cosmos_sdtm:packageType <https://www.cdisc.org/cosmos/sdtm_v1.0/PackageTypeEnum#sdtm> ;
    cosmos_sdtm:sdtmigStartVersion "3-4" ;
    cosmos_sdtm:shortName "Blood Flow Rate (RE)" ;
    cosmos_sdtm:source "RE.RETESTCD" ;
    cosmos_sdtm:variables <https://w3id.org/cdisc/cosmos/dss/RE/BLDFLRT_RE/REDTC>,
        <https://w3id.org/cdisc/cosmos/dss/RE/BLDFLRT_RE/REORRES>,
        <https://w3id.org/cdisc/cosmos/dss/RE/BLDFLRT_RE/REORRESU>,
        <https://w3id.org/cdisc/cosmos/dss/RE/BLDFLRT_RE/RESTRESC>,
        <https://w3id.org/cdisc/cosmos/dss/RE/BLDFLRT_RE/RESTRESN>,
        <https://w3id.org/cdisc/cosmos/dss/RE/BLDFLRT_RE/RESTRESU>,
        <https://w3id.org/cdisc/cosmos/dss/RE/BLDFLRT_RE/RETEST>,
        <https://w3id.org/cdisc/cosmos/dss/RE/BLDFLRT_RE/RETESTCD> .

<https://w3id.org/cdisc/cosmos/dss/RE/DLCOHCPP_RE> a cosmos_sdtm:SDTMGroup ;
    dcterms:identifier "DLCOHCPP_RE" ;
    rdf:_1 <https://w3id.org/cdisc/cosmos/dss/RE/DLCOHCPP_RE/RETESTCD> ;
    rdf:_2 <https://w3id.org/cdisc/cosmos/dss/RE/DLCOHCPP_RE/RETEST> ;
    rdf:_3 <https://w3id.org/cdisc/cosmos/dss/RE/DLCOHCPP_RE/REORRES> ;
    rdf:_4 <https://w3id.org/cdisc/cosmos/dss/RE/DLCOHCPP_RE/REORRESU> ;
    rdf:_5 <https://w3id.org/cdisc/cosmos/dss/RE/DLCOHCPP_RE/RESTRESC> ;
    rdf:_6 <https://w3id.org/cdisc/cosmos/dss/RE/DLCOHCPP_RE/RESTRESN> ;
    rdf:_7 <https://w3id.org/cdisc/cosmos/dss/RE/DLCOHCPP_RE/RESTRESU> ;
    rdf:_8 <https://w3id.org/cdisc/cosmos/dss/RE/DLCOHCPP_RE/REDTC> ;
    cosmos_sdtm:biomedicalConceptId NCIT:C120826 ;
    cosmos_sdtm:domain "RE" ;
    cosmos_sdtm:packageDate "2026-05-26"^^xsd:date ;
    cosmos_sdtm:packageType <https://www.cdisc.org/cosmos/sdtm_v1.0/PackageTypeEnum#sdtm> ;
    cosmos_sdtm:sdtmigStartVersion "3-4" ;
    cosmos_sdtm:shortName "Percent Predicted HGB Corrected DLCO (RE)" ;
    cosmos_sdtm:source "RE.RETESTCD" ;
    cosmos_sdtm:variables <https://w3id.org/cdisc/cosmos/dss/RE/DLCOHCPP_RE/REDTC>,
        <https://w3id.org/cdisc/cosmos/dss/RE/DLCOHCPP_RE/REORRES>,
        <https://w3id.org/cdisc/cosmos/dss/RE/DLCOHCPP_RE/REORRESU>,
        <https://w3id.org/cdisc/cosmos/dss/RE/DLCOHCPP_RE/RESTRESC>,
        <https://w3id.org/cdisc/cosmos/dss/RE/DLCOHCPP_RE/RESTRESN>,
        <https://w3id.org/cdisc/cosmos/dss/RE/DLCOHCPP_RE/RESTRESU>,
        <https://w3id.org/cdisc/cosmos/dss/RE/DLCOHCPP_RE/RETEST>,
        <https://w3id.org/cdisc/cosmos/dss/RE/DLCOHCPP_RE/RETESTCD> .

<https://w3id.org/cdisc/cosmos/dss/RE/DLCOHCVA_RE> a cosmos_sdtm:SDTMGroup ;
    dcterms:identifier "DLCOHCVA_RE" ;
    rdf:_1 <https://w3id.org/cdisc/cosmos/dss/RE/DLCOHCVA_RE/RETESTCD> ;
    rdf:_2 <https://w3id.org/cdisc/cosmos/dss/RE/DLCOHCVA_RE/RETEST> ;
    rdf:_3 <https://w3id.org/cdisc/cosmos/dss/RE/DLCOHCVA_RE/REORRES> ;
    rdf:_4 <https://w3id.org/cdisc/cosmos/dss/RE/DLCOHCVA_RE/REORRESU> ;
    rdf:_5 <https://w3id.org/cdisc/cosmos/dss/RE/DLCOHCVA_RE/RESTRESC> ;
    rdf:_6 <https://w3id.org/cdisc/cosmos/dss/RE/DLCOHCVA_RE/RESTRESN> ;
    rdf:_7 <https://w3id.org/cdisc/cosmos/dss/RE/DLCOHCVA_RE/RESTRESU> ;
    rdf:_8 <https://w3id.org/cdisc/cosmos/dss/RE/DLCOHCVA_RE/REDTC> ;
    cosmos_sdtm:biomedicalConceptId NCIT:C120827 ;
    cosmos_sdtm:domain "RE" ;
    cosmos_sdtm:packageDate "2026-05-26"^^xsd:date ;
    cosmos_sdtm:packageType <https://www.cdisc.org/cosmos/sdtm_v1.0/PackageTypeEnum#sdtm> ;
    cosmos_sdtm:sdtmigStartVersion "3-4" ;
    cosmos_sdtm:shortName "HGB Corrected DLCO/VA (RE)" ;
    cosmos_sdtm:source "RE.RETESTCD" ;
    cosmos_sdtm:variables <https://w3id.org/cdisc/cosmos/dss/RE/DLCOHCVA_RE/REDTC>,
        <https://w3id.org/cdisc/cosmos/dss/RE/DLCOHCVA_RE/REORRES>,
        <https://w3id.org/cdisc/cosmos/dss/RE/DLCOHCVA_RE/REORRESU>,
        <https://w3id.org/cdisc/cosmos/dss/RE/DLCOHCVA_RE/RESTRESC>,
        <https://w3id.org/cdisc/cosmos/dss/RE/DLCOHCVA_RE/RESTRESN>,
        <https://w3id.org/cdisc/cosmos/dss/RE/DLCOHCVA_RE/RESTRESU>,
        <https://w3id.org/cdisc/cosmos/dss/RE/DLCOHCVA_RE/RETEST>,
        <https://w3id.org/cdisc/cosmos/dss/RE/DLCOHCVA_RE/RETESTCD> .

<https://w3id.org/cdisc/cosmos/dss/RE/DLCOHC_RE> a cosmos_sdtm:SDTMGroup ;
    dcterms:identifier "DLCOHC_RE" ;
    rdf:_1 <https://w3id.org/cdisc/cosmos/dss/RE/DLCOHC_RE/RETESTCD> ;
    rdf:_2 <https://w3id.org/cdisc/cosmos/dss/RE/DLCOHC_RE/RETEST> ;
    rdf:_3 <https://w3id.org/cdisc/cosmos/dss/RE/DLCOHC_RE/REORRES> ;
    rdf:_4 <https://w3id.org/cdisc/cosmos/dss/RE/DLCOHC_RE/REORRESU> ;
    rdf:_5 <https://w3id.org/cdisc/cosmos/dss/RE/DLCOHC_RE/RESTRESC> ;
    rdf:_6 <https://w3id.org/cdisc/cosmos/dss/RE/DLCOHC_RE/RESTRESN> ;
    rdf:_7 <https://w3id.org/cdisc/cosmos/dss/RE/DLCOHC_RE/RESTRESU> ;
    rdf:_8 <https://w3id.org/cdisc/cosmos/dss/RE/DLCOHC_RE/REDTC> ;
    cosmos_sdtm:biomedicalConceptId NCIT:C120825 ;
    cosmos_sdtm:domain "RE" ;
    cosmos_sdtm:packageDate "2026-05-26"^^xsd:date ;
    cosmos_sdtm:packageType <https://www.cdisc.org/cosmos/sdtm_v1.0/PackageTypeEnum#sdtm> ;
    cosmos_sdtm:sdtmigStartVersion "3-4" ;
    cosmos_sdtm:shortName "HGB Corrected DLCO (RE)" ;
    cosmos_sdtm:source "RE.RETESTCD" ;
    cosmos_sdtm:variables <https://w3id.org/cdisc/cosmos/dss/RE/DLCOHC_RE/REDTC>,
        <https://w3id.org/cdisc/cosmos/dss/RE/DLCOHC_RE/REORRES>,
        <https://w3id.org/cdisc/cosmos/dss/RE/DLCOHC_RE/REORRESU>,
        <https://w3id.org/cdisc/cosmos/dss/RE/DLCOHC_RE/RESTRESC>,
        <https://w3id.org/cdisc/cosmos/dss/RE/DLCOHC_RE/RESTRESN>,
        <https://w3id.org/cdisc/cosmos/dss/RE/DLCOHC_RE/RESTRESU>,
        <https://w3id.org/cdisc/cosmos/dss/RE/DLCOHC_RE/RETEST>,
        <https://w3id.org/cdisc/cosmos/dss/RE/DLCOHC_RE/RETESTCD> .

<https://w3id.org/cdisc/cosmos/dss/RE/DLCOHVAP_RE> a cosmos_sdtm:SDTMGroup ;
    dcterms:identifier "DLCOHVAP_RE" ;
    rdf:_1 <https://w3id.org/cdisc/cosmos/dss/RE/DLCOHVAP_RE/RETESTCD> ;
    rdf:_2 <https://w3id.org/cdisc/cosmos/dss/RE/DLCOHVAP_RE/RETEST> ;
    rdf:_3 <https://w3id.org/cdisc/cosmos/dss/RE/DLCOHVAP_RE/REORRES> ;
    rdf:_4 <https://w3id.org/cdisc/cosmos/dss/RE/DLCOHVAP_RE/REORRESU> ;
    rdf:_5 <https://w3id.org/cdisc/cosmos/dss/RE/DLCOHVAP_RE/RESTRESC> ;
    rdf:_6 <https://w3id.org/cdisc/cosmos/dss/RE/DLCOHVAP_RE/RESTRESN> ;
    rdf:_7 <https://w3id.org/cdisc/cosmos/dss/RE/DLCOHVAP_RE/RESTRESU> ;
    rdf:_8 <https://w3id.org/cdisc/cosmos/dss/RE/DLCOHVAP_RE/REDTC> ;
    cosmos_sdtm:biomedicalConceptId NCIT:C120828 ;
    cosmos_sdtm:domain "RE" ;
    cosmos_sdtm:packageDate "2026-05-26"^^xsd:date ;
    cosmos_sdtm:packageType <https://www.cdisc.org/cosmos/sdtm_v1.0/PackageTypeEnum#sdtm> ;
    cosmos_sdtm:sdtmigStartVersion "3-4" ;
    cosmos_sdtm:shortName "Percent Predicted HGB Corrected DLCO/VA (RE)" ;
    cosmos_sdtm:source "RE.RETESTCD" ;
    cosmos_sdtm:variables <https://w3id.org/cdisc/cosmos/dss/RE/DLCOHVAP_RE/REDTC>,
        <https://w3id.org/cdisc/cosmos/dss/RE/DLCOHVAP_RE/REORRES>,
        <https://w3id.org/cdisc/cosmos/dss/RE/DLCOHVAP_RE/REORRESU>,
        <https://w3id.org/cdisc/cosmos/dss/RE/DLCOHVAP_RE/RESTRESC>,
        <https://w3id.org/cdisc/cosmos/dss/RE/DLCOHVAP_RE/RESTRESN>,
        <https://w3id.org/cdisc/cosmos/dss/RE/DLCOHVAP_RE/RESTRESU>,
        <https://w3id.org/cdisc/cosmos/dss/RE/DLCOHVAP_RE/RETEST>,
        <https://w3id.org/cdisc/cosmos/dss/RE/DLCOHVAP_RE/RETESTCD> .

<https://w3id.org/cdisc/cosmos/dss/RE/DLCOM_RE> a cosmos_sdtm:SDTMGroup ;
    dcterms:identifier "DLCOM_RE" ;
    rdf:_1 <https://w3id.org/cdisc/cosmos/dss/RE/DLCOM_RE/RETESTCD> ;
    rdf:_2 <https://w3id.org/cdisc/cosmos/dss/RE/DLCOM_RE/RETEST> ;
    rdf:_3 <https://w3id.org/cdisc/cosmos/dss/RE/DLCOM_RE/REORRES> ;
    rdf:_4 <https://w3id.org/cdisc/cosmos/dss/RE/DLCOM_RE/REORRESU> ;
    rdf:_5 <https://w3id.org/cdisc/cosmos/dss/RE/DLCOM_RE/RESTRESC> ;
    rdf:_6 <https://w3id.org/cdisc/cosmos/dss/RE/DLCOM_RE/RESTRESN> ;
    rdf:_7 <https://w3id.org/cdisc/cosmos/dss/RE/DLCOM_RE/RESTRESU> ;
    rdf:_8 <https://w3id.org/cdisc/cosmos/dss/RE/DLCOM_RE/REDTC> ;
    cosmos_sdtm:biomedicalConceptId NCIT:C123564 ;
    cosmos_sdtm:domain "RE" ;
    cosmos_sdtm:packageDate "2026-05-26"^^xsd:date ;
    cosmos_sdtm:packageType <https://www.cdisc.org/cosmos/sdtm_v1.0/PackageTypeEnum#sdtm> ;
    cosmos_sdtm:sdtmigStartVersion "3-4" ;
    cosmos_sdtm:shortName "Mean Diffusion Capacity of Lung for CO (RE)" ;
    cosmos_sdtm:source "RE.RETESTCD" ;
    cosmos_sdtm:variables <https://w3id.org/cdisc/cosmos/dss/RE/DLCOM_RE/REDTC>,
        <https://w3id.org/cdisc/cosmos/dss/RE/DLCOM_RE/REORRES>,
        <https://w3id.org/cdisc/cosmos/dss/RE/DLCOM_RE/REORRESU>,
        <https://w3id.org/cdisc/cosmos/dss/RE/DLCOM_RE/RESTRESC>,
        <https://w3id.org/cdisc/cosmos/dss/RE/DLCOM_RE/RESTRESN>,
        <https://w3id.org/cdisc/cosmos/dss/RE/DLCOM_RE/RESTRESU>,
        <https://w3id.org/cdisc/cosmos/dss/RE/DLCOM_RE/RETEST>,
        <https://w3id.org/cdisc/cosmos/dss/RE/DLCOM_RE/RETESTCD> .

<https://w3id.org/cdisc/cosmos/dss/RE/DLCOPP_RE> a cosmos_sdtm:SDTMGroup ;
    dcterms:identifier "DLCOPP_RE" ;
    rdf:_1 <https://w3id.org/cdisc/cosmos/dss/RE/DLCOPP_RE/RETESTCD> ;
    rdf:_2 <https://w3id.org/cdisc/cosmos/dss/RE/DLCOPP_RE/RETEST> ;
    rdf:_3 <https://w3id.org/cdisc/cosmos/dss/RE/DLCOPP_RE/REORRES> ;
    rdf:_4 <https://w3id.org/cdisc/cosmos/dss/RE/DLCOPP_RE/REORRESU> ;
    rdf:_5 <https://w3id.org/cdisc/cosmos/dss/RE/DLCOPP_RE/RESTRESC> ;
    rdf:_6 <https://w3id.org/cdisc/cosmos/dss/RE/DLCOPP_RE/RESTRESN> ;
    rdf:_7 <https://w3id.org/cdisc/cosmos/dss/RE/DLCOPP_RE/RESTRESU> ;
    rdf:_8 <https://w3id.org/cdisc/cosmos/dss/RE/DLCOPP_RE/REDTC> ;
    cosmos_sdtm:biomedicalConceptId NCIT:C120829 ;
    cosmos_sdtm:domain "RE" ;
    cosmos_sdtm:packageDate "2026-05-26"^^xsd:date ;
    cosmos_sdtm:packageType <https://www.cdisc.org/cosmos/sdtm_v1.0/PackageTypeEnum#sdtm> ;
    cosmos_sdtm:sdtmigStartVersion "3-4" ;
    cosmos_sdtm:shortName "Percent Predicted DLCO (RE)" ;
    cosmos_sdtm:source "RE.RETESTCD" ;
    cosmos_sdtm:variables <https://w3id.org/cdisc/cosmos/dss/RE/DLCOPP_RE/REDTC>,
        <https://w3id.org/cdisc/cosmos/dss/RE/DLCOPP_RE/REORRES>,
        <https://w3id.org/cdisc/cosmos/dss/RE/DLCOPP_RE/REORRESU>,
        <https://w3id.org/cdisc/cosmos/dss/RE/DLCOPP_RE/RESTRESC>,
        <https://w3id.org/cdisc/cosmos/dss/RE/DLCOPP_RE/RESTRESN>,
        <https://w3id.org/cdisc/cosmos/dss/RE/DLCOPP_RE/RESTRESU>,
        <https://w3id.org/cdisc/cosmos/dss/RE/DLCOPP_RE/RETEST>,
        <https://w3id.org/cdisc/cosmos/dss/RE/DLCOPP_RE/RETESTCD> .

<https://w3id.org/cdisc/cosmos/dss/RE/DLCOVAPP_RE> a cosmos_sdtm:SDTMGroup ;
    dcterms:identifier "DLCOVAPP_RE" ;
    rdf:_1 <https://w3id.org/cdisc/cosmos/dss/RE/DLCOVAPP_RE/RETESTCD> ;
    rdf:_2 <https://w3id.org/cdisc/cosmos/dss/RE/DLCOVAPP_RE/RETEST> ;
    rdf:_3 <https://w3id.org/cdisc/cosmos/dss/RE/DLCOVAPP_RE/REORRES> ;
    rdf:_4 <https://w3id.org/cdisc/cosmos/dss/RE/DLCOVAPP_RE/REORRESU> ;
    rdf:_5 <https://w3id.org/cdisc/cosmos/dss/RE/DLCOVAPP_RE/RESTRESC> ;
    rdf:_6 <https://w3id.org/cdisc/cosmos/dss/RE/DLCOVAPP_RE/RESTRESN> ;
    rdf:_7 <https://w3id.org/cdisc/cosmos/dss/RE/DLCOVAPP_RE/RESTRESU> ;
    rdf:_8 <https://w3id.org/cdisc/cosmos/dss/RE/DLCOVAPP_RE/REDTC> ;
    cosmos_sdtm:biomedicalConceptId NCIT:C120831 ;
    cosmos_sdtm:domain "RE" ;
    cosmos_sdtm:packageDate "2026-05-26"^^xsd:date ;
    cosmos_sdtm:packageType <https://www.cdisc.org/cosmos/sdtm_v1.0/PackageTypeEnum#sdtm> ;
    cosmos_sdtm:sdtmigStartVersion "3-4" ;
    cosmos_sdtm:shortName "Percent Predicted DLCO/VA (RE)" ;
    cosmos_sdtm:source "RE.RETESTCD" ;
    cosmos_sdtm:variables <https://w3id.org/cdisc/cosmos/dss/RE/DLCOVAPP_RE/REDTC>,
        <https://w3id.org/cdisc/cosmos/dss/RE/DLCOVAPP_RE/REORRES>,
        <https://w3id.org/cdisc/cosmos/dss/RE/DLCOVAPP_RE/REORRESU>,
        <https://w3id.org/cdisc/cosmos/dss/RE/DLCOVAPP_RE/RESTRESC>,
        <https://w3id.org/cdisc/cosmos/dss/RE/DLCOVAPP_RE/RESTRESN>,
        <https://w3id.org/cdisc/cosmos/dss/RE/DLCOVAPP_RE/RESTRESU>,
        <https://w3id.org/cdisc/cosmos/dss/RE/DLCOVAPP_RE/RETEST>,
        <https://w3id.org/cdisc/cosmos/dss/RE/DLCOVAPP_RE/RETESTCD> .

<https://w3id.org/cdisc/cosmos/dss/RE/DLCOVA_RE> a cosmos_sdtm:SDTMGroup ;
    dcterms:identifier "DLCOVA_RE" ;
    rdf:_1 <https://w3id.org/cdisc/cosmos/dss/RE/DLCOVA_RE/RETESTCD> ;
    rdf:_2 <https://w3id.org/cdisc/cosmos/dss/RE/DLCOVA_RE/RETEST> ;
    rdf:_3 <https://w3id.org/cdisc/cosmos/dss/RE/DLCOVA_RE/REORRES> ;
    rdf:_4 <https://w3id.org/cdisc/cosmos/dss/RE/DLCOVA_RE/REORRESU> ;
    rdf:_5 <https://w3id.org/cdisc/cosmos/dss/RE/DLCOVA_RE/RESTRESC> ;
    rdf:_6 <https://w3id.org/cdisc/cosmos/dss/RE/DLCOVA_RE/RESTRESN> ;
    rdf:_7 <https://w3id.org/cdisc/cosmos/dss/RE/DLCOVA_RE/RESTRESU> ;
    rdf:_8 <https://w3id.org/cdisc/cosmos/dss/RE/DLCOVA_RE/REDTC> ;
    cosmos_sdtm:biomedicalConceptId NCIT:C120830 ;
    cosmos_sdtm:domain "RE" ;
    cosmos_sdtm:packageDate "2026-05-26"^^xsd:date ;
    cosmos_sdtm:packageType <https://www.cdisc.org/cosmos/sdtm_v1.0/PackageTypeEnum#sdtm> ;
    cosmos_sdtm:sdtmigStartVersion "3-4" ;
    cosmos_sdtm:shortName "DLCO/VA (RE)" ;
    cosmos_sdtm:source "RE.RETESTCD" ;
    cosmos_sdtm:variables <https://w3id.org/cdisc/cosmos/dss/RE/DLCOVA_RE/REDTC>,
        <https://w3id.org/cdisc/cosmos/dss/RE/DLCOVA_RE/REORRES>,
        <https://w3id.org/cdisc/cosmos/dss/RE/DLCOVA_RE/REORRESU>,
        <https://w3id.org/cdisc/cosmos/dss/RE/DLCOVA_RE/RESTRESC>,
        <https://w3id.org/cdisc/cosmos/dss/RE/DLCOVA_RE/RESTRESN>,
        <https://w3id.org/cdisc/cosmos/dss/RE/DLCOVA_RE/RESTRESU>,
        <https://w3id.org/cdisc/cosmos/dss/RE/DLCOVA_RE/RETEST>,
        <https://w3id.org/cdisc/cosmos/dss/RE/DLCOVA_RE/RETESTCD> .

<https://w3id.org/cdisc/cosmos/dss/RE/DLCO_RE> a cosmos_sdtm:SDTMGroup ;
    dcterms:identifier "DLCO_RE" ;
    rdf:_1 <https://w3id.org/cdisc/cosmos/dss/RE/DLCO_RE/RETESTCD> ;
    rdf:_2 <https://w3id.org/cdisc/cosmos/dss/RE/DLCO_RE/RETEST> ;
    rdf:_3 <https://w3id.org/cdisc/cosmos/dss/RE/DLCO_RE/REORRES> ;
    rdf:_4 <https://w3id.org/cdisc/cosmos/dss/RE/DLCO_RE/REORRESU> ;
    rdf:_5 <https://w3id.org/cdisc/cosmos/dss/RE/DLCO_RE/RESTRESC> ;
    rdf:_6 <https://w3id.org/cdisc/cosmos/dss/RE/DLCO_RE/RESTRESN> ;
    rdf:_7 <https://w3id.org/cdisc/cosmos/dss/RE/DLCO_RE/RESTRESU> ;
    rdf:_8 <https://w3id.org/cdisc/cosmos/dss/RE/DLCO_RE/REDTC> ;
    cosmos_sdtm:biomedicalConceptId NCIT:C38083 ;
    cosmos_sdtm:domain "RE" ;
    cosmos_sdtm:packageDate "2026-05-26"^^xsd:date ;
    cosmos_sdtm:packageType <https://www.cdisc.org/cosmos/sdtm_v1.0/PackageTypeEnum#sdtm> ;
    cosmos_sdtm:sdtmigStartVersion "3-4" ;
    cosmos_sdtm:shortName "Diffusion Capacity of Lung for CO (RE)" ;
    cosmos_sdtm:source "RE.RETESTCD" ;
    cosmos_sdtm:variables <https://w3id.org/cdisc/cosmos/dss/RE/DLCO_RE/REDTC>,
        <https://w3id.org/cdisc/cosmos/dss/RE/DLCO_RE/REORRES>,
        <https://w3id.org/cdisc/cosmos/dss/RE/DLCO_RE/REORRESU>,
        <https://w3id.org/cdisc/cosmos/dss/RE/DLCO_RE/RESTRESC>,
        <https://w3id.org/cdisc/cosmos/dss/RE/DLCO_RE/RESTRESN>,
        <https://w3id.org/cdisc/cosmos/dss/RE/DLCO_RE/RESTRESU>,
        <https://w3id.org/cdisc/cosmos/dss/RE/DLCO_RE/RETEST>,
        <https://w3id.org/cdisc/cosmos/dss/RE/DLCO_RE/RETESTCD> .

<https://w3id.org/cdisc/cosmos/dss/RE/DOMLGPTD_RE> a cosmos_sdtm:SDTMGroup ;
    dcterms:identifier "DOMLGPTD_RE" ;
    rdf:_1 <https://w3id.org/cdisc/cosmos/dss/RE/DOMLGPTD_RE/RETESTCD> ;
    rdf:_2 <https://w3id.org/cdisc/cosmos/dss/RE/DOMLGPTD_RE/RETEST> ;
    rdf:_3 <https://w3id.org/cdisc/cosmos/dss/RE/DOMLGPTD_RE/REORRES> ;
    rdf:_4 <https://w3id.org/cdisc/cosmos/dss/RE/DOMLGPTD_RE/RESTRESC> ;
    rdf:_5 <https://w3id.org/cdisc/cosmos/dss/RE/DOMLGPTD_RE/REDTC> ;
    cosmos_sdtm:biomedicalConceptId NCIT:C189633 ;
    cosmos_sdtm:domain "RE" ;
    cosmos_sdtm:packageDate "2026-05-26"^^xsd:date ;
    cosmos_sdtm:packageType <https://www.cdisc.org/cosmos/sdtm_v1.0/PackageTypeEnum#sdtm> ;
    cosmos_sdtm:sdtmigStartVersion "3-4" ;
    cosmos_sdtm:shortName "Dominant Lung Pattern Distribution (RE)" ;
    cosmos_sdtm:source "RE.RETESTCD" ;
    cosmos_sdtm:variables <https://w3id.org/cdisc/cosmos/dss/RE/DOMLGPTD_RE/REDTC>,
        <https://w3id.org/cdisc/cosmos/dss/RE/DOMLGPTD_RE/REORRES>,
        <https://w3id.org/cdisc/cosmos/dss/RE/DOMLGPTD_RE/RESTRESC>,
        <https://w3id.org/cdisc/cosmos/dss/RE/DOMLGPTD_RE/RETEST>,
        <https://w3id.org/cdisc/cosmos/dss/RE/DOMLGPTD_RE/RETESTCD> .

<https://w3id.org/cdisc/cosmos/dss/RE/DOMLGPT_RE> a cosmos_sdtm:SDTMGroup ;
    dcterms:identifier "DOMLGPT_RE" ;
    rdf:_1 <https://w3id.org/cdisc/cosmos/dss/RE/DOMLGPT_RE/RETESTCD> ;
    rdf:_2 <https://w3id.org/cdisc/cosmos/dss/RE/DOMLGPT_RE/RETEST> ;
    rdf:_3 <https://w3id.org/cdisc/cosmos/dss/RE/DOMLGPT_RE/REORRES> ;
    rdf:_4 <https://w3id.org/cdisc/cosmos/dss/RE/DOMLGPT_RE/RESTRESC> ;
    rdf:_5 <https://w3id.org/cdisc/cosmos/dss/RE/DOMLGPT_RE/REDTC> ;
    cosmos_sdtm:biomedicalConceptId NCIT:C189632 ;
    cosmos_sdtm:domain "RE" ;
    cosmos_sdtm:packageDate "2026-05-26"^^xsd:date ;
    cosmos_sdtm:packageType <https://www.cdisc.org/cosmos/sdtm_v1.0/PackageTypeEnum#sdtm> ;
    cosmos_sdtm:sdtmigStartVersion "3-4" ;
    cosmos_sdtm:shortName "Dominant Lung Pattern (RE)" ;
    cosmos_sdtm:source "RE.RETESTCD" ;
    cosmos_sdtm:variables <https://w3id.org/cdisc/cosmos/dss/RE/DOMLGPT_RE/REDTC>,
        <https://w3id.org/cdisc/cosmos/dss/RE/DOMLGPT_RE/REORRES>,
        <https://w3id.org/cdisc/cosmos/dss/RE/DOMLGPT_RE/RESTRESC>,
        <https://w3id.org/cdisc/cosmos/dss/RE/DOMLGPT_RE/RETEST>,
        <https://w3id.org/cdisc/cosmos/dss/RE/DOMLGPT_RE/RETESTCD> .

<https://w3id.org/cdisc/cosmos/dss/RE/EFFIND_RE> a cosmos_sdtm:SDTMGroup ;
    dcterms:identifier "EFFIND_RE" ;
    rdf:_1 <https://w3id.org/cdisc/cosmos/dss/RE/EFFIND_RE/RETESTCD> ;
    rdf:_2 <https://w3id.org/cdisc/cosmos/dss/RE/EFFIND_RE/RETEST> ;
    rdf:_3 <https://w3id.org/cdisc/cosmos/dss/RE/EFFIND_RE/REORRES> ;
    rdf:_4 <https://w3id.org/cdisc/cosmos/dss/RE/EFFIND_RE/RESTRESC> ;
    rdf:_5 <https://w3id.org/cdisc/cosmos/dss/RE/EFFIND_RE/REDTC> ;
    cosmos_sdtm:biomedicalConceptId NCIT:C161422 ;
    cosmos_sdtm:domain "RE" ;
    cosmos_sdtm:packageDate "2026-05-26"^^xsd:date ;
    cosmos_sdtm:packageType <https://www.cdisc.org/cosmos/sdtm_v1.0/PackageTypeEnum#sdtm> ;
    cosmos_sdtm:sdtmigStartVersion "3-4" ;
    cosmos_sdtm:shortName "Effusion Indicator (RE)" ;
    cosmos_sdtm:source "RE.RETESTCD" ;
    cosmos_sdtm:variables <https://w3id.org/cdisc/cosmos/dss/RE/EFFIND_RE/REDTC>,
        <https://w3id.org/cdisc/cosmos/dss/RE/EFFIND_RE/REORRES>,
        <https://w3id.org/cdisc/cosmos/dss/RE/EFFIND_RE/RESTRESC>,
        <https://w3id.org/cdisc/cosmos/dss/RE/EFFIND_RE/RETEST>,
        <https://w3id.org/cdisc/cosmos/dss/RE/EFFIND_RE/RETESTCD> .

<https://w3id.org/cdisc/cosmos/dss/RE/EFFVOL_RE> a cosmos_sdtm:SDTMGroup ;
    dcterms:identifier "EFFVOL_RE" ;
    rdf:_1 <https://w3id.org/cdisc/cosmos/dss/RE/EFFVOL_RE/RETESTCD> ;
    rdf:_2 <https://w3id.org/cdisc/cosmos/dss/RE/EFFVOL_RE/RETEST> ;
    rdf:_3 <https://w3id.org/cdisc/cosmos/dss/RE/EFFVOL_RE/REORRES> ;
    rdf:_4 <https://w3id.org/cdisc/cosmos/dss/RE/EFFVOL_RE/REORRESU> ;
    rdf:_5 <https://w3id.org/cdisc/cosmos/dss/RE/EFFVOL_RE/RESTRESC> ;
    rdf:_6 <https://w3id.org/cdisc/cosmos/dss/RE/EFFVOL_RE/RESTRESN> ;
    rdf:_7 <https://w3id.org/cdisc/cosmos/dss/RE/EFFVOL_RE/RESTRESU> ;
    rdf:_8 <https://w3id.org/cdisc/cosmos/dss/RE/EFFVOL_RE/REDTC> ;
    cosmos_sdtm:biomedicalConceptId NCIT:C161424 ;
    cosmos_sdtm:domain "RE" ;
    cosmos_sdtm:packageDate "2026-05-26"^^xsd:date ;
    cosmos_sdtm:packageType <https://www.cdisc.org/cosmos/sdtm_v1.0/PackageTypeEnum#sdtm> ;
    cosmos_sdtm:sdtmigStartVersion "3-4" ;
    cosmos_sdtm:shortName "Effusion Volume (RE)" ;
    cosmos_sdtm:source "RE.RETESTCD" ;
    cosmos_sdtm:variables <https://w3id.org/cdisc/cosmos/dss/RE/EFFVOL_RE/REDTC>,
        <https://w3id.org/cdisc/cosmos/dss/RE/EFFVOL_RE/REORRES>,
        <https://w3id.org/cdisc/cosmos/dss/RE/EFFVOL_RE/REORRESU>,
        <https://w3id.org/cdisc/cosmos/dss/RE/EFFVOL_RE/RESTRESC>,
        <https://w3id.org/cdisc/cosmos/dss/RE/EFFVOL_RE/RESTRESN>,
        <https://w3id.org/cdisc/cosmos/dss/RE/EFFVOL_RE/RESTRESU>,
        <https://w3id.org/cdisc/cosmos/dss/RE/EFFVOL_RE/RETEST>,
        <https://w3id.org/cdisc/cosmos/dss/RE/EFFVOL_RE/RETESTCD> .

<https://w3id.org/cdisc/cosmos/dss/RE/ELSTNCE_RE> a cosmos_sdtm:SDTMGroup ;
    dcterms:identifier "ELSTNCE_RE" ;
    rdf:_1 <https://w3id.org/cdisc/cosmos/dss/RE/ELSTNCE_RE/RETESTCD> ;
    rdf:_2 <https://w3id.org/cdisc/cosmos/dss/RE/ELSTNCE_RE/RETEST> ;
    rdf:_3 <https://w3id.org/cdisc/cosmos/dss/RE/ELSTNCE_RE/REORRES> ;
    rdf:_4 <https://w3id.org/cdisc/cosmos/dss/RE/ELSTNCE_RE/REORRESU> ;
    rdf:_5 <https://w3id.org/cdisc/cosmos/dss/RE/ELSTNCE_RE/RESTRESC> ;
    rdf:_6 <https://w3id.org/cdisc/cosmos/dss/RE/ELSTNCE_RE/RESTRESN> ;
    rdf:_7 <https://w3id.org/cdisc/cosmos/dss/RE/ELSTNCE_RE/RESTRESU> ;
    rdf:_8 <https://w3id.org/cdisc/cosmos/dss/RE/ELSTNCE_RE/REDTC> ;
    cosmos_sdtm:biomedicalConceptId NCIT:C135493 ;
    cosmos_sdtm:domain "RE" ;
    cosmos_sdtm:packageDate "2026-05-26"^^xsd:date ;
    cosmos_sdtm:packageType <https://www.cdisc.org/cosmos/sdtm_v1.0/PackageTypeEnum#sdtm> ;
    cosmos_sdtm:sdtmigStartVersion "3-4" ;
    cosmos_sdtm:shortName "Elastance (RE)" ;
    cosmos_sdtm:source "RE.RETESTCD" ;
    cosmos_sdtm:variables <https://w3id.org/cdisc/cosmos/dss/RE/ELSTNCE_RE/REDTC>,
        <https://w3id.org/cdisc/cosmos/dss/RE/ELSTNCE_RE/REORRES>,
        <https://w3id.org/cdisc/cosmos/dss/RE/ELSTNCE_RE/REORRESU>,
        <https://w3id.org/cdisc/cosmos/dss/RE/ELSTNCE_RE/RESTRESC>,
        <https://w3id.org/cdisc/cosmos/dss/RE/ELSTNCE_RE/RESTRESN>,
        <https://w3id.org/cdisc/cosmos/dss/RE/ELSTNCE_RE/RESTRESU>,
        <https://w3id.org/cdisc/cosmos/dss/RE/ELSTNCE_RE/RETEST>,
        <https://w3id.org/cdisc/cosmos/dss/RE/ELSTNCE_RE/RETESTCD> .

<https://w3id.org/cdisc/cosmos/dss/RE/ERVPP_RE> a cosmos_sdtm:SDTMGroup ;
    dcterms:identifier "ERVPP_RE" ;
    rdf:_1 <https://w3id.org/cdisc/cosmos/dss/RE/ERVPP_RE/RETESTCD> ;
    rdf:_2 <https://w3id.org/cdisc/cosmos/dss/RE/ERVPP_RE/RETEST> ;
    rdf:_3 <https://w3id.org/cdisc/cosmos/dss/RE/ERVPP_RE/REORRES> ;
    rdf:_4 <https://w3id.org/cdisc/cosmos/dss/RE/ERVPP_RE/REORRESU> ;
    rdf:_5 <https://w3id.org/cdisc/cosmos/dss/RE/ERVPP_RE/RESTRESC> ;
    rdf:_6 <https://w3id.org/cdisc/cosmos/dss/RE/ERVPP_RE/RESTRESN> ;
    rdf:_7 <https://w3id.org/cdisc/cosmos/dss/RE/ERVPP_RE/RESTRESU> ;
    rdf:_8 <https://w3id.org/cdisc/cosmos/dss/RE/ERVPP_RE/REDTC> ;
    cosmos_sdtm:biomedicalConceptId NCIT:C112375 ;
    cosmos_sdtm:domain "RE" ;
    cosmos_sdtm:packageDate "2026-05-26"^^xsd:date ;
    cosmos_sdtm:packageType <https://www.cdisc.org/cosmos/sdtm_v1.0/PackageTypeEnum#sdtm> ;
    cosmos_sdtm:sdtmigStartVersion "3-4" ;
    cosmos_sdtm:shortName "Percent Predicted ERV (RE)" ;
    cosmos_sdtm:source "RE.RETESTCD" ;
    cosmos_sdtm:variables <https://w3id.org/cdisc/cosmos/dss/RE/ERVPP_RE/REDTC>,
        <https://w3id.org/cdisc/cosmos/dss/RE/ERVPP_RE/REORRES>,
        <https://w3id.org/cdisc/cosmos/dss/RE/ERVPP_RE/REORRESU>,
        <https://w3id.org/cdisc/cosmos/dss/RE/ERVPP_RE/RESTRESC>,
        <https://w3id.org/cdisc/cosmos/dss/RE/ERVPP_RE/RESTRESN>,
        <https://w3id.org/cdisc/cosmos/dss/RE/ERVPP_RE/RESTRESU>,
        <https://w3id.org/cdisc/cosmos/dss/RE/ERVPP_RE/RETEST>,
        <https://w3id.org/cdisc/cosmos/dss/RE/ERVPP_RE/RETESTCD> .

<https://w3id.org/cdisc/cosmos/dss/RE/ERV_RE> a cosmos_sdtm:SDTMGroup ;
    dcterms:identifier "ERV_RE" ;
    rdf:_1 <https://w3id.org/cdisc/cosmos/dss/RE/ERV_RE/RETESTCD> ;
    rdf:_2 <https://w3id.org/cdisc/cosmos/dss/RE/ERV_RE/RETEST> ;
    rdf:_3 <https://w3id.org/cdisc/cosmos/dss/RE/ERV_RE/REORRES> ;
    rdf:_4 <https://w3id.org/cdisc/cosmos/dss/RE/ERV_RE/REORRESU> ;
    rdf:_5 <https://w3id.org/cdisc/cosmos/dss/RE/ERV_RE/RESTRESC> ;
    rdf:_6 <https://w3id.org/cdisc/cosmos/dss/RE/ERV_RE/RESTRESN> ;
    rdf:_7 <https://w3id.org/cdisc/cosmos/dss/RE/ERV_RE/RESTRESU> ;
    rdf:_8 <https://w3id.org/cdisc/cosmos/dss/RE/ERV_RE/REDTC> ;
    cosmos_sdtm:biomedicalConceptId NCIT:C111200 ;
    cosmos_sdtm:domain "RE" ;
    cosmos_sdtm:packageDate "2026-05-26"^^xsd:date ;
    cosmos_sdtm:packageType <https://www.cdisc.org/cosmos/sdtm_v1.0/PackageTypeEnum#sdtm> ;
    cosmos_sdtm:sdtmigStartVersion "3-4" ;
    cosmos_sdtm:shortName "Expiratory Reserve Volume (RE)" ;
    cosmos_sdtm:source "RE.RETESTCD" ;
    cosmos_sdtm:variables <https://w3id.org/cdisc/cosmos/dss/RE/ERV_RE/REDTC>,
        <https://w3id.org/cdisc/cosmos/dss/RE/ERV_RE/REORRES>,
        <https://w3id.org/cdisc/cosmos/dss/RE/ERV_RE/REORRESU>,
        <https://w3id.org/cdisc/cosmos/dss/RE/ERV_RE/RESTRESC>,
        <https://w3id.org/cdisc/cosmos/dss/RE/ERV_RE/RESTRESN>,
        <https://w3id.org/cdisc/cosmos/dss/RE/ERV_RE/RESTRESU>,
        <https://w3id.org/cdisc/cosmos/dss/RE/ERV_RE/RETEST>,
        <https://w3id.org/cdisc/cosmos/dss/RE/ERV_RE/RETESTCD> .

<https://w3id.org/cdisc/cosmos/dss/RE/EVCPP_RE> a cosmos_sdtm:SDTMGroup ;
    dcterms:identifier "EVCPP_RE" ;
    rdf:_1 <https://w3id.org/cdisc/cosmos/dss/RE/EVCPP_RE/RETESTCD> ;
    rdf:_2 <https://w3id.org/cdisc/cosmos/dss/RE/EVCPP_RE/RETEST> ;
    rdf:_3 <https://w3id.org/cdisc/cosmos/dss/RE/EVCPP_RE/REORRES> ;
    rdf:_4 <https://w3id.org/cdisc/cosmos/dss/RE/EVCPP_RE/REORRESU> ;
    rdf:_5 <https://w3id.org/cdisc/cosmos/dss/RE/EVCPP_RE/RESTRESC> ;
    rdf:_6 <https://w3id.org/cdisc/cosmos/dss/RE/EVCPP_RE/RESTRESN> ;
    rdf:_7 <https://w3id.org/cdisc/cosmos/dss/RE/EVCPP_RE/RESTRESU> ;
    rdf:_8 <https://w3id.org/cdisc/cosmos/dss/RE/EVCPP_RE/REDTC> ;
    cosmos_sdtm:biomedicalConceptId NCIT:C199984 ;
    cosmos_sdtm:domain "RE" ;
    cosmos_sdtm:packageDate "2026-05-26"^^xsd:date ;
    cosmos_sdtm:packageType <https://www.cdisc.org/cosmos/sdtm_v1.0/PackageTypeEnum#sdtm> ;
    cosmos_sdtm:sdtmigStartVersion "3-4" ;
    cosmos_sdtm:shortName "Percent Predicted EVC (RE)" ;
    cosmos_sdtm:source "RE.RETESTCD" ;
    cosmos_sdtm:variables <https://w3id.org/cdisc/cosmos/dss/RE/EVCPP_RE/REDTC>,
        <https://w3id.org/cdisc/cosmos/dss/RE/EVCPP_RE/REORRES>,
        <https://w3id.org/cdisc/cosmos/dss/RE/EVCPP_RE/REORRESU>,
        <https://w3id.org/cdisc/cosmos/dss/RE/EVCPP_RE/RESTRESC>,
        <https://w3id.org/cdisc/cosmos/dss/RE/EVCPP_RE/RESTRESN>,
        <https://w3id.org/cdisc/cosmos/dss/RE/EVCPP_RE/RESTRESU>,
        <https://w3id.org/cdisc/cosmos/dss/RE/EVCPP_RE/RETEST>,
        <https://w3id.org/cdisc/cosmos/dss/RE/EVCPP_RE/RETESTCD> .

<https://w3id.org/cdisc/cosmos/dss/RE/EVC_RE> a cosmos_sdtm:SDTMGroup ;
    dcterms:identifier "EVC_RE" ;
    rdf:_1 <https://w3id.org/cdisc/cosmos/dss/RE/EVC_RE/RETESTCD> ;
    rdf:_2 <https://w3id.org/cdisc/cosmos/dss/RE/EVC_RE/RETEST> ;
    rdf:_3 <https://w3id.org/cdisc/cosmos/dss/RE/EVC_RE/REORRES> ;
    rdf:_4 <https://w3id.org/cdisc/cosmos/dss/RE/EVC_RE/REORRESU> ;
    rdf:_5 <https://w3id.org/cdisc/cosmos/dss/RE/EVC_RE/RESTRESC> ;
    rdf:_6 <https://w3id.org/cdisc/cosmos/dss/RE/EVC_RE/RESTRESN> ;
    rdf:_7 <https://w3id.org/cdisc/cosmos/dss/RE/EVC_RE/RESTRESU> ;
    rdf:_8 <https://w3id.org/cdisc/cosmos/dss/RE/EVC_RE/REDTC> ;
    cosmos_sdtm:biomedicalConceptId NCIT:C147484 ;
    cosmos_sdtm:domain "RE" ;
    cosmos_sdtm:packageDate "2026-05-26"^^xsd:date ;
    cosmos_sdtm:packageType <https://www.cdisc.org/cosmos/sdtm_v1.0/PackageTypeEnum#sdtm> ;
    cosmos_sdtm:sdtmigStartVersion "3-4" ;
    cosmos_sdtm:shortName "Expiratory Vital Capacity (RE)" ;
    cosmos_sdtm:source "RE.RETESTCD" ;
    cosmos_sdtm:variables <https://w3id.org/cdisc/cosmos/dss/RE/EVC_RE/REDTC>,
        <https://w3id.org/cdisc/cosmos/dss/RE/EVC_RE/REORRES>,
        <https://w3id.org/cdisc/cosmos/dss/RE/EVC_RE/REORRESU>,
        <https://w3id.org/cdisc/cosmos/dss/RE/EVC_RE/RESTRESC>,
        <https://w3id.org/cdisc/cosmos/dss/RE/EVC_RE/RESTRESN>,
        <https://w3id.org/cdisc/cosmos/dss/RE/EVC_RE/RESTRESU>,
        <https://w3id.org/cdisc/cosmos/dss/RE/EVC_RE/RETEST>,
        <https://w3id.org/cdisc/cosmos/dss/RE/EVC_RE/RETESTCD> .

<https://w3id.org/cdisc/cosmos/dss/RE/EV_05FVC_RE> a cosmos_sdtm:SDTMGroup ;
    dcterms:identifier "EV_05FVC_RE" ;
    rdf:_1 <https://w3id.org/cdisc/cosmos/dss/RE/EV_05FVC_RE/RETESTCD> ;
    rdf:_2 <https://w3id.org/cdisc/cosmos/dss/RE/EV_05FVC_RE/RETEST> ;
    rdf:_3 <https://w3id.org/cdisc/cosmos/dss/RE/EV_05FVC_RE/REORRES> ;
    rdf:_4 <https://w3id.org/cdisc/cosmos/dss/RE/EV_05FVC_RE/REORRESU> ;
    rdf:_5 <https://w3id.org/cdisc/cosmos/dss/RE/EV_05FVC_RE/RESTRESC> ;
    rdf:_6 <https://w3id.org/cdisc/cosmos/dss/RE/EV_05FVC_RE/RESTRESN> ;
    rdf:_7 <https://w3id.org/cdisc/cosmos/dss/RE/EV_05FVC_RE/RESTRESU> ;
    rdf:_8 <https://w3id.org/cdisc/cosmos/dss/RE/EV_05FVC_RE/REDTC> ;
    cosmos_sdtm:biomedicalConceptId NCIT:C139243 ;
    cosmos_sdtm:domain "RE" ;
    cosmos_sdtm:packageDate "2026-05-26"^^xsd:date ;
    cosmos_sdtm:packageType <https://www.cdisc.org/cosmos/sdtm_v1.0/PackageTypeEnum#sdtm> ;
    cosmos_sdtm:sdtmigStartVersion "3-4" ;
    cosmos_sdtm:shortName "Forced Expiratory Volume in 0.05 S/FVC (RE)" ;
    cosmos_sdtm:source "RE.RETESTCD" ;
    cosmos_sdtm:variables <https://w3id.org/cdisc/cosmos/dss/RE/EV_05FVC_RE/REDTC>,
        <https://w3id.org/cdisc/cosmos/dss/RE/EV_05FVC_RE/REORRES>,
        <https://w3id.org/cdisc/cosmos/dss/RE/EV_05FVC_RE/REORRESU>,
        <https://w3id.org/cdisc/cosmos/dss/RE/EV_05FVC_RE/RESTRESC>,
        <https://w3id.org/cdisc/cosmos/dss/RE/EV_05FVC_RE/RESTRESN>,
        <https://w3id.org/cdisc/cosmos/dss/RE/EV_05FVC_RE/RESTRESU>,
        <https://w3id.org/cdisc/cosmos/dss/RE/EV_05FVC_RE/RETEST>,
        <https://w3id.org/cdisc/cosmos/dss/RE/EV_05FVC_RE/RETESTCD> .

<https://w3id.org/cdisc/cosmos/dss/RE/EV_1FVC_RE> a cosmos_sdtm:SDTMGroup ;
    dcterms:identifier "EV_1FVC_RE" ;
    rdf:_1 <https://w3id.org/cdisc/cosmos/dss/RE/EV_1FVC_RE/RETESTCD> ;
    rdf:_2 <https://w3id.org/cdisc/cosmos/dss/RE/EV_1FVC_RE/RETEST> ;
    rdf:_3 <https://w3id.org/cdisc/cosmos/dss/RE/EV_1FVC_RE/REORRES> ;
    rdf:_4 <https://w3id.org/cdisc/cosmos/dss/RE/EV_1FVC_RE/REORRESU> ;
    rdf:_5 <https://w3id.org/cdisc/cosmos/dss/RE/EV_1FVC_RE/RESTRESC> ;
    rdf:_6 <https://w3id.org/cdisc/cosmos/dss/RE/EV_1FVC_RE/RESTRESN> ;
    rdf:_7 <https://w3id.org/cdisc/cosmos/dss/RE/EV_1FVC_RE/RESTRESU> ;
    rdf:_8 <https://w3id.org/cdisc/cosmos/dss/RE/EV_1FVC_RE/REDTC> ;
    cosmos_sdtm:biomedicalConceptId NCIT:C139244 ;
    cosmos_sdtm:domain "RE" ;
    cosmos_sdtm:packageDate "2026-05-26"^^xsd:date ;
    cosmos_sdtm:packageType <https://www.cdisc.org/cosmos/sdtm_v1.0/PackageTypeEnum#sdtm> ;
    cosmos_sdtm:sdtmigStartVersion "3-4" ;
    cosmos_sdtm:shortName "Forced Expiratory Volume in 0.1 S/FVC (RE)" ;
    cosmos_sdtm:source "RE.RETESTCD" ;
    cosmos_sdtm:variables <https://w3id.org/cdisc/cosmos/dss/RE/EV_1FVC_RE/REDTC>,
        <https://w3id.org/cdisc/cosmos/dss/RE/EV_1FVC_RE/REORRES>,
        <https://w3id.org/cdisc/cosmos/dss/RE/EV_1FVC_RE/REORRESU>,
        <https://w3id.org/cdisc/cosmos/dss/RE/EV_1FVC_RE/RESTRESC>,
        <https://w3id.org/cdisc/cosmos/dss/RE/EV_1FVC_RE/RESTRESN>,
        <https://w3id.org/cdisc/cosmos/dss/RE/EV_1FVC_RE/RESTRESU>,
        <https://w3id.org/cdisc/cosmos/dss/RE/EV_1FVC_RE/RETEST>,
        <https://w3id.org/cdisc/cosmos/dss/RE/EV_1FVC_RE/RETESTCD> .

<https://w3id.org/cdisc/cosmos/dss/RE/EV_2FVC_RE> a cosmos_sdtm:SDTMGroup ;
    dcterms:identifier "EV_2FVC_RE" ;
    rdf:_1 <https://w3id.org/cdisc/cosmos/dss/RE/EV_2FVC_RE/RETESTCD> ;
    rdf:_2 <https://w3id.org/cdisc/cosmos/dss/RE/EV_2FVC_RE/RETEST> ;
    rdf:_3 <https://w3id.org/cdisc/cosmos/dss/RE/EV_2FVC_RE/REORRES> ;
    rdf:_4 <https://w3id.org/cdisc/cosmos/dss/RE/EV_2FVC_RE/REORRESU> ;
    rdf:_5 <https://w3id.org/cdisc/cosmos/dss/RE/EV_2FVC_RE/RESTRESC> ;
    rdf:_6 <https://w3id.org/cdisc/cosmos/dss/RE/EV_2FVC_RE/RESTRESN> ;
    rdf:_7 <https://w3id.org/cdisc/cosmos/dss/RE/EV_2FVC_RE/RESTRESU> ;
    rdf:_8 <https://w3id.org/cdisc/cosmos/dss/RE/EV_2FVC_RE/REDTC> ;
    cosmos_sdtm:biomedicalConceptId NCIT:C139245 ;
    cosmos_sdtm:domain "RE" ;
    cosmos_sdtm:packageDate "2026-05-26"^^xsd:date ;
    cosmos_sdtm:packageType <https://www.cdisc.org/cosmos/sdtm_v1.0/PackageTypeEnum#sdtm> ;
    cosmos_sdtm:sdtmigStartVersion "3-4" ;
    cosmos_sdtm:shortName "Forced Expiratory Volume in 0.2 S/FVC (RE)" ;
    cosmos_sdtm:source "RE.RETESTCD" ;
    cosmos_sdtm:variables <https://w3id.org/cdisc/cosmos/dss/RE/EV_2FVC_RE/REDTC>,
        <https://w3id.org/cdisc/cosmos/dss/RE/EV_2FVC_RE/REORRES>,
        <https://w3id.org/cdisc/cosmos/dss/RE/EV_2FVC_RE/REORRESU>,
        <https://w3id.org/cdisc/cosmos/dss/RE/EV_2FVC_RE/RESTRESC>,
        <https://w3id.org/cdisc/cosmos/dss/RE/EV_2FVC_RE/RESTRESN>,
        <https://w3id.org/cdisc/cosmos/dss/RE/EV_2FVC_RE/RESTRESU>,
        <https://w3id.org/cdisc/cosmos/dss/RE/EV_2FVC_RE/RETEST>,
        <https://w3id.org/cdisc/cosmos/dss/RE/EV_2FVC_RE/RETESTCD> .

<https://w3id.org/cdisc/cosmos/dss/RE/EXPRELTM_RE> a cosmos_sdtm:SDTMGroup ;
    dcterms:identifier "EXPRELTM_RE" ;
    rdf:_1 <https://w3id.org/cdisc/cosmos/dss/RE/EXPRELTM_RE/RETESTCD> ;
    rdf:_2 <https://w3id.org/cdisc/cosmos/dss/RE/EXPRELTM_RE/RETEST> ;
    rdf:_3 <https://w3id.org/cdisc/cosmos/dss/RE/EXPRELTM_RE/REORRES> ;
    rdf:_4 <https://w3id.org/cdisc/cosmos/dss/RE/EXPRELTM_RE/REORRESU> ;
    rdf:_5 <https://w3id.org/cdisc/cosmos/dss/RE/EXPRELTM_RE/RESTRESC> ;
    rdf:_6 <https://w3id.org/cdisc/cosmos/dss/RE/EXPRELTM_RE/RESTRESN> ;
    rdf:_7 <https://w3id.org/cdisc/cosmos/dss/RE/EXPRELTM_RE/RESTRESU> ;
    rdf:_8 <https://w3id.org/cdisc/cosmos/dss/RE/EXPRELTM_RE/REDTC> ;
    cosmos_sdtm:biomedicalConceptId NCIT:C120931 ;
    cosmos_sdtm:domain "RE" ;
    cosmos_sdtm:packageDate "2026-05-26"^^xsd:date ;
    cosmos_sdtm:packageType <https://www.cdisc.org/cosmos/sdtm_v1.0/PackageTypeEnum#sdtm> ;
    cosmos_sdtm:sdtmigStartVersion "3-4" ;
    cosmos_sdtm:shortName "Expiration Relaxation Time (RE)" ;
    cosmos_sdtm:source "RE.RETESTCD" ;
    cosmos_sdtm:variables <https://w3id.org/cdisc/cosmos/dss/RE/EXPRELTM_RE/REDTC>,
        <https://w3id.org/cdisc/cosmos/dss/RE/EXPRELTM_RE/REORRES>,
        <https://w3id.org/cdisc/cosmos/dss/RE/EXPRELTM_RE/REORRESU>,
        <https://w3id.org/cdisc/cosmos/dss/RE/EXPRELTM_RE/RESTRESC>,
        <https://w3id.org/cdisc/cosmos/dss/RE/EXPRELTM_RE/RESTRESN>,
        <https://w3id.org/cdisc/cosmos/dss/RE/EXPRELTM_RE/RESTRESU>,
        <https://w3id.org/cdisc/cosmos/dss/RE/EXPRELTM_RE/RETEST>,
        <https://w3id.org/cdisc/cosmos/dss/RE/EXPRELTM_RE/RETESTCD> .

<https://w3id.org/cdisc/cosmos/dss/RE/FEF2575P_RE> a cosmos_sdtm:SDTMGroup ;
    dcterms:identifier "FEF2575P_RE" ;
    rdf:_1 <https://w3id.org/cdisc/cosmos/dss/RE/FEF2575P_RE/RETESTCD> ;
    rdf:_2 <https://w3id.org/cdisc/cosmos/dss/RE/FEF2575P_RE/RETEST> ;
    rdf:_3 <https://w3id.org/cdisc/cosmos/dss/RE/FEF2575P_RE/REORRES> ;
    rdf:_4 <https://w3id.org/cdisc/cosmos/dss/RE/FEF2575P_RE/REORRESU> ;
    rdf:_5 <https://w3id.org/cdisc/cosmos/dss/RE/FEF2575P_RE/RESTRESC> ;
    rdf:_6 <https://w3id.org/cdisc/cosmos/dss/RE/FEF2575P_RE/RESTRESN> ;
    rdf:_7 <https://w3id.org/cdisc/cosmos/dss/RE/FEF2575P_RE/RESTRESU> ;
    rdf:_8 <https://w3id.org/cdisc/cosmos/dss/RE/FEF2575P_RE/REDTC> ;
    cosmos_sdtm:biomedicalConceptId NCIT:C119546 ;
    cosmos_sdtm:domain "RE" ;
    cosmos_sdtm:packageDate "2026-05-26"^^xsd:date ;
    cosmos_sdtm:packageType <https://www.cdisc.org/cosmos/sdtm_v1.0/PackageTypeEnum#sdtm> ;
    cosmos_sdtm:sdtmigStartVersion "3-4" ;
    cosmos_sdtm:shortName "Percent Predicted FEF25-75 (RE)" ;
    cosmos_sdtm:source "RE.RETESTCD" ;
    cosmos_sdtm:variables <https://w3id.org/cdisc/cosmos/dss/RE/FEF2575P_RE/REDTC>,
        <https://w3id.org/cdisc/cosmos/dss/RE/FEF2575P_RE/REORRES>,
        <https://w3id.org/cdisc/cosmos/dss/RE/FEF2575P_RE/REORRESU>,
        <https://w3id.org/cdisc/cosmos/dss/RE/FEF2575P_RE/RESTRESC>,
        <https://w3id.org/cdisc/cosmos/dss/RE/FEF2575P_RE/RESTRESN>,
        <https://w3id.org/cdisc/cosmos/dss/RE/FEF2575P_RE/RESTRESU>,
        <https://w3id.org/cdisc/cosmos/dss/RE/FEF2575P_RE/RETEST>,
        <https://w3id.org/cdisc/cosmos/dss/RE/FEF2575P_RE/RETESTCD> .

<https://w3id.org/cdisc/cosmos/dss/RE/FEF2575_RE> a cosmos_sdtm:SDTMGroup ;
    dcterms:identifier "FEF2575_RE" ;
    rdf:_1 <https://w3id.org/cdisc/cosmos/dss/RE/FEF2575_RE/RETESTCD> ;
    rdf:_2 <https://w3id.org/cdisc/cosmos/dss/RE/FEF2575_RE/RETEST> ;
    rdf:_3 <https://w3id.org/cdisc/cosmos/dss/RE/FEF2575_RE/REORRES> ;
    rdf:_4 <https://w3id.org/cdisc/cosmos/dss/RE/FEF2575_RE/REORRESU> ;
    rdf:_5 <https://w3id.org/cdisc/cosmos/dss/RE/FEF2575_RE/RESTRESC> ;
    rdf:_6 <https://w3id.org/cdisc/cosmos/dss/RE/FEF2575_RE/RESTRESN> ;
    rdf:_7 <https://w3id.org/cdisc/cosmos/dss/RE/FEF2575_RE/RESTRESU> ;
    rdf:_8 <https://w3id.org/cdisc/cosmos/dss/RE/FEF2575_RE/REDTC> ;
    cosmos_sdtm:biomedicalConceptId NCIT:C119545 ;
    cosmos_sdtm:domain "RE" ;
    cosmos_sdtm:packageDate "2026-05-26"^^xsd:date ;
    cosmos_sdtm:packageType <https://www.cdisc.org/cosmos/sdtm_v1.0/PackageTypeEnum#sdtm> ;
    cosmos_sdtm:sdtmigStartVersion "3-4" ;
    cosmos_sdtm:shortName "Forced Expiratory Flow 25-75% (RE)" ;
    cosmos_sdtm:source "RE.RETESTCD" ;
    cosmos_sdtm:variables <https://w3id.org/cdisc/cosmos/dss/RE/FEF2575_RE/REDTC>,
        <https://w3id.org/cdisc/cosmos/dss/RE/FEF2575_RE/REORRES>,
        <https://w3id.org/cdisc/cosmos/dss/RE/FEF2575_RE/REORRESU>,
        <https://w3id.org/cdisc/cosmos/dss/RE/FEF2575_RE/RESTRESC>,
        <https://w3id.org/cdisc/cosmos/dss/RE/FEF2575_RE/RESTRESN>,
        <https://w3id.org/cdisc/cosmos/dss/RE/FEF2575_RE/RESTRESU>,
        <https://w3id.org/cdisc/cosmos/dss/RE/FEF2575_RE/RETEST>,
        <https://w3id.org/cdisc/cosmos/dss/RE/FEF2575_RE/RETESTCD> .

<https://w3id.org/cdisc/cosmos/dss/RE/FEF50_RE> a cosmos_sdtm:SDTMGroup ;
    dcterms:identifier "FEF50_RE" ;
    rdf:_1 <https://w3id.org/cdisc/cosmos/dss/RE/FEF50_RE/RETESTCD> ;
    rdf:_2 <https://w3id.org/cdisc/cosmos/dss/RE/FEF50_RE/RETEST> ;
    rdf:_3 <https://w3id.org/cdisc/cosmos/dss/RE/FEF50_RE/REORRES> ;
    rdf:_4 <https://w3id.org/cdisc/cosmos/dss/RE/FEF50_RE/REORRESU> ;
    rdf:_5 <https://w3id.org/cdisc/cosmos/dss/RE/FEF50_RE/RESTRESC> ;
    rdf:_6 <https://w3id.org/cdisc/cosmos/dss/RE/FEF50_RE/RESTRESN> ;
    rdf:_7 <https://w3id.org/cdisc/cosmos/dss/RE/FEF50_RE/RESTRESU> ;
    rdf:_8 <https://w3id.org/cdisc/cosmos/dss/RE/FEF50_RE/REDTC> ;
    cosmos_sdtm:biomedicalConceptId NCIT:C139253 ;
    cosmos_sdtm:domain "RE" ;
    cosmos_sdtm:packageDate "2026-05-26"^^xsd:date ;
    cosmos_sdtm:packageType <https://www.cdisc.org/cosmos/sdtm_v1.0/PackageTypeEnum#sdtm> ;
    cosmos_sdtm:sdtmigStartVersion "3-4" ;
    cosmos_sdtm:shortName "Forced Expiratory Flow 50% (RE)" ;
    cosmos_sdtm:source "RE.RETESTCD" ;
    cosmos_sdtm:variables <https://w3id.org/cdisc/cosmos/dss/RE/FEF50_RE/REDTC>,
        <https://w3id.org/cdisc/cosmos/dss/RE/FEF50_RE/REORRES>,
        <https://w3id.org/cdisc/cosmos/dss/RE/FEF50_RE/REORRESU>,
        <https://w3id.org/cdisc/cosmos/dss/RE/FEF50_RE/RESTRESC>,
        <https://w3id.org/cdisc/cosmos/dss/RE/FEF50_RE/RESTRESN>,
        <https://w3id.org/cdisc/cosmos/dss/RE/FEF50_RE/RESTRESU>,
        <https://w3id.org/cdisc/cosmos/dss/RE/FEF50_RE/RETEST>,
        <https://w3id.org/cdisc/cosmos/dss/RE/FEF50_RE/RETESTCD> .

<https://w3id.org/cdisc/cosmos/dss/RE/FEF_05_RE> a cosmos_sdtm:SDTMGroup ;
    dcterms:identifier "FEF_05_RE" ;
    rdf:_1 <https://w3id.org/cdisc/cosmos/dss/RE/FEF_05_RE/RETESTCD> ;
    rdf:_2 <https://w3id.org/cdisc/cosmos/dss/RE/FEF_05_RE/RETEST> ;
    rdf:_3 <https://w3id.org/cdisc/cosmos/dss/RE/FEF_05_RE/REORRES> ;
    rdf:_4 <https://w3id.org/cdisc/cosmos/dss/RE/FEF_05_RE/REORRESU> ;
    rdf:_5 <https://w3id.org/cdisc/cosmos/dss/RE/FEF_05_RE/RESTRESC> ;
    rdf:_6 <https://w3id.org/cdisc/cosmos/dss/RE/FEF_05_RE/RESTRESN> ;
    rdf:_7 <https://w3id.org/cdisc/cosmos/dss/RE/FEF_05_RE/RESTRESU> ;
    rdf:_8 <https://w3id.org/cdisc/cosmos/dss/RE/FEF_05_RE/REDTC> ;
    cosmos_sdtm:biomedicalConceptId NCIT:C139250 ;
    cosmos_sdtm:domain "RE" ;
    cosmos_sdtm:packageDate "2026-05-26"^^xsd:date ;
    cosmos_sdtm:packageType <https://www.cdisc.org/cosmos/sdtm_v1.0/PackageTypeEnum#sdtm> ;
    cosmos_sdtm:sdtmigStartVersion "3-4" ;
    cosmos_sdtm:shortName "Forced Expiratory Flow in 0.05 Second (RE)" ;
    cosmos_sdtm:source "RE.RETESTCD" ;
    cosmos_sdtm:variables <https://w3id.org/cdisc/cosmos/dss/RE/FEF_05_RE/REDTC>,
        <https://w3id.org/cdisc/cosmos/dss/RE/FEF_05_RE/REORRES>,
        <https://w3id.org/cdisc/cosmos/dss/RE/FEF_05_RE/REORRESU>,
        <https://w3id.org/cdisc/cosmos/dss/RE/FEF_05_RE/RESTRESC>,
        <https://w3id.org/cdisc/cosmos/dss/RE/FEF_05_RE/RESTRESN>,
        <https://w3id.org/cdisc/cosmos/dss/RE/FEF_05_RE/RESTRESU>,
        <https://w3id.org/cdisc/cosmos/dss/RE/FEF_05_RE/RETEST>,
        <https://w3id.org/cdisc/cosmos/dss/RE/FEF_05_RE/RETESTCD> .

<https://w3id.org/cdisc/cosmos/dss/RE/FEF_1_RE> a cosmos_sdtm:SDTMGroup ;
    dcterms:identifier "FEF_1_RE" ;
    rdf:_1 <https://w3id.org/cdisc/cosmos/dss/RE/FEF_1_RE/RETESTCD> ;
    rdf:_2 <https://w3id.org/cdisc/cosmos/dss/RE/FEF_1_RE/RETEST> ;
    rdf:_3 <https://w3id.org/cdisc/cosmos/dss/RE/FEF_1_RE/REORRES> ;
    rdf:_4 <https://w3id.org/cdisc/cosmos/dss/RE/FEF_1_RE/REORRESU> ;
    rdf:_5 <https://w3id.org/cdisc/cosmos/dss/RE/FEF_1_RE/RESTRESC> ;
    rdf:_6 <https://w3id.org/cdisc/cosmos/dss/RE/FEF_1_RE/RESTRESN> ;
    rdf:_7 <https://w3id.org/cdisc/cosmos/dss/RE/FEF_1_RE/RESTRESU> ;
    rdf:_8 <https://w3id.org/cdisc/cosmos/dss/RE/FEF_1_RE/REDTC> ;
    cosmos_sdtm:biomedicalConceptId NCIT:C139251 ;
    cosmos_sdtm:domain "RE" ;
    cosmos_sdtm:packageDate "2026-05-26"^^xsd:date ;
    cosmos_sdtm:packageType <https://www.cdisc.org/cosmos/sdtm_v1.0/PackageTypeEnum#sdtm> ;
    cosmos_sdtm:sdtmigStartVersion "3-4" ;
    cosmos_sdtm:shortName "Forced Expiratory Flow in 0.1 Second (RE)" ;
    cosmos_sdtm:source "RE.RETESTCD" ;
    cosmos_sdtm:variables <https://w3id.org/cdisc/cosmos/dss/RE/FEF_1_RE/REDTC>,
        <https://w3id.org/cdisc/cosmos/dss/RE/FEF_1_RE/REORRES>,
        <https://w3id.org/cdisc/cosmos/dss/RE/FEF_1_RE/REORRESU>,
        <https://w3id.org/cdisc/cosmos/dss/RE/FEF_1_RE/RESTRESC>,
        <https://w3id.org/cdisc/cosmos/dss/RE/FEF_1_RE/RESTRESN>,
        <https://w3id.org/cdisc/cosmos/dss/RE/FEF_1_RE/RESTRESU>,
        <https://w3id.org/cdisc/cosmos/dss/RE/FEF_1_RE/RETEST>,
        <https://w3id.org/cdisc/cosmos/dss/RE/FEF_1_RE/RETESTCD> .

<https://w3id.org/cdisc/cosmos/dss/RE/FEF_2_RE> a cosmos_sdtm:SDTMGroup ;
    dcterms:identifier "FEF_2_RE" ;
    rdf:_1 <https://w3id.org/cdisc/cosmos/dss/RE/FEF_2_RE/RETESTCD> ;
    rdf:_2 <https://w3id.org/cdisc/cosmos/dss/RE/FEF_2_RE/RETEST> ;
    rdf:_3 <https://w3id.org/cdisc/cosmos/dss/RE/FEF_2_RE/REORRES> ;
    rdf:_4 <https://w3id.org/cdisc/cosmos/dss/RE/FEF_2_RE/REORRESU> ;
    rdf:_5 <https://w3id.org/cdisc/cosmos/dss/RE/FEF_2_RE/RESTRESC> ;
    rdf:_6 <https://w3id.org/cdisc/cosmos/dss/RE/FEF_2_RE/RESTRESN> ;
    rdf:_7 <https://w3id.org/cdisc/cosmos/dss/RE/FEF_2_RE/RESTRESU> ;
    rdf:_8 <https://w3id.org/cdisc/cosmos/dss/RE/FEF_2_RE/REDTC> ;
    cosmos_sdtm:biomedicalConceptId NCIT:C139252 ;
    cosmos_sdtm:domain "RE" ;
    cosmos_sdtm:packageDate "2026-05-26"^^xsd:date ;
    cosmos_sdtm:packageType <https://www.cdisc.org/cosmos/sdtm_v1.0/PackageTypeEnum#sdtm> ;
    cosmos_sdtm:sdtmigStartVersion "3-4" ;
    cosmos_sdtm:shortName "Forced Expiratory Flow in 0.2 Second (RE)" ;
    cosmos_sdtm:source "RE.RETESTCD" ;
    cosmos_sdtm:variables <https://w3id.org/cdisc/cosmos/dss/RE/FEF_2_RE/REDTC>,
        <https://w3id.org/cdisc/cosmos/dss/RE/FEF_2_RE/REORRES>,
        <https://w3id.org/cdisc/cosmos/dss/RE/FEF_2_RE/REORRESU>,
        <https://w3id.org/cdisc/cosmos/dss/RE/FEF_2_RE/RESTRESC>,
        <https://w3id.org/cdisc/cosmos/dss/RE/FEF_2_RE/RESTRESN>,
        <https://w3id.org/cdisc/cosmos/dss/RE/FEF_2_RE/RESTRESU>,
        <https://w3id.org/cdisc/cosmos/dss/RE/FEF_2_RE/RETEST>,
        <https://w3id.org/cdisc/cosmos/dss/RE/FEF_2_RE/RETESTCD> .

<https://w3id.org/cdisc/cosmos/dss/RE/FET_RE> a cosmos_sdtm:SDTMGroup ;
    dcterms:identifier "FET_RE" ;
    rdf:_1 <https://w3id.org/cdisc/cosmos/dss/RE/FET_RE/RETESTCD> ;
    rdf:_2 <https://w3id.org/cdisc/cosmos/dss/RE/FET_RE/RETEST> ;
    rdf:_3 <https://w3id.org/cdisc/cosmos/dss/RE/FET_RE/REORRES> ;
    rdf:_4 <https://w3id.org/cdisc/cosmos/dss/RE/FET_RE/REORRESU> ;
    rdf:_5 <https://w3id.org/cdisc/cosmos/dss/RE/FET_RE/RESTRESC> ;
    rdf:_6 <https://w3id.org/cdisc/cosmos/dss/RE/FET_RE/RESTRESN> ;
    rdf:_7 <https://w3id.org/cdisc/cosmos/dss/RE/FET_RE/RESTRESU> ;
    rdf:_8 <https://w3id.org/cdisc/cosmos/dss/RE/FET_RE/REDTC> ;
    cosmos_sdtm:biomedicalConceptId NCIT:C201471 ;
    cosmos_sdtm:domain "RE" ;
    cosmos_sdtm:packageDate "2026-05-26"^^xsd:date ;
    cosmos_sdtm:packageType <https://www.cdisc.org/cosmos/sdtm_v1.0/PackageTypeEnum#sdtm> ;
    cosmos_sdtm:sdtmigStartVersion "3-4" ;
    cosmos_sdtm:shortName "Forced Expiratory Time (RE)" ;
    cosmos_sdtm:source "RE.RETESTCD" ;
    cosmos_sdtm:variables <https://w3id.org/cdisc/cosmos/dss/RE/FET_RE/REDTC>,
        <https://w3id.org/cdisc/cosmos/dss/RE/FET_RE/REORRES>,
        <https://w3id.org/cdisc/cosmos/dss/RE/FET_RE/REORRESU>,
        <https://w3id.org/cdisc/cosmos/dss/RE/FET_RE/RESTRESC>,
        <https://w3id.org/cdisc/cosmos/dss/RE/FET_RE/RESTRESN>,
        <https://w3id.org/cdisc/cosmos/dss/RE/FET_RE/RESTRESU>,
        <https://w3id.org/cdisc/cosmos/dss/RE/FET_RE/RETEST>,
        <https://w3id.org/cdisc/cosmos/dss/RE/FET_RE/RETESTCD> .

<https://w3id.org/cdisc/cosmos/dss/RE/FEV1FVC6_RE> a cosmos_sdtm:SDTMGroup ;
    dcterms:identifier "FEV1FVC6_RE" ;
    rdf:_1 <https://w3id.org/cdisc/cosmos/dss/RE/FEV1FVC6_RE/RETESTCD> ;
    rdf:_2 <https://w3id.org/cdisc/cosmos/dss/RE/FEV1FVC6_RE/RETEST> ;
    rdf:_3 <https://w3id.org/cdisc/cosmos/dss/RE/FEV1FVC6_RE/REORRES> ;
    rdf:_4 <https://w3id.org/cdisc/cosmos/dss/RE/FEV1FVC6_RE/REORRESU> ;
    rdf:_5 <https://w3id.org/cdisc/cosmos/dss/RE/FEV1FVC6_RE/RESTRESC> ;
    rdf:_6 <https://w3id.org/cdisc/cosmos/dss/RE/FEV1FVC6_RE/RESTRESN> ;
    rdf:_7 <https://w3id.org/cdisc/cosmos/dss/RE/FEV1FVC6_RE/RESTRESU> ;
    rdf:_8 <https://w3id.org/cdisc/cosmos/dss/RE/FEV1FVC6_RE/REDTC> ;
    cosmos_sdtm:biomedicalConceptId NCIT:C123565 ;
    cosmos_sdtm:domain "RE" ;
    cosmos_sdtm:packageDate "2026-05-26"^^xsd:date ;
    cosmos_sdtm:packageType <https://www.cdisc.org/cosmos/sdtm_v1.0/PackageTypeEnum#sdtm> ;
    cosmos_sdtm:sdtmigStartVersion "3-4" ;
    cosmos_sdtm:shortName "FEV1/FVC6 (RE)" ;
    cosmos_sdtm:source "RE.RETESTCD" ;
    cosmos_sdtm:variables <https://w3id.org/cdisc/cosmos/dss/RE/FEV1FVC6_RE/REDTC>,
        <https://w3id.org/cdisc/cosmos/dss/RE/FEV1FVC6_RE/REORRES>,
        <https://w3id.org/cdisc/cosmos/dss/RE/FEV1FVC6_RE/REORRESU>,
        <https://w3id.org/cdisc/cosmos/dss/RE/FEV1FVC6_RE/RESTRESC>,
        <https://w3id.org/cdisc/cosmos/dss/RE/FEV1FVC6_RE/RESTRESN>,
        <https://w3id.org/cdisc/cosmos/dss/RE/FEV1FVC6_RE/RESTRESU>,
        <https://w3id.org/cdisc/cosmos/dss/RE/FEV1FVC6_RE/RETEST>,
        <https://w3id.org/cdisc/cosmos/dss/RE/FEV1FVC6_RE/RETESTCD> .

<https://w3id.org/cdisc/cosmos/dss/RE/FEV1FVCP_RE> a cosmos_sdtm:SDTMGroup ;
    dcterms:identifier "FEV1FVCP_RE" ;
    rdf:_1 <https://w3id.org/cdisc/cosmos/dss/RE/FEV1FVCP_RE/RETESTCD> ;
    rdf:_2 <https://w3id.org/cdisc/cosmos/dss/RE/FEV1FVCP_RE/RETEST> ;
    rdf:_3 <https://w3id.org/cdisc/cosmos/dss/RE/FEV1FVCP_RE/REORRES> ;
    rdf:_4 <https://w3id.org/cdisc/cosmos/dss/RE/FEV1FVCP_RE/REORRESU> ;
    rdf:_5 <https://w3id.org/cdisc/cosmos/dss/RE/FEV1FVCP_RE/RESTRESC> ;
    rdf:_6 <https://w3id.org/cdisc/cosmos/dss/RE/FEV1FVCP_RE/RESTRESN> ;
    rdf:_7 <https://w3id.org/cdisc/cosmos/dss/RE/FEV1FVCP_RE/RESTRESU> ;
    rdf:_8 <https://w3id.org/cdisc/cosmos/dss/RE/FEV1FVCP_RE/REDTC> ;
    cosmos_sdtm:biomedicalConceptId NCIT:C112377 ;
    cosmos_sdtm:domain "RE" ;
    cosmos_sdtm:packageDate "2026-05-26"^^xsd:date ;
    cosmos_sdtm:packageType <https://www.cdisc.org/cosmos/sdtm_v1.0/PackageTypeEnum#sdtm> ;
    cosmos_sdtm:sdtmigStartVersion "3-4" ;
    cosmos_sdtm:shortName "Percent Predicted FEV1/FVC (RE)" ;
    cosmos_sdtm:source "RE.RETESTCD" ;
    cosmos_sdtm:variables <https://w3id.org/cdisc/cosmos/dss/RE/FEV1FVCP_RE/REDTC>,
        <https://w3id.org/cdisc/cosmos/dss/RE/FEV1FVCP_RE/REORRES>,
        <https://w3id.org/cdisc/cosmos/dss/RE/FEV1FVCP_RE/REORRESU>,
        <https://w3id.org/cdisc/cosmos/dss/RE/FEV1FVCP_RE/RESTRESC>,
        <https://w3id.org/cdisc/cosmos/dss/RE/FEV1FVCP_RE/RESTRESN>,
        <https://w3id.org/cdisc/cosmos/dss/RE/FEV1FVCP_RE/RESTRESU>,
        <https://w3id.org/cdisc/cosmos/dss/RE/FEV1FVCP_RE/RETEST>,
        <https://w3id.org/cdisc/cosmos/dss/RE/FEV1FVCP_RE/RETESTCD> .

<https://w3id.org/cdisc/cosmos/dss/RE/FEV1FVC_RE> a cosmos_sdtm:SDTMGroup ;
    dcterms:identifier "FEV1FVC_RE" ;
    rdf:_1 <https://w3id.org/cdisc/cosmos/dss/RE/FEV1FVC_RE/RETESTCD> ;
    rdf:_2 <https://w3id.org/cdisc/cosmos/dss/RE/FEV1FVC_RE/RETEST> ;
    rdf:_3 <https://w3id.org/cdisc/cosmos/dss/RE/FEV1FVC_RE/REORRES> ;
    rdf:_4 <https://w3id.org/cdisc/cosmos/dss/RE/FEV1FVC_RE/REORRESU> ;
    rdf:_5 <https://w3id.org/cdisc/cosmos/dss/RE/FEV1FVC_RE/RESTRESC> ;
    rdf:_6 <https://w3id.org/cdisc/cosmos/dss/RE/FEV1FVC_RE/RESTRESN> ;
    rdf:_7 <https://w3id.org/cdisc/cosmos/dss/RE/FEV1FVC_RE/RESTRESU> ;
    rdf:_8 <https://w3id.org/cdisc/cosmos/dss/RE/FEV1FVC_RE/REDTC> ;
    cosmos_sdtm:biomedicalConceptId NCIT:C111359 ;
    cosmos_sdtm:domain "RE" ;
    cosmos_sdtm:packageDate "2026-05-26"^^xsd:date ;
    cosmos_sdtm:packageType <https://www.cdisc.org/cosmos/sdtm_v1.0/PackageTypeEnum#sdtm> ;
    cosmos_sdtm:sdtmigStartVersion "3-4" ;
    cosmos_sdtm:shortName "FEV1/FVC (RE)" ;
    cosmos_sdtm:source "RE.RETESTCD" ;
    cosmos_sdtm:variables <https://w3id.org/cdisc/cosmos/dss/RE/FEV1FVC_RE/REDTC>,
        <https://w3id.org/cdisc/cosmos/dss/RE/FEV1FVC_RE/REORRES>,
        <https://w3id.org/cdisc/cosmos/dss/RE/FEV1FVC_RE/REORRESU>,
        <https://w3id.org/cdisc/cosmos/dss/RE/FEV1FVC_RE/RESTRESC>,
        <https://w3id.org/cdisc/cosmos/dss/RE/FEV1FVC_RE/RESTRESN>,
        <https://w3id.org/cdisc/cosmos/dss/RE/FEV1FVC_RE/RESTRESU>,
        <https://w3id.org/cdisc/cosmos/dss/RE/FEV1FVC_RE/RETEST>,
        <https://w3id.org/cdisc/cosmos/dss/RE/FEV1FVC_RE/RETESTCD> .

<https://w3id.org/cdisc/cosmos/dss/RE/FEV1PP_RE> a cosmos_sdtm:SDTMGroup ;
    dcterms:identifier "FEV1PP_RE" ;
    rdf:_1 <https://w3id.org/cdisc/cosmos/dss/RE/FEV1PP_RE/RETESTCD> ;
    rdf:_2 <https://w3id.org/cdisc/cosmos/dss/RE/FEV1PP_RE/RETEST> ;
    rdf:_3 <https://w3id.org/cdisc/cosmos/dss/RE/FEV1PP_RE/REORRES> ;
    rdf:_4 <https://w3id.org/cdisc/cosmos/dss/RE/FEV1PP_RE/REORRESU> ;
    rdf:_5 <https://w3id.org/cdisc/cosmos/dss/RE/FEV1PP_RE/RESTRESC> ;
    rdf:_6 <https://w3id.org/cdisc/cosmos/dss/RE/FEV1PP_RE/RESTRESN> ;
    rdf:_7 <https://w3id.org/cdisc/cosmos/dss/RE/FEV1PP_RE/RESTRESU> ;
    rdf:_8 <https://w3id.org/cdisc/cosmos/dss/RE/FEV1PP_RE/REDTC> ;
    cosmos_sdtm:biomedicalConceptId NCIT:C112376 ;
    cosmos_sdtm:domain "RE" ;
    cosmos_sdtm:packageDate "2026-05-26"^^xsd:date ;
    cosmos_sdtm:packageType <https://www.cdisc.org/cosmos/sdtm_v1.0/PackageTypeEnum#sdtm> ;
    cosmos_sdtm:sdtmigStartVersion "3-4" ;
    cosmos_sdtm:shortName "Percent Predicted FEV1 (RE)" ;
    cosmos_sdtm:source "RE.RETESTCD" ;
    cosmos_sdtm:variables <https://w3id.org/cdisc/cosmos/dss/RE/FEV1PP_RE/REDTC>,
        <https://w3id.org/cdisc/cosmos/dss/RE/FEV1PP_RE/REORRES>,
        <https://w3id.org/cdisc/cosmos/dss/RE/FEV1PP_RE/REORRESU>,
        <https://w3id.org/cdisc/cosmos/dss/RE/FEV1PP_RE/RESTRESC>,
        <https://w3id.org/cdisc/cosmos/dss/RE/FEV1PP_RE/RESTRESN>,
        <https://w3id.org/cdisc/cosmos/dss/RE/FEV1PP_RE/RESTRESU>,
        <https://w3id.org/cdisc/cosmos/dss/RE/FEV1PP_RE/RETEST>,
        <https://w3id.org/cdisc/cosmos/dss/RE/FEV1PP_RE/RETESTCD> .

<https://w3id.org/cdisc/cosmos/dss/RE/FEV1REV_RE> a cosmos_sdtm:SDTMGroup ;
    dcterms:identifier "FEV1REV_RE" ;
    rdf:_1 <https://w3id.org/cdisc/cosmos/dss/RE/FEV1REV_RE/RETESTCD> ;
    rdf:_2 <https://w3id.org/cdisc/cosmos/dss/RE/FEV1REV_RE/RETEST> ;
    rdf:_3 <https://w3id.org/cdisc/cosmos/dss/RE/FEV1REV_RE/REORRES> ;
    rdf:_4 <https://w3id.org/cdisc/cosmos/dss/RE/FEV1REV_RE/RESTRESC> ;
    rdf:_5 <https://w3id.org/cdisc/cosmos/dss/RE/FEV1REV_RE/RESTRESN> ;
    rdf:_6 <https://w3id.org/cdisc/cosmos/dss/RE/FEV1REV_RE/REDTC> ;
    cosmos_sdtm:biomedicalConceptId NCIT:C112285 ;
    cosmos_sdtm:domain "RE" ;
    cosmos_sdtm:packageDate "2026-05-26"^^xsd:date ;
    cosmos_sdtm:packageType <https://www.cdisc.org/cosmos/sdtm_v1.0/PackageTypeEnum#sdtm> ;
    cosmos_sdtm:sdtmigStartVersion "3-4" ;
    cosmos_sdtm:shortName "FEV1 Reversibility (RE)" ;
    cosmos_sdtm:source "RE.RETESTCD" ;
    cosmos_sdtm:variables <https://w3id.org/cdisc/cosmos/dss/RE/FEV1REV_RE/REDTC>,
        <https://w3id.org/cdisc/cosmos/dss/RE/FEV1REV_RE/REORRES>,
        <https://w3id.org/cdisc/cosmos/dss/RE/FEV1REV_RE/RESTRESC>,
        <https://w3id.org/cdisc/cosmos/dss/RE/FEV1REV_RE/RESTRESN>,
        <https://w3id.org/cdisc/cosmos/dss/RE/FEV1REV_RE/RETEST>,
        <https://w3id.org/cdisc/cosmos/dss/RE/FEV1REV_RE/RETESTCD> .

<https://w3id.org/cdisc/cosmos/dss/RE/FEV1SVC_RE> a cosmos_sdtm:SDTMGroup ;
    dcterms:identifier "FEV1SVC_RE" ;
    rdf:_1 <https://w3id.org/cdisc/cosmos/dss/RE/FEV1SVC_RE/RETESTCD> ;
    rdf:_2 <https://w3id.org/cdisc/cosmos/dss/RE/FEV1SVC_RE/RETEST> ;
    rdf:_3 <https://w3id.org/cdisc/cosmos/dss/RE/FEV1SVC_RE/REORRES> ;
    rdf:_4 <https://w3id.org/cdisc/cosmos/dss/RE/FEV1SVC_RE/REORRESU> ;
    rdf:_5 <https://w3id.org/cdisc/cosmos/dss/RE/FEV1SVC_RE/RESTRESC> ;
    rdf:_6 <https://w3id.org/cdisc/cosmos/dss/RE/FEV1SVC_RE/RESTRESN> ;
    rdf:_7 <https://w3id.org/cdisc/cosmos/dss/RE/FEV1SVC_RE/RESTRESU> ;
    rdf:_8 <https://w3id.org/cdisc/cosmos/dss/RE/FEV1SVC_RE/REDTC> ;
    cosmos_sdtm:biomedicalConceptId NCIT:C170626 ;
    cosmos_sdtm:domain "RE" ;
    cosmos_sdtm:packageDate "2026-05-26"^^xsd:date ;
    cosmos_sdtm:packageType <https://www.cdisc.org/cosmos/sdtm_v1.0/PackageTypeEnum#sdtm> ;
    cosmos_sdtm:sdtmigStartVersion "3-4" ;
    cosmos_sdtm:shortName "FEV1/SVC (RE)" ;
    cosmos_sdtm:source "RE.RETESTCD" ;
    cosmos_sdtm:variables <https://w3id.org/cdisc/cosmos/dss/RE/FEV1SVC_RE/REDTC>,
        <https://w3id.org/cdisc/cosmos/dss/RE/FEV1SVC_RE/REORRES>,
        <https://w3id.org/cdisc/cosmos/dss/RE/FEV1SVC_RE/REORRESU>,
        <https://w3id.org/cdisc/cosmos/dss/RE/FEV1SVC_RE/RESTRESC>,
        <https://w3id.org/cdisc/cosmos/dss/RE/FEV1SVC_RE/RESTRESN>,
        <https://w3id.org/cdisc/cosmos/dss/RE/FEV1SVC_RE/RESTRESU>,
        <https://w3id.org/cdisc/cosmos/dss/RE/FEV1SVC_RE/RETEST>,
        <https://w3id.org/cdisc/cosmos/dss/RE/FEV1SVC_RE/RETESTCD> .

<https://w3id.org/cdisc/cosmos/dss/RE/FEV1_RE> a cosmos_sdtm:SDTMGroup ;
    dcterms:identifier "FEV1_RE" ;
    rdf:_1 <https://w3id.org/cdisc/cosmos/dss/RE/FEV1_RE/RETESTCD> ;
    rdf:_2 <https://w3id.org/cdisc/cosmos/dss/RE/FEV1_RE/RETEST> ;
    rdf:_3 <https://w3id.org/cdisc/cosmos/dss/RE/FEV1_RE/REORRES> ;
    rdf:_4 <https://w3id.org/cdisc/cosmos/dss/RE/FEV1_RE/REORRESU> ;
    rdf:_5 <https://w3id.org/cdisc/cosmos/dss/RE/FEV1_RE/RESTRESC> ;
    rdf:_6 <https://w3id.org/cdisc/cosmos/dss/RE/FEV1_RE/RESTRESN> ;
    rdf:_7 <https://w3id.org/cdisc/cosmos/dss/RE/FEV1_RE/RESTRESU> ;
    rdf:_8 <https://w3id.org/cdisc/cosmos/dss/RE/FEV1_RE/REDTC> ;
    cosmos_sdtm:biomedicalConceptId NCIT:C38084 ;
    cosmos_sdtm:domain "RE" ;
    cosmos_sdtm:packageDate "2026-05-26"^^xsd:date ;
    cosmos_sdtm:packageType <https://www.cdisc.org/cosmos/sdtm_v1.0/PackageTypeEnum#sdtm> ;
    cosmos_sdtm:sdtmigStartVersion "3-4" ;
    cosmos_sdtm:shortName "Forced Expiratory Volume in 1 Second (RE)" ;
    cosmos_sdtm:source "RE.RETESTCD" ;
    cosmos_sdtm:variables <https://w3id.org/cdisc/cosmos/dss/RE/FEV1_RE/REDTC>,
        <https://w3id.org/cdisc/cosmos/dss/RE/FEV1_RE/REORRES>,
        <https://w3id.org/cdisc/cosmos/dss/RE/FEV1_RE/REORRESU>,
        <https://w3id.org/cdisc/cosmos/dss/RE/FEV1_RE/RESTRESC>,
        <https://w3id.org/cdisc/cosmos/dss/RE/FEV1_RE/RESTRESN>,
        <https://w3id.org/cdisc/cosmos/dss/RE/FEV1_RE/RESTRESU>,
        <https://w3id.org/cdisc/cosmos/dss/RE/FEV1_RE/RETEST>,
        <https://w3id.org/cdisc/cosmos/dss/RE/FEV1_RE/RETESTCD> .

<https://w3id.org/cdisc/cosmos/dss/RE/FEV3FVC_RE> a cosmos_sdtm:SDTMGroup ;
    dcterms:identifier "FEV3FVC_RE" ;
    rdf:_1 <https://w3id.org/cdisc/cosmos/dss/RE/FEV3FVC_RE/RETESTCD> ;
    rdf:_2 <https://w3id.org/cdisc/cosmos/dss/RE/FEV3FVC_RE/RETEST> ;
    rdf:_3 <https://w3id.org/cdisc/cosmos/dss/RE/FEV3FVC_RE/REORRES> ;
    rdf:_4 <https://w3id.org/cdisc/cosmos/dss/RE/FEV3FVC_RE/REORRESU> ;
    rdf:_5 <https://w3id.org/cdisc/cosmos/dss/RE/FEV3FVC_RE/RESTRESC> ;
    rdf:_6 <https://w3id.org/cdisc/cosmos/dss/RE/FEV3FVC_RE/RESTRESN> ;
    rdf:_7 <https://w3id.org/cdisc/cosmos/dss/RE/FEV3FVC_RE/RESTRESU> ;
    rdf:_8 <https://w3id.org/cdisc/cosmos/dss/RE/FEV3FVC_RE/REDTC> ;
    cosmos_sdtm:biomedicalConceptId NCIT:C170625 ;
    cosmos_sdtm:domain "RE" ;
    cosmos_sdtm:packageDate "2026-05-26"^^xsd:date ;
    cosmos_sdtm:packageType <https://www.cdisc.org/cosmos/sdtm_v1.0/PackageTypeEnum#sdtm> ;
    cosmos_sdtm:sdtmigStartVersion "3-4" ;
    cosmos_sdtm:shortName "FEV3/FVC (RE)" ;
    cosmos_sdtm:source "RE.RETESTCD" ;
    cosmos_sdtm:variables <https://w3id.org/cdisc/cosmos/dss/RE/FEV3FVC_RE/REDTC>,
        <https://w3id.org/cdisc/cosmos/dss/RE/FEV3FVC_RE/REORRES>,
        <https://w3id.org/cdisc/cosmos/dss/RE/FEV3FVC_RE/REORRESU>,
        <https://w3id.org/cdisc/cosmos/dss/RE/FEV3FVC_RE/RESTRESC>,
        <https://w3id.org/cdisc/cosmos/dss/RE/FEV3FVC_RE/RESTRESN>,
        <https://w3id.org/cdisc/cosmos/dss/RE/FEV3FVC_RE/RESTRESU>,
        <https://w3id.org/cdisc/cosmos/dss/RE/FEV3FVC_RE/RETEST>,
        <https://w3id.org/cdisc/cosmos/dss/RE/FEV3FVC_RE/RETESTCD> .

<https://w3id.org/cdisc/cosmos/dss/RE/FEV3PP_RE> a cosmos_sdtm:SDTMGroup ;
    dcterms:identifier "FEV3PP_RE" ;
    rdf:_1 <https://w3id.org/cdisc/cosmos/dss/RE/FEV3PP_RE/RETESTCD> ;
    rdf:_2 <https://w3id.org/cdisc/cosmos/dss/RE/FEV3PP_RE/RETEST> ;
    rdf:_3 <https://w3id.org/cdisc/cosmos/dss/RE/FEV3PP_RE/REORRES> ;
    rdf:_4 <https://w3id.org/cdisc/cosmos/dss/RE/FEV3PP_RE/REORRESU> ;
    rdf:_5 <https://w3id.org/cdisc/cosmos/dss/RE/FEV3PP_RE/RESTRESC> ;
    rdf:_6 <https://w3id.org/cdisc/cosmos/dss/RE/FEV3PP_RE/RESTRESN> ;
    rdf:_7 <https://w3id.org/cdisc/cosmos/dss/RE/FEV3PP_RE/RESTRESU> ;
    rdf:_8 <https://w3id.org/cdisc/cosmos/dss/RE/FEV3PP_RE/REDTC> ;
    cosmos_sdtm:biomedicalConceptId NCIT:C170627 ;
    cosmos_sdtm:domain "RE" ;
    cosmos_sdtm:packageDate "2026-05-26"^^xsd:date ;
    cosmos_sdtm:packageType <https://www.cdisc.org/cosmos/sdtm_v1.0/PackageTypeEnum#sdtm> ;
    cosmos_sdtm:sdtmigStartVersion "3-4" ;
    cosmos_sdtm:shortName "Percent Predicted FEV3 (RE)" ;
    cosmos_sdtm:source "RE.RETESTCD" ;
    cosmos_sdtm:variables <https://w3id.org/cdisc/cosmos/dss/RE/FEV3PP_RE/REDTC>,
        <https://w3id.org/cdisc/cosmos/dss/RE/FEV3PP_RE/REORRES>,
        <https://w3id.org/cdisc/cosmos/dss/RE/FEV3PP_RE/REORRESU>,
        <https://w3id.org/cdisc/cosmos/dss/RE/FEV3PP_RE/RESTRESC>,
        <https://w3id.org/cdisc/cosmos/dss/RE/FEV3PP_RE/RESTRESN>,
        <https://w3id.org/cdisc/cosmos/dss/RE/FEV3PP_RE/RESTRESU>,
        <https://w3id.org/cdisc/cosmos/dss/RE/FEV3PP_RE/RETEST>,
        <https://w3id.org/cdisc/cosmos/dss/RE/FEV3PP_RE/RETESTCD> .

<https://w3id.org/cdisc/cosmos/dss/RE/FEV3_RE> a cosmos_sdtm:SDTMGroup ;
    dcterms:identifier "FEV3_RE" ;
    rdf:_1 <https://w3id.org/cdisc/cosmos/dss/RE/FEV3_RE/RETESTCD> ;
    rdf:_2 <https://w3id.org/cdisc/cosmos/dss/RE/FEV3_RE/RETEST> ;
    rdf:_3 <https://w3id.org/cdisc/cosmos/dss/RE/FEV3_RE/REORRES> ;
    rdf:_4 <https://w3id.org/cdisc/cosmos/dss/RE/FEV3_RE/REORRESU> ;
    rdf:_5 <https://w3id.org/cdisc/cosmos/dss/RE/FEV3_RE/RESTRESC> ;
    rdf:_6 <https://w3id.org/cdisc/cosmos/dss/RE/FEV3_RE/RESTRESN> ;
    rdf:_7 <https://w3id.org/cdisc/cosmos/dss/RE/FEV3_RE/RESTRESU> ;
    rdf:_8 <https://w3id.org/cdisc/cosmos/dss/RE/FEV3_RE/REDTC> ;
    cosmos_sdtm:biomedicalConceptId NCIT:C132453 ;
    cosmos_sdtm:domain "RE" ;
    cosmos_sdtm:packageDate "2026-05-26"^^xsd:date ;
    cosmos_sdtm:packageType <https://www.cdisc.org/cosmos/sdtm_v1.0/PackageTypeEnum#sdtm> ;
    cosmos_sdtm:sdtmigStartVersion "3-4" ;
    cosmos_sdtm:shortName "Forced Expiratory Volume in 3 Seconds (RE)" ;
    cosmos_sdtm:source "RE.RETESTCD" ;
    cosmos_sdtm:variables <https://w3id.org/cdisc/cosmos/dss/RE/FEV3_RE/REDTC>,
        <https://w3id.org/cdisc/cosmos/dss/RE/FEV3_RE/REORRES>,
        <https://w3id.org/cdisc/cosmos/dss/RE/FEV3_RE/REORRESU>,
        <https://w3id.org/cdisc/cosmos/dss/RE/FEV3_RE/RESTRESC>,
        <https://w3id.org/cdisc/cosmos/dss/RE/FEV3_RE/RESTRESN>,
        <https://w3id.org/cdisc/cosmos/dss/RE/FEV3_RE/RESTRESU>,
        <https://w3id.org/cdisc/cosmos/dss/RE/FEV3_RE/RETEST>,
        <https://w3id.org/cdisc/cosmos/dss/RE/FEV3_RE/RETESTCD> .

<https://w3id.org/cdisc/cosmos/dss/RE/FEV6PP_RE> a cosmos_sdtm:SDTMGroup ;
    dcterms:identifier "FEV6PP_RE" ;
    rdf:_1 <https://w3id.org/cdisc/cosmos/dss/RE/FEV6PP_RE/RETESTCD> ;
    rdf:_2 <https://w3id.org/cdisc/cosmos/dss/RE/FEV6PP_RE/RETEST> ;
    rdf:_3 <https://w3id.org/cdisc/cosmos/dss/RE/FEV6PP_RE/REORRES> ;
    rdf:_4 <https://w3id.org/cdisc/cosmos/dss/RE/FEV6PP_RE/REORRESU> ;
    rdf:_5 <https://w3id.org/cdisc/cosmos/dss/RE/FEV6PP_RE/RESTRESC> ;
    rdf:_6 <https://w3id.org/cdisc/cosmos/dss/RE/FEV6PP_RE/RESTRESN> ;
    rdf:_7 <https://w3id.org/cdisc/cosmos/dss/RE/FEV6PP_RE/RESTRESU> ;
    rdf:_8 <https://w3id.org/cdisc/cosmos/dss/RE/FEV6PP_RE/REDTC> ;
    cosmos_sdtm:biomedicalConceptId NCIT:C112378 ;
    cosmos_sdtm:domain "RE" ;
    cosmos_sdtm:packageDate "2026-05-26"^^xsd:date ;
    cosmos_sdtm:packageType <https://www.cdisc.org/cosmos/sdtm_v1.0/PackageTypeEnum#sdtm> ;
    cosmos_sdtm:sdtmigStartVersion "3-4" ;
    cosmos_sdtm:shortName "Percent Predicted FEV6 (RE)" ;
    cosmos_sdtm:source "RE.RETESTCD" ;
    cosmos_sdtm:variables <https://w3id.org/cdisc/cosmos/dss/RE/FEV6PP_RE/REDTC>,
        <https://w3id.org/cdisc/cosmos/dss/RE/FEV6PP_RE/REORRES>,
        <https://w3id.org/cdisc/cosmos/dss/RE/FEV6PP_RE/REORRESU>,
        <https://w3id.org/cdisc/cosmos/dss/RE/FEV6PP_RE/RESTRESC>,
        <https://w3id.org/cdisc/cosmos/dss/RE/FEV6PP_RE/RESTRESN>,
        <https://w3id.org/cdisc/cosmos/dss/RE/FEV6PP_RE/RESTRESU>,
        <https://w3id.org/cdisc/cosmos/dss/RE/FEV6PP_RE/RETEST>,
        <https://w3id.org/cdisc/cosmos/dss/RE/FEV6PP_RE/RETESTCD> .

<https://w3id.org/cdisc/cosmos/dss/RE/FEV6_RE> a cosmos_sdtm:SDTMGroup ;
    dcterms:identifier "FEV6_RE" ;
    rdf:_1 <https://w3id.org/cdisc/cosmos/dss/RE/FEV6_RE/RETESTCD> ;
    rdf:_2 <https://w3id.org/cdisc/cosmos/dss/RE/FEV6_RE/RETEST> ;
    rdf:_3 <https://w3id.org/cdisc/cosmos/dss/RE/FEV6_RE/REORRES> ;
    rdf:_4 <https://w3id.org/cdisc/cosmos/dss/RE/FEV6_RE/REORRESU> ;
    rdf:_5 <https://w3id.org/cdisc/cosmos/dss/RE/FEV6_RE/RESTRESC> ;
    rdf:_6 <https://w3id.org/cdisc/cosmos/dss/RE/FEV6_RE/RESTRESN> ;
    rdf:_7 <https://w3id.org/cdisc/cosmos/dss/RE/FEV6_RE/RESTRESU> ;
    rdf:_8 <https://w3id.org/cdisc/cosmos/dss/RE/FEV6_RE/REDTC> ;
    cosmos_sdtm:biomedicalConceptId NCIT:C47843 ;
    cosmos_sdtm:domain "RE" ;
    cosmos_sdtm:packageDate "2026-05-26"^^xsd:date ;
    cosmos_sdtm:packageType <https://www.cdisc.org/cosmos/sdtm_v1.0/PackageTypeEnum#sdtm> ;
    cosmos_sdtm:sdtmigStartVersion "3-4" ;
    cosmos_sdtm:shortName "Forced Expiratory Volume in 6 Seconds (RE)" ;
    cosmos_sdtm:source "RE.RETESTCD" ;
    cosmos_sdtm:variables <https://w3id.org/cdisc/cosmos/dss/RE/FEV6_RE/REDTC>,
        <https://w3id.org/cdisc/cosmos/dss/RE/FEV6_RE/REORRES>,
        <https://w3id.org/cdisc/cosmos/dss/RE/FEV6_RE/REORRESU>,
        <https://w3id.org/cdisc/cosmos/dss/RE/FEV6_RE/RESTRESC>,
        <https://w3id.org/cdisc/cosmos/dss/RE/FEV6_RE/RESTRESN>,
        <https://w3id.org/cdisc/cosmos/dss/RE/FEV6_RE/RESTRESU>,
        <https://w3id.org/cdisc/cosmos/dss/RE/FEV6_RE/RETEST>,
        <https://w3id.org/cdisc/cosmos/dss/RE/FEV6_RE/RETESTCD> .

<https://w3id.org/cdisc/cosmos/dss/RE/FEV_05_RE> a cosmos_sdtm:SDTMGroup ;
    dcterms:identifier "FEV_05_RE" ;
    rdf:_1 <https://w3id.org/cdisc/cosmos/dss/RE/FEV_05_RE/RETESTCD> ;
    rdf:_2 <https://w3id.org/cdisc/cosmos/dss/RE/FEV_05_RE/RETEST> ;
    rdf:_3 <https://w3id.org/cdisc/cosmos/dss/RE/FEV_05_RE/REORRES> ;
    rdf:_4 <https://w3id.org/cdisc/cosmos/dss/RE/FEV_05_RE/REORRESU> ;
    rdf:_5 <https://w3id.org/cdisc/cosmos/dss/RE/FEV_05_RE/RESTRESC> ;
    rdf:_6 <https://w3id.org/cdisc/cosmos/dss/RE/FEV_05_RE/RESTRESN> ;
    rdf:_7 <https://w3id.org/cdisc/cosmos/dss/RE/FEV_05_RE/RESTRESU> ;
    rdf:_8 <https://w3id.org/cdisc/cosmos/dss/RE/FEV_05_RE/REDTC> ;
    cosmos_sdtm:biomedicalConceptId NCIT:C139246 ;
    cosmos_sdtm:domain "RE" ;
    cosmos_sdtm:packageDate "2026-05-26"^^xsd:date ;
    cosmos_sdtm:packageType <https://www.cdisc.org/cosmos/sdtm_v1.0/PackageTypeEnum#sdtm> ;
    cosmos_sdtm:sdtmigStartVersion "3-4" ;
    cosmos_sdtm:shortName "Forced Expiratory Volume in 0.05 Second (RE)" ;
    cosmos_sdtm:source "RE.RETESTCD" ;
    cosmos_sdtm:variables <https://w3id.org/cdisc/cosmos/dss/RE/FEV_05_RE/REDTC>,
        <https://w3id.org/cdisc/cosmos/dss/RE/FEV_05_RE/REORRES>,
        <https://w3id.org/cdisc/cosmos/dss/RE/FEV_05_RE/REORRESU>,
        <https://w3id.org/cdisc/cosmos/dss/RE/FEV_05_RE/RESTRESC>,
        <https://w3id.org/cdisc/cosmos/dss/RE/FEV_05_RE/RESTRESN>,
        <https://w3id.org/cdisc/cosmos/dss/RE/FEV_05_RE/RESTRESU>,
        <https://w3id.org/cdisc/cosmos/dss/RE/FEV_05_RE/RETEST>,
        <https://w3id.org/cdisc/cosmos/dss/RE/FEV_05_RE/RETESTCD> .

<https://w3id.org/cdisc/cosmos/dss/RE/FEV_1_RE> a cosmos_sdtm:SDTMGroup ;
    dcterms:identifier "FEV_1_RE" ;
    rdf:_1 <https://w3id.org/cdisc/cosmos/dss/RE/FEV_1_RE/RETESTCD> ;
    rdf:_2 <https://w3id.org/cdisc/cosmos/dss/RE/FEV_1_RE/RETEST> ;
    rdf:_3 <https://w3id.org/cdisc/cosmos/dss/RE/FEV_1_RE/REORRES> ;
    rdf:_4 <https://w3id.org/cdisc/cosmos/dss/RE/FEV_1_RE/REORRESU> ;
    rdf:_5 <https://w3id.org/cdisc/cosmos/dss/RE/FEV_1_RE/RESTRESC> ;
    rdf:_6 <https://w3id.org/cdisc/cosmos/dss/RE/FEV_1_RE/RESTRESN> ;
    rdf:_7 <https://w3id.org/cdisc/cosmos/dss/RE/FEV_1_RE/RESTRESU> ;
    rdf:_8 <https://w3id.org/cdisc/cosmos/dss/RE/FEV_1_RE/REDTC> ;
    cosmos_sdtm:biomedicalConceptId NCIT:C139247 ;
    cosmos_sdtm:domain "RE" ;
    cosmos_sdtm:packageDate "2026-05-26"^^xsd:date ;
    cosmos_sdtm:packageType <https://www.cdisc.org/cosmos/sdtm_v1.0/PackageTypeEnum#sdtm> ;
    cosmos_sdtm:sdtmigStartVersion "3-4" ;
    cosmos_sdtm:shortName "Forced Expiratory Volume in 0.1 Second (RE)" ;
    cosmos_sdtm:source "RE.RETESTCD" ;
    cosmos_sdtm:variables <https://w3id.org/cdisc/cosmos/dss/RE/FEV_1_RE/REDTC>,
        <https://w3id.org/cdisc/cosmos/dss/RE/FEV_1_RE/REORRES>,
        <https://w3id.org/cdisc/cosmos/dss/RE/FEV_1_RE/REORRESU>,
        <https://w3id.org/cdisc/cosmos/dss/RE/FEV_1_RE/RESTRESC>,
        <https://w3id.org/cdisc/cosmos/dss/RE/FEV_1_RE/RESTRESN>,
        <https://w3id.org/cdisc/cosmos/dss/RE/FEV_1_RE/RESTRESU>,
        <https://w3id.org/cdisc/cosmos/dss/RE/FEV_1_RE/RETEST>,
        <https://w3id.org/cdisc/cosmos/dss/RE/FEV_1_RE/RETESTCD> .

<https://w3id.org/cdisc/cosmos/dss/RE/FEV_2_RE> a cosmos_sdtm:SDTMGroup ;
    dcterms:identifier "FEV_2_RE" ;
    rdf:_1 <https://w3id.org/cdisc/cosmos/dss/RE/FEV_2_RE/RETESTCD> ;
    rdf:_2 <https://w3id.org/cdisc/cosmos/dss/RE/FEV_2_RE/RETEST> ;
    rdf:_3 <https://w3id.org/cdisc/cosmos/dss/RE/FEV_2_RE/REORRES> ;
    rdf:_4 <https://w3id.org/cdisc/cosmos/dss/RE/FEV_2_RE/REORRESU> ;
    rdf:_5 <https://w3id.org/cdisc/cosmos/dss/RE/FEV_2_RE/RESTRESC> ;
    rdf:_6 <https://w3id.org/cdisc/cosmos/dss/RE/FEV_2_RE/RESTRESN> ;
    rdf:_7 <https://w3id.org/cdisc/cosmos/dss/RE/FEV_2_RE/RESTRESU> ;
    rdf:_8 <https://w3id.org/cdisc/cosmos/dss/RE/FEV_2_RE/REDTC> ;
    cosmos_sdtm:biomedicalConceptId NCIT:C139248 ;
    cosmos_sdtm:domain "RE" ;
    cosmos_sdtm:packageDate "2026-05-26"^^xsd:date ;
    cosmos_sdtm:packageType <https://www.cdisc.org/cosmos/sdtm_v1.0/PackageTypeEnum#sdtm> ;
    cosmos_sdtm:sdtmigStartVersion "3-4" ;
    cosmos_sdtm:shortName "Forced Expiratory Volume in 0.2 Second (RE)" ;
    cosmos_sdtm:source "RE.RETESTCD" ;
    cosmos_sdtm:variables <https://w3id.org/cdisc/cosmos/dss/RE/FEV_2_RE/REDTC>,
        <https://w3id.org/cdisc/cosmos/dss/RE/FEV_2_RE/REORRES>,
        <https://w3id.org/cdisc/cosmos/dss/RE/FEV_2_RE/REORRESU>,
        <https://w3id.org/cdisc/cosmos/dss/RE/FEV_2_RE/RESTRESC>,
        <https://w3id.org/cdisc/cosmos/dss/RE/FEV_2_RE/RESTRESN>,
        <https://w3id.org/cdisc/cosmos/dss/RE/FEV_2_RE/RESTRESU>,
        <https://w3id.org/cdisc/cosmos/dss/RE/FEV_2_RE/RETEST>,
        <https://w3id.org/cdisc/cosmos/dss/RE/FEV_2_RE/RETESTCD> .

<https://w3id.org/cdisc/cosmos/dss/RE/FEV_5_RE> a cosmos_sdtm:SDTMGroup ;
    dcterms:identifier "FEV_5_RE" ;
    rdf:_1 <https://w3id.org/cdisc/cosmos/dss/RE/FEV_5_RE/RETESTCD> ;
    rdf:_2 <https://w3id.org/cdisc/cosmos/dss/RE/FEV_5_RE/RETEST> ;
    rdf:_3 <https://w3id.org/cdisc/cosmos/dss/RE/FEV_5_RE/REORRES> ;
    rdf:_4 <https://w3id.org/cdisc/cosmos/dss/RE/FEV_5_RE/REORRESU> ;
    rdf:_5 <https://w3id.org/cdisc/cosmos/dss/RE/FEV_5_RE/RESTRESC> ;
    rdf:_6 <https://w3id.org/cdisc/cosmos/dss/RE/FEV_5_RE/RESTRESN> ;
    rdf:_7 <https://w3id.org/cdisc/cosmos/dss/RE/FEV_5_RE/RESTRESU> ;
    rdf:_8 <https://w3id.org/cdisc/cosmos/dss/RE/FEV_5_RE/REDTC> ;
    cosmos_sdtm:biomedicalConceptId NCIT:C139262 ;
    cosmos_sdtm:domain "RE" ;
    cosmos_sdtm:packageDate "2026-05-26"^^xsd:date ;
    cosmos_sdtm:packageType <https://www.cdisc.org/cosmos/sdtm_v1.0/PackageTypeEnum#sdtm> ;
    cosmos_sdtm:sdtmigStartVersion "3-4" ;
    cosmos_sdtm:shortName "Forced Expiratory Volume in 0.5 Second (RE)" ;
    cosmos_sdtm:source "RE.RETESTCD" ;
    cosmos_sdtm:variables <https://w3id.org/cdisc/cosmos/dss/RE/FEV_5_RE/REDTC>,
        <https://w3id.org/cdisc/cosmos/dss/RE/FEV_5_RE/REORRES>,
        <https://w3id.org/cdisc/cosmos/dss/RE/FEV_5_RE/REORRESU>,
        <https://w3id.org/cdisc/cosmos/dss/RE/FEV_5_RE/RESTRESC>,
        <https://w3id.org/cdisc/cosmos/dss/RE/FEV_5_RE/RESTRESN>,
        <https://w3id.org/cdisc/cosmos/dss/RE/FEV_5_RE/RESTRESU>,
        <https://w3id.org/cdisc/cosmos/dss/RE/FEV_5_RE/RETEST>,
        <https://w3id.org/cdisc/cosmos/dss/RE/FEV_5_RE/RETESTCD> .

<https://w3id.org/cdisc/cosmos/dss/RE/FEV_75_RE> a cosmos_sdtm:SDTMGroup ;
    dcterms:identifier "FEV_75_RE" ;
    rdf:_1 <https://w3id.org/cdisc/cosmos/dss/RE/FEV_75_RE/RETESTCD> ;
    rdf:_2 <https://w3id.org/cdisc/cosmos/dss/RE/FEV_75_RE/RETEST> ;
    rdf:_3 <https://w3id.org/cdisc/cosmos/dss/RE/FEV_75_RE/REORRES> ;
    rdf:_4 <https://w3id.org/cdisc/cosmos/dss/RE/FEV_75_RE/REORRESU> ;
    rdf:_5 <https://w3id.org/cdisc/cosmos/dss/RE/FEV_75_RE/RESTRESC> ;
    rdf:_6 <https://w3id.org/cdisc/cosmos/dss/RE/FEV_75_RE/RESTRESN> ;
    rdf:_7 <https://w3id.org/cdisc/cosmos/dss/RE/FEV_75_RE/RESTRESU> ;
    rdf:_8 <https://w3id.org/cdisc/cosmos/dss/RE/FEV_75_RE/REDTC> ;
    cosmos_sdtm:biomedicalConceptId NCIT:C174362 ;
    cosmos_sdtm:domain "RE" ;
    cosmos_sdtm:packageDate "2026-05-26"^^xsd:date ;
    cosmos_sdtm:packageType <https://www.cdisc.org/cosmos/sdtm_v1.0/PackageTypeEnum#sdtm> ;
    cosmos_sdtm:sdtmigStartVersion "3-4" ;
    cosmos_sdtm:shortName "Forced Expiratory Volume in 0.75 Second (RE)" ;
    cosmos_sdtm:source "RE.RETESTCD" ;
    cosmos_sdtm:variables <https://w3id.org/cdisc/cosmos/dss/RE/FEV_75_RE/REDTC>,
        <https://w3id.org/cdisc/cosmos/dss/RE/FEV_75_RE/REORRES>,
        <https://w3id.org/cdisc/cosmos/dss/RE/FEV_75_RE/REORRESU>,
        <https://w3id.org/cdisc/cosmos/dss/RE/FEV_75_RE/RESTRESC>,
        <https://w3id.org/cdisc/cosmos/dss/RE/FEV_75_RE/RESTRESN>,
        <https://w3id.org/cdisc/cosmos/dss/RE/FEV_75_RE/RESTRESU>,
        <https://w3id.org/cdisc/cosmos/dss/RE/FEV_75_RE/RETEST>,
        <https://w3id.org/cdisc/cosmos/dss/RE/FEV_75_RE/RETESTCD> .

<https://w3id.org/cdisc/cosmos/dss/RE/FEV_PEF_RE> a cosmos_sdtm:SDTMGroup ;
    dcterms:identifier "FEV_PEF_RE" ;
    rdf:_1 <https://w3id.org/cdisc/cosmos/dss/RE/FEV_PEF_RE/RETESTCD> ;
    rdf:_2 <https://w3id.org/cdisc/cosmos/dss/RE/FEV_PEF_RE/RETEST> ;
    rdf:_3 <https://w3id.org/cdisc/cosmos/dss/RE/FEV_PEF_RE/REORRES> ;
    rdf:_4 <https://w3id.org/cdisc/cosmos/dss/RE/FEV_PEF_RE/REORRESU> ;
    rdf:_5 <https://w3id.org/cdisc/cosmos/dss/RE/FEV_PEF_RE/RESTRESC> ;
    rdf:_6 <https://w3id.org/cdisc/cosmos/dss/RE/FEV_PEF_RE/RESTRESN> ;
    rdf:_7 <https://w3id.org/cdisc/cosmos/dss/RE/FEV_PEF_RE/RESTRESU> ;
    rdf:_8 <https://w3id.org/cdisc/cosmos/dss/RE/FEV_PEF_RE/REDTC> ;
    cosmos_sdtm:biomedicalConceptId NCIT:C139249 ;
    cosmos_sdtm:domain "RE" ;
    cosmos_sdtm:packageDate "2026-05-26"^^xsd:date ;
    cosmos_sdtm:packageType <https://www.cdisc.org/cosmos/sdtm_v1.0/PackageTypeEnum#sdtm> ;
    cosmos_sdtm:sdtmigStartVersion "3-4" ;
    cosmos_sdtm:shortName "FEV at PEF (RE)" ;
    cosmos_sdtm:source "RE.RETESTCD" ;
    cosmos_sdtm:variables <https://w3id.org/cdisc/cosmos/dss/RE/FEV_PEF_RE/REDTC>,
        <https://w3id.org/cdisc/cosmos/dss/RE/FEV_PEF_RE/REORRES>,
        <https://w3id.org/cdisc/cosmos/dss/RE/FEV_PEF_RE/REORRESU>,
        <https://w3id.org/cdisc/cosmos/dss/RE/FEV_PEF_RE/RESTRESC>,
        <https://w3id.org/cdisc/cosmos/dss/RE/FEV_PEF_RE/RESTRESN>,
        <https://w3id.org/cdisc/cosmos/dss/RE/FEV_PEF_RE/RESTRESU>,
        <https://w3id.org/cdisc/cosmos/dss/RE/FEV_PEF_RE/RETEST>,
        <https://w3id.org/cdisc/cosmos/dss/RE/FEV_PEF_RE/RETESTCD> .

<https://w3id.org/cdisc/cosmos/dss/RE/FIF25_RE> a cosmos_sdtm:SDTMGroup ;
    dcterms:identifier "FIF25_RE" ;
    rdf:_1 <https://w3id.org/cdisc/cosmos/dss/RE/FIF25_RE/RETESTCD> ;
    rdf:_2 <https://w3id.org/cdisc/cosmos/dss/RE/FIF25_RE/RETEST> ;
    rdf:_3 <https://w3id.org/cdisc/cosmos/dss/RE/FIF25_RE/REORRES> ;
    rdf:_4 <https://w3id.org/cdisc/cosmos/dss/RE/FIF25_RE/REORRESU> ;
    rdf:_5 <https://w3id.org/cdisc/cosmos/dss/RE/FIF25_RE/RESTRESC> ;
    rdf:_6 <https://w3id.org/cdisc/cosmos/dss/RE/FIF25_RE/RESTRESN> ;
    rdf:_7 <https://w3id.org/cdisc/cosmos/dss/RE/FIF25_RE/RESTRESU> ;
    rdf:_8 <https://w3id.org/cdisc/cosmos/dss/RE/FIF25_RE/REDTC> ;
    cosmos_sdtm:biomedicalConceptId NCIT:C124418 ;
    cosmos_sdtm:domain "RE" ;
    cosmos_sdtm:packageDate "2026-05-26"^^xsd:date ;
    cosmos_sdtm:packageType <https://www.cdisc.org/cosmos/sdtm_v1.0/PackageTypeEnum#sdtm> ;
    cosmos_sdtm:sdtmigStartVersion "3-4" ;
    cosmos_sdtm:shortName "Forced Inspiratory Flow at 25% (RE)" ;
    cosmos_sdtm:source "RE.RETESTCD" ;
    cosmos_sdtm:variables <https://w3id.org/cdisc/cosmos/dss/RE/FIF25_RE/REDTC>,
        <https://w3id.org/cdisc/cosmos/dss/RE/FIF25_RE/REORRES>,
        <https://w3id.org/cdisc/cosmos/dss/RE/FIF25_RE/REORRESU>,
        <https://w3id.org/cdisc/cosmos/dss/RE/FIF25_RE/RESTRESC>,
        <https://w3id.org/cdisc/cosmos/dss/RE/FIF25_RE/RESTRESN>,
        <https://w3id.org/cdisc/cosmos/dss/RE/FIF25_RE/RESTRESU>,
        <https://w3id.org/cdisc/cosmos/dss/RE/FIF25_RE/RETEST>,
        <https://w3id.org/cdisc/cosmos/dss/RE/FIF25_RE/RETESTCD> .

<https://w3id.org/cdisc/cosmos/dss/RE/FIF50_RE> a cosmos_sdtm:SDTMGroup ;
    dcterms:identifier "FIF50_RE" ;
    rdf:_1 <https://w3id.org/cdisc/cosmos/dss/RE/FIF50_RE/RETESTCD> ;
    rdf:_2 <https://w3id.org/cdisc/cosmos/dss/RE/FIF50_RE/RETEST> ;
    rdf:_3 <https://w3id.org/cdisc/cosmos/dss/RE/FIF50_RE/REORRES> ;
    rdf:_4 <https://w3id.org/cdisc/cosmos/dss/RE/FIF50_RE/REORRESU> ;
    rdf:_5 <https://w3id.org/cdisc/cosmos/dss/RE/FIF50_RE/RESTRESC> ;
    rdf:_6 <https://w3id.org/cdisc/cosmos/dss/RE/FIF50_RE/RESTRESN> ;
    rdf:_7 <https://w3id.org/cdisc/cosmos/dss/RE/FIF50_RE/RESTRESU> ;
    rdf:_8 <https://w3id.org/cdisc/cosmos/dss/RE/FIF50_RE/REDTC> ;
    cosmos_sdtm:biomedicalConceptId NCIT:C124419 ;
    cosmos_sdtm:domain "RE" ;
    cosmos_sdtm:packageDate "2026-05-26"^^xsd:date ;
    cosmos_sdtm:packageType <https://www.cdisc.org/cosmos/sdtm_v1.0/PackageTypeEnum#sdtm> ;
    cosmos_sdtm:sdtmigStartVersion "3-4" ;
    cosmos_sdtm:shortName "Forced Inspiratory Flow at 50% (RE)" ;
    cosmos_sdtm:source "RE.RETESTCD" ;
    cosmos_sdtm:variables <https://w3id.org/cdisc/cosmos/dss/RE/FIF50_RE/REDTC>,
        <https://w3id.org/cdisc/cosmos/dss/RE/FIF50_RE/REORRES>,
        <https://w3id.org/cdisc/cosmos/dss/RE/FIF50_RE/REORRESU>,
        <https://w3id.org/cdisc/cosmos/dss/RE/FIF50_RE/RESTRESC>,
        <https://w3id.org/cdisc/cosmos/dss/RE/FIF50_RE/RESTRESN>,
        <https://w3id.org/cdisc/cosmos/dss/RE/FIF50_RE/RESTRESU>,
        <https://w3id.org/cdisc/cosmos/dss/RE/FIF50_RE/RETEST>,
        <https://w3id.org/cdisc/cosmos/dss/RE/FIF50_RE/RETESTCD> .

<https://w3id.org/cdisc/cosmos/dss/RE/FIF75_RE> a cosmos_sdtm:SDTMGroup ;
    dcterms:identifier "FIF75_RE" ;
    rdf:_1 <https://w3id.org/cdisc/cosmos/dss/RE/FIF75_RE/RETESTCD> ;
    rdf:_2 <https://w3id.org/cdisc/cosmos/dss/RE/FIF75_RE/RETEST> ;
    rdf:_3 <https://w3id.org/cdisc/cosmos/dss/RE/FIF75_RE/REORRES> ;
    rdf:_4 <https://w3id.org/cdisc/cosmos/dss/RE/FIF75_RE/REORRESU> ;
    rdf:_5 <https://w3id.org/cdisc/cosmos/dss/RE/FIF75_RE/RESTRESC> ;
    rdf:_6 <https://w3id.org/cdisc/cosmos/dss/RE/FIF75_RE/RESTRESN> ;
    rdf:_7 <https://w3id.org/cdisc/cosmos/dss/RE/FIF75_RE/RESTRESU> ;
    rdf:_8 <https://w3id.org/cdisc/cosmos/dss/RE/FIF75_RE/REDTC> ;
    cosmos_sdtm:biomedicalConceptId NCIT:C124420 ;
    cosmos_sdtm:domain "RE" ;
    cosmos_sdtm:packageDate "2026-05-26"^^xsd:date ;
    cosmos_sdtm:packageType <https://www.cdisc.org/cosmos/sdtm_v1.0/PackageTypeEnum#sdtm> ;
    cosmos_sdtm:sdtmigStartVersion "3-4" ;
    cosmos_sdtm:shortName "Forced Inspiratory Flow at 75% (RE)" ;
    cosmos_sdtm:source "RE.RETESTCD" ;
    cosmos_sdtm:variables <https://w3id.org/cdisc/cosmos/dss/RE/FIF75_RE/REDTC>,
        <https://w3id.org/cdisc/cosmos/dss/RE/FIF75_RE/REORRES>,
        <https://w3id.org/cdisc/cosmos/dss/RE/FIF75_RE/REORRESU>,
        <https://w3id.org/cdisc/cosmos/dss/RE/FIF75_RE/RESTRESC>,
        <https://w3id.org/cdisc/cosmos/dss/RE/FIF75_RE/RESTRESN>,
        <https://w3id.org/cdisc/cosmos/dss/RE/FIF75_RE/RESTRESU>,
        <https://w3id.org/cdisc/cosmos/dss/RE/FIF75_RE/RETEST>,
        <https://w3id.org/cdisc/cosmos/dss/RE/FIF75_RE/RETESTCD> .

<https://w3id.org/cdisc/cosmos/dss/RE/FIFMAXPP_RE> a cosmos_sdtm:SDTMGroup ;
    dcterms:identifier "FIFMAXPP_RE" ;
    rdf:_1 <https://w3id.org/cdisc/cosmos/dss/RE/FIFMAXPP_RE/RETESTCD> ;
    rdf:_2 <https://w3id.org/cdisc/cosmos/dss/RE/FIFMAXPP_RE/RETEST> ;
    rdf:_3 <https://w3id.org/cdisc/cosmos/dss/RE/FIFMAXPP_RE/REORRES> ;
    rdf:_4 <https://w3id.org/cdisc/cosmos/dss/RE/FIFMAXPP_RE/REORRESU> ;
    rdf:_5 <https://w3id.org/cdisc/cosmos/dss/RE/FIFMAXPP_RE/RESTRESC> ;
    rdf:_6 <https://w3id.org/cdisc/cosmos/dss/RE/FIFMAXPP_RE/RESTRESN> ;
    rdf:_7 <https://w3id.org/cdisc/cosmos/dss/RE/FIFMAXPP_RE/RESTRESU> ;
    rdf:_8 <https://w3id.org/cdisc/cosmos/dss/RE/FIFMAXPP_RE/REDTC> ;
    cosmos_sdtm:biomedicalConceptId NCIT:C112379 ;
    cosmos_sdtm:domain "RE" ;
    cosmos_sdtm:packageDate "2026-05-26"^^xsd:date ;
    cosmos_sdtm:packageType <https://www.cdisc.org/cosmos/sdtm_v1.0/PackageTypeEnum#sdtm> ;
    cosmos_sdtm:sdtmigStartVersion "3-4" ;
    cosmos_sdtm:shortName "Percent Predicted FIFmax (RE)" ;
    cosmos_sdtm:source "RE.RETESTCD" ;
    cosmos_sdtm:variables <https://w3id.org/cdisc/cosmos/dss/RE/FIFMAXPP_RE/REDTC>,
        <https://w3id.org/cdisc/cosmos/dss/RE/FIFMAXPP_RE/REORRES>,
        <https://w3id.org/cdisc/cosmos/dss/RE/FIFMAXPP_RE/REORRESU>,
        <https://w3id.org/cdisc/cosmos/dss/RE/FIFMAXPP_RE/RESTRESC>,
        <https://w3id.org/cdisc/cosmos/dss/RE/FIFMAXPP_RE/RESTRESN>,
        <https://w3id.org/cdisc/cosmos/dss/RE/FIFMAXPP_RE/RESTRESU>,
        <https://w3id.org/cdisc/cosmos/dss/RE/FIFMAXPP_RE/RETEST>,
        <https://w3id.org/cdisc/cosmos/dss/RE/FIFMAXPP_RE/RETESTCD> .

<https://w3id.org/cdisc/cosmos/dss/RE/FIFMAX_RE> a cosmos_sdtm:SDTMGroup ;
    dcterms:identifier "FIFMAX_RE" ;
    rdf:_1 <https://w3id.org/cdisc/cosmos/dss/RE/FIFMAX_RE/RETESTCD> ;
    rdf:_2 <https://w3id.org/cdisc/cosmos/dss/RE/FIFMAX_RE/RETEST> ;
    rdf:_3 <https://w3id.org/cdisc/cosmos/dss/RE/FIFMAX_RE/REORRES> ;
    rdf:_4 <https://w3id.org/cdisc/cosmos/dss/RE/FIFMAX_RE/REORRESU> ;
    rdf:_5 <https://w3id.org/cdisc/cosmos/dss/RE/FIFMAX_RE/RESTRESC> ;
    rdf:_6 <https://w3id.org/cdisc/cosmos/dss/RE/FIFMAX_RE/RESTRESN> ;
    rdf:_7 <https://w3id.org/cdisc/cosmos/dss/RE/FIFMAX_RE/RESTRESU> ;
    rdf:_8 <https://w3id.org/cdisc/cosmos/dss/RE/FIFMAX_RE/REDTC> ;
    cosmos_sdtm:biomedicalConceptId NCIT:C112333 ;
    cosmos_sdtm:domain "RE" ;
    cosmos_sdtm:packageDate "2026-05-26"^^xsd:date ;
    cosmos_sdtm:packageType <https://www.cdisc.org/cosmos/sdtm_v1.0/PackageTypeEnum#sdtm> ;
    cosmos_sdtm:sdtmigStartVersion "3-4" ;
    cosmos_sdtm:shortName "Maximum Forced Inspiratory Flow (RE)" ;
    cosmos_sdtm:source "RE.RETESTCD" ;
    cosmos_sdtm:variables <https://w3id.org/cdisc/cosmos/dss/RE/FIFMAX_RE/REDTC>,
        <https://w3id.org/cdisc/cosmos/dss/RE/FIFMAX_RE/REORRES>,
        <https://w3id.org/cdisc/cosmos/dss/RE/FIFMAX_RE/REORRESU>,
        <https://w3id.org/cdisc/cosmos/dss/RE/FIFMAX_RE/RESTRESC>,
        <https://w3id.org/cdisc/cosmos/dss/RE/FIFMAX_RE/RESTRESN>,
        <https://w3id.org/cdisc/cosmos/dss/RE/FIFMAX_RE/RESTRESU>,
        <https://w3id.org/cdisc/cosmos/dss/RE/FIFMAX_RE/RETEST>,
        <https://w3id.org/cdisc/cosmos/dss/RE/FIFMAX_RE/RETESTCD> .

<https://w3id.org/cdisc/cosmos/dss/RE/FIO2_RE> a cosmos_sdtm:SDTMGroup ;
    dcterms:identifier "FIO2_RE" ;
    rdf:_1 <https://w3id.org/cdisc/cosmos/dss/RE/FIO2_RE/RETESTCD> ;
    rdf:_2 <https://w3id.org/cdisc/cosmos/dss/RE/FIO2_RE/RETEST> ;
    rdf:_3 <https://w3id.org/cdisc/cosmos/dss/RE/FIO2_RE/REORRES> ;
    rdf:_4 <https://w3id.org/cdisc/cosmos/dss/RE/FIO2_RE/REORRESU> ;
    rdf:_5 <https://w3id.org/cdisc/cosmos/dss/RE/FIO2_RE/RESTRESC> ;
    rdf:_6 <https://w3id.org/cdisc/cosmos/dss/RE/FIO2_RE/RESTRESN> ;
    rdf:_7 <https://w3id.org/cdisc/cosmos/dss/RE/FIO2_RE/RESTRESU> ;
    rdf:_8 <https://w3id.org/cdisc/cosmos/dss/RE/FIO2_RE/REDTC> ;
    cosmos_sdtm:biomedicalConceptId NCIT:C38082 ;
    cosmos_sdtm:domain "RE" ;
    cosmos_sdtm:packageDate "2026-05-26"^^xsd:date ;
    cosmos_sdtm:packageType <https://www.cdisc.org/cosmos/sdtm_v1.0/PackageTypeEnum#sdtm> ;
    cosmos_sdtm:sdtmigStartVersion "3-4" ;
    cosmos_sdtm:shortName "Fraction of Inspired Oxygen (RE)" ;
    cosmos_sdtm:source "RE.RETESTCD" ;
    cosmos_sdtm:variables <https://w3id.org/cdisc/cosmos/dss/RE/FIO2_RE/REDTC>,
        <https://w3id.org/cdisc/cosmos/dss/RE/FIO2_RE/REORRES>,
        <https://w3id.org/cdisc/cosmos/dss/RE/FIO2_RE/REORRESU>,
        <https://w3id.org/cdisc/cosmos/dss/RE/FIO2_RE/RESTRESC>,
        <https://w3id.org/cdisc/cosmos/dss/RE/FIO2_RE/RESTRESN>,
        <https://w3id.org/cdisc/cosmos/dss/RE/FIO2_RE/RESTRESU>,
        <https://w3id.org/cdisc/cosmos/dss/RE/FIO2_RE/RETEST>,
        <https://w3id.org/cdisc/cosmos/dss/RE/FIO2_RE/RETESTCD> .

<https://w3id.org/cdisc/cosmos/dss/RE/FIV1PP_RE> a cosmos_sdtm:SDTMGroup ;
    dcterms:identifier "FIV1PP_RE" ;
    rdf:_1 <https://w3id.org/cdisc/cosmos/dss/RE/FIV1PP_RE/RETESTCD> ;
    rdf:_2 <https://w3id.org/cdisc/cosmos/dss/RE/FIV1PP_RE/RETEST> ;
    rdf:_3 <https://w3id.org/cdisc/cosmos/dss/RE/FIV1PP_RE/REORRES> ;
    rdf:_4 <https://w3id.org/cdisc/cosmos/dss/RE/FIV1PP_RE/REORRESU> ;
    rdf:_5 <https://w3id.org/cdisc/cosmos/dss/RE/FIV1PP_RE/RESTRESC> ;
    rdf:_6 <https://w3id.org/cdisc/cosmos/dss/RE/FIV1PP_RE/RESTRESN> ;
    rdf:_7 <https://w3id.org/cdisc/cosmos/dss/RE/FIV1PP_RE/RESTRESU> ;
    rdf:_8 <https://w3id.org/cdisc/cosmos/dss/RE/FIV1PP_RE/REDTC> ;
    cosmos_sdtm:biomedicalConceptId NCIT:C112380 ;
    cosmos_sdtm:domain "RE" ;
    cosmos_sdtm:packageDate "2026-05-26"^^xsd:date ;
    cosmos_sdtm:packageType <https://www.cdisc.org/cosmos/sdtm_v1.0/PackageTypeEnum#sdtm> ;
    cosmos_sdtm:sdtmigStartVersion "3-4" ;
    cosmos_sdtm:shortName "Percent Predicted FIV1 (RE)" ;
    cosmos_sdtm:source "RE.RETESTCD" ;
    cosmos_sdtm:variables <https://w3id.org/cdisc/cosmos/dss/RE/FIV1PP_RE/REDTC>,
        <https://w3id.org/cdisc/cosmos/dss/RE/FIV1PP_RE/REORRES>,
        <https://w3id.org/cdisc/cosmos/dss/RE/FIV1PP_RE/REORRESU>,
        <https://w3id.org/cdisc/cosmos/dss/RE/FIV1PP_RE/RESTRESC>,
        <https://w3id.org/cdisc/cosmos/dss/RE/FIV1PP_RE/RESTRESN>,
        <https://w3id.org/cdisc/cosmos/dss/RE/FIV1PP_RE/RESTRESU>,
        <https://w3id.org/cdisc/cosmos/dss/RE/FIV1PP_RE/RETEST>,
        <https://w3id.org/cdisc/cosmos/dss/RE/FIV1PP_RE/RETESTCD> .

<https://w3id.org/cdisc/cosmos/dss/RE/FIV1_RE> a cosmos_sdtm:SDTMGroup ;
    dcterms:identifier "FIV1_RE" ;
    rdf:_1 <https://w3id.org/cdisc/cosmos/dss/RE/FIV1_RE/RETESTCD> ;
    rdf:_2 <https://w3id.org/cdisc/cosmos/dss/RE/FIV1_RE/RETEST> ;
    rdf:_3 <https://w3id.org/cdisc/cosmos/dss/RE/FIV1_RE/REORRES> ;
    rdf:_4 <https://w3id.org/cdisc/cosmos/dss/RE/FIV1_RE/REORRESU> ;
    rdf:_5 <https://w3id.org/cdisc/cosmos/dss/RE/FIV1_RE/RESTRESC> ;
    rdf:_6 <https://w3id.org/cdisc/cosmos/dss/RE/FIV1_RE/RESTRESN> ;
    rdf:_7 <https://w3id.org/cdisc/cosmos/dss/RE/FIV1_RE/RESTRESU> ;
    rdf:_8 <https://w3id.org/cdisc/cosmos/dss/RE/FIV1_RE/REDTC> ;
    cosmos_sdtm:biomedicalConceptId NCIT:C111360 ;
    cosmos_sdtm:domain "RE" ;
    cosmos_sdtm:packageDate "2026-05-26"^^xsd:date ;
    cosmos_sdtm:packageType <https://www.cdisc.org/cosmos/sdtm_v1.0/PackageTypeEnum#sdtm> ;
    cosmos_sdtm:sdtmigStartVersion "3-4" ;
    cosmos_sdtm:shortName "Forced Inspiratory Volume in 1 Second (RE)" ;
    cosmos_sdtm:source "RE.RETESTCD" ;
    cosmos_sdtm:variables <https://w3id.org/cdisc/cosmos/dss/RE/FIV1_RE/REDTC>,
        <https://w3id.org/cdisc/cosmos/dss/RE/FIV1_RE/REORRES>,
        <https://w3id.org/cdisc/cosmos/dss/RE/FIV1_RE/REORRESU>,
        <https://w3id.org/cdisc/cosmos/dss/RE/FIV1_RE/RESTRESC>,
        <https://w3id.org/cdisc/cosmos/dss/RE/FIV1_RE/RESTRESN>,
        <https://w3id.org/cdisc/cosmos/dss/RE/FIV1_RE/RESTRESU>,
        <https://w3id.org/cdisc/cosmos/dss/RE/FIV1_RE/RETEST>,
        <https://w3id.org/cdisc/cosmos/dss/RE/FIV1_RE/RETESTCD> .

<https://w3id.org/cdisc/cosmos/dss/RE/FIVC_RE> a cosmos_sdtm:SDTMGroup ;
    dcterms:identifier "FIVC_RE" ;
    rdf:_1 <https://w3id.org/cdisc/cosmos/dss/RE/FIVC_RE/RETESTCD> ;
    rdf:_2 <https://w3id.org/cdisc/cosmos/dss/RE/FIVC_RE/RETEST> ;
    rdf:_3 <https://w3id.org/cdisc/cosmos/dss/RE/FIVC_RE/REORRES> ;
    rdf:_4 <https://w3id.org/cdisc/cosmos/dss/RE/FIVC_RE/REORRESU> ;
    rdf:_5 <https://w3id.org/cdisc/cosmos/dss/RE/FIVC_RE/RESTRESC> ;
    rdf:_6 <https://w3id.org/cdisc/cosmos/dss/RE/FIVC_RE/RESTRESN> ;
    rdf:_7 <https://w3id.org/cdisc/cosmos/dss/RE/FIVC_RE/RESTRESU> ;
    rdf:_8 <https://w3id.org/cdisc/cosmos/dss/RE/FIVC_RE/REDTC> ;
    cosmos_sdtm:biomedicalConceptId NCIT:C139263 ;
    cosmos_sdtm:domain "RE" ;
    cosmos_sdtm:packageDate "2026-05-26"^^xsd:date ;
    cosmos_sdtm:packageType <https://www.cdisc.org/cosmos/sdtm_v1.0/PackageTypeEnum#sdtm> ;
    cosmos_sdtm:sdtmigStartVersion "3-4" ;
    cosmos_sdtm:shortName "Forced Inspiratory Vital Capacity (RE)" ;
    cosmos_sdtm:source "RE.RETESTCD" ;
    cosmos_sdtm:variables <https://w3id.org/cdisc/cosmos/dss/RE/FIVC_RE/REDTC>,
        <https://w3id.org/cdisc/cosmos/dss/RE/FIVC_RE/REORRES>,
        <https://w3id.org/cdisc/cosmos/dss/RE/FIVC_RE/REORRESU>,
        <https://w3id.org/cdisc/cosmos/dss/RE/FIVC_RE/RESTRESC>,
        <https://w3id.org/cdisc/cosmos/dss/RE/FIVC_RE/RESTRESN>,
        <https://w3id.org/cdisc/cosmos/dss/RE/FIVC_RE/RESTRESU>,
        <https://w3id.org/cdisc/cosmos/dss/RE/FIVC_RE/RETEST>,
        <https://w3id.org/cdisc/cosmos/dss/RE/FIVC_RE/RETESTCD> .

<https://w3id.org/cdisc/cosmos/dss/RE/FRCPP_RE> a cosmos_sdtm:SDTMGroup ;
    dcterms:identifier "FRCPP_RE" ;
    rdf:_1 <https://w3id.org/cdisc/cosmos/dss/RE/FRCPP_RE/RETESTCD> ;
    rdf:_2 <https://w3id.org/cdisc/cosmos/dss/RE/FRCPP_RE/RETEST> ;
    rdf:_3 <https://w3id.org/cdisc/cosmos/dss/RE/FRCPP_RE/REORRES> ;
    rdf:_4 <https://w3id.org/cdisc/cosmos/dss/RE/FRCPP_RE/REORRESU> ;
    rdf:_5 <https://w3id.org/cdisc/cosmos/dss/RE/FRCPP_RE/RESTRESC> ;
    rdf:_6 <https://w3id.org/cdisc/cosmos/dss/RE/FRCPP_RE/RESTRESN> ;
    rdf:_7 <https://w3id.org/cdisc/cosmos/dss/RE/FRCPP_RE/RESTRESU> ;
    rdf:_8 <https://w3id.org/cdisc/cosmos/dss/RE/FRCPP_RE/REDTC> ;
    cosmos_sdtm:biomedicalConceptId NCIT:C126052 ;
    cosmos_sdtm:domain "RE" ;
    cosmos_sdtm:packageDate "2026-05-26"^^xsd:date ;
    cosmos_sdtm:packageType <https://www.cdisc.org/cosmos/sdtm_v1.0/PackageTypeEnum#sdtm> ;
    cosmos_sdtm:sdtmigStartVersion "3-4" ;
    cosmos_sdtm:shortName "Percent Predicted FRC (RE)" ;
    cosmos_sdtm:source "RE.RETESTCD" ;
    cosmos_sdtm:variables <https://w3id.org/cdisc/cosmos/dss/RE/FRCPP_RE/REDTC>,
        <https://w3id.org/cdisc/cosmos/dss/RE/FRCPP_RE/REORRES>,
        <https://w3id.org/cdisc/cosmos/dss/RE/FRCPP_RE/REORRESU>,
        <https://w3id.org/cdisc/cosmos/dss/RE/FRCPP_RE/RESTRESC>,
        <https://w3id.org/cdisc/cosmos/dss/RE/FRCPP_RE/RESTRESN>,
        <https://w3id.org/cdisc/cosmos/dss/RE/FRCPP_RE/RESTRESU>,
        <https://w3id.org/cdisc/cosmos/dss/RE/FRCPP_RE/RETEST>,
        <https://w3id.org/cdisc/cosmos/dss/RE/FRCPP_RE/RETESTCD> .

<https://w3id.org/cdisc/cosmos/dss/RE/FRC_RE> a cosmos_sdtm:SDTMGroup ;
    dcterms:identifier "FRC_RE" ;
    rdf:_1 <https://w3id.org/cdisc/cosmos/dss/RE/FRC_RE/RETESTCD> ;
    rdf:_2 <https://w3id.org/cdisc/cosmos/dss/RE/FRC_RE/RETEST> ;
    rdf:_3 <https://w3id.org/cdisc/cosmos/dss/RE/FRC_RE/REORRES> ;
    rdf:_4 <https://w3id.org/cdisc/cosmos/dss/RE/FRC_RE/REORRESU> ;
    rdf:_5 <https://w3id.org/cdisc/cosmos/dss/RE/FRC_RE/RESTRESC> ;
    rdf:_6 <https://w3id.org/cdisc/cosmos/dss/RE/FRC_RE/RESTRESN> ;
    rdf:_7 <https://w3id.org/cdisc/cosmos/dss/RE/FRC_RE/RESTRESU> ;
    rdf:_8 <https://w3id.org/cdisc/cosmos/dss/RE/FRC_RE/REDTC> ;
    cosmos_sdtm:biomedicalConceptId NCIT:C89800 ;
    cosmos_sdtm:domain "RE" ;
    cosmos_sdtm:packageDate "2026-05-26"^^xsd:date ;
    cosmos_sdtm:packageType <https://www.cdisc.org/cosmos/sdtm_v1.0/PackageTypeEnum#sdtm> ;
    cosmos_sdtm:sdtmigStartVersion "3-4" ;
    cosmos_sdtm:shortName "Functional Residual Capacity (RE)" ;
    cosmos_sdtm:source "RE.RETESTCD" ;
    cosmos_sdtm:variables <https://w3id.org/cdisc/cosmos/dss/RE/FRC_RE/REDTC>,
        <https://w3id.org/cdisc/cosmos/dss/RE/FRC_RE/REORRES>,
        <https://w3id.org/cdisc/cosmos/dss/RE/FRC_RE/REORRESU>,
        <https://w3id.org/cdisc/cosmos/dss/RE/FRC_RE/RESTRESC>,
        <https://w3id.org/cdisc/cosmos/dss/RE/FRC_RE/RESTRESN>,
        <https://w3id.org/cdisc/cosmos/dss/RE/FRC_RE/RESTRESU>,
        <https://w3id.org/cdisc/cosmos/dss/RE/FRC_RE/RETEST>,
        <https://w3id.org/cdisc/cosmos/dss/RE/FRC_RE/RETESTCD> .

<https://w3id.org/cdisc/cosmos/dss/RE/FVC6_RE> a cosmos_sdtm:SDTMGroup ;
    dcterms:identifier "FVC6_RE" ;
    rdf:_1 <https://w3id.org/cdisc/cosmos/dss/RE/FVC6_RE/RETESTCD> ;
    rdf:_2 <https://w3id.org/cdisc/cosmos/dss/RE/FVC6_RE/RETEST> ;
    rdf:_3 <https://w3id.org/cdisc/cosmos/dss/RE/FVC6_RE/REORRES> ;
    rdf:_4 <https://w3id.org/cdisc/cosmos/dss/RE/FVC6_RE/REORRESU> ;
    rdf:_5 <https://w3id.org/cdisc/cosmos/dss/RE/FVC6_RE/RESTRESC> ;
    rdf:_6 <https://w3id.org/cdisc/cosmos/dss/RE/FVC6_RE/RESTRESN> ;
    rdf:_7 <https://w3id.org/cdisc/cosmos/dss/RE/FVC6_RE/RESTRESU> ;
    rdf:_8 <https://w3id.org/cdisc/cosmos/dss/RE/FVC6_RE/REDTC> ;
    cosmos_sdtm:biomedicalConceptId NCIT:C124421 ;
    cosmos_sdtm:domain "RE" ;
    cosmos_sdtm:packageDate "2026-05-26"^^xsd:date ;
    cosmos_sdtm:packageType <https://www.cdisc.org/cosmos/sdtm_v1.0/PackageTypeEnum#sdtm> ;
    cosmos_sdtm:sdtmigStartVersion "3-4" ;
    cosmos_sdtm:shortName "Forced Vital Capacity in 6 Seconds (RE)" ;
    cosmos_sdtm:source "RE.RETESTCD" ;
    cosmos_sdtm:variables <https://w3id.org/cdisc/cosmos/dss/RE/FVC6_RE/REDTC>,
        <https://w3id.org/cdisc/cosmos/dss/RE/FVC6_RE/REORRES>,
        <https://w3id.org/cdisc/cosmos/dss/RE/FVC6_RE/REORRESU>,
        <https://w3id.org/cdisc/cosmos/dss/RE/FVC6_RE/RESTRESC>,
        <https://w3id.org/cdisc/cosmos/dss/RE/FVC6_RE/RESTRESN>,
        <https://w3id.org/cdisc/cosmos/dss/RE/FVC6_RE/RESTRESU>,
        <https://w3id.org/cdisc/cosmos/dss/RE/FVC6_RE/RETEST>,
        <https://w3id.org/cdisc/cosmos/dss/RE/FVC6_RE/RETESTCD> .

<https://w3id.org/cdisc/cosmos/dss/RE/FVCPP_RE> a cosmos_sdtm:SDTMGroup ;
    dcterms:identifier "FVCPP_RE" ;
    rdf:_1 <https://w3id.org/cdisc/cosmos/dss/RE/FVCPP_RE/RETESTCD> ;
    rdf:_2 <https://w3id.org/cdisc/cosmos/dss/RE/FVCPP_RE/RETEST> ;
    rdf:_3 <https://w3id.org/cdisc/cosmos/dss/RE/FVCPP_RE/REORRES> ;
    rdf:_4 <https://w3id.org/cdisc/cosmos/dss/RE/FVCPP_RE/REORRESU> ;
    rdf:_5 <https://w3id.org/cdisc/cosmos/dss/RE/FVCPP_RE/RESTRESC> ;
    rdf:_6 <https://w3id.org/cdisc/cosmos/dss/RE/FVCPP_RE/RESTRESN> ;
    rdf:_7 <https://w3id.org/cdisc/cosmos/dss/RE/FVCPP_RE/RESTRESU> ;
    rdf:_8 <https://w3id.org/cdisc/cosmos/dss/RE/FVCPP_RE/REDTC> ;
    cosmos_sdtm:biomedicalConceptId NCIT:C112381 ;
    cosmos_sdtm:domain "RE" ;
    cosmos_sdtm:packageDate "2026-05-26"^^xsd:date ;
    cosmos_sdtm:packageType <https://www.cdisc.org/cosmos/sdtm_v1.0/PackageTypeEnum#sdtm> ;
    cosmos_sdtm:sdtmigStartVersion "3-4" ;
    cosmos_sdtm:shortName "Percent Predicted Forced Vital Capacity (RE)" ;
    cosmos_sdtm:source "RE.RETESTCD" ;
    cosmos_sdtm:variables <https://w3id.org/cdisc/cosmos/dss/RE/FVCPP_RE/REDTC>,
        <https://w3id.org/cdisc/cosmos/dss/RE/FVCPP_RE/REORRES>,
        <https://w3id.org/cdisc/cosmos/dss/RE/FVCPP_RE/REORRESU>,
        <https://w3id.org/cdisc/cosmos/dss/RE/FVCPP_RE/RESTRESC>,
        <https://w3id.org/cdisc/cosmos/dss/RE/FVCPP_RE/RESTRESN>,
        <https://w3id.org/cdisc/cosmos/dss/RE/FVCPP_RE/RESTRESU>,
        <https://w3id.org/cdisc/cosmos/dss/RE/FVCPP_RE/RETEST>,
        <https://w3id.org/cdisc/cosmos/dss/RE/FVCPP_RE/RETESTCD> .

<https://w3id.org/cdisc/cosmos/dss/RE/FVC_RE> a cosmos_sdtm:SDTMGroup ;
    dcterms:identifier "FVC_RE" ;
    rdf:_1 <https://w3id.org/cdisc/cosmos/dss/RE/FVC_RE/RETESTCD> ;
    rdf:_2 <https://w3id.org/cdisc/cosmos/dss/RE/FVC_RE/RETEST> ;
    rdf:_3 <https://w3id.org/cdisc/cosmos/dss/RE/FVC_RE/REORRES> ;
    rdf:_4 <https://w3id.org/cdisc/cosmos/dss/RE/FVC_RE/REORRESU> ;
    rdf:_5 <https://w3id.org/cdisc/cosmos/dss/RE/FVC_RE/RESTRESC> ;
    rdf:_6 <https://w3id.org/cdisc/cosmos/dss/RE/FVC_RE/RESTRESN> ;
    rdf:_7 <https://w3id.org/cdisc/cosmos/dss/RE/FVC_RE/RESTRESU> ;
    rdf:_8 <https://w3id.org/cdisc/cosmos/dss/RE/FVC_RE/REDTC> ;
    cosmos_sdtm:biomedicalConceptId NCIT:C111361 ;
    cosmos_sdtm:domain "RE" ;
    cosmos_sdtm:packageDate "2026-05-26"^^xsd:date ;
    cosmos_sdtm:packageType <https://www.cdisc.org/cosmos/sdtm_v1.0/PackageTypeEnum#sdtm> ;
    cosmos_sdtm:sdtmigStartVersion "3-4" ;
    cosmos_sdtm:shortName "Forced Vital Capacity (RE)" ;
    cosmos_sdtm:source "RE.RETESTCD" ;
    cosmos_sdtm:variables <https://w3id.org/cdisc/cosmos/dss/RE/FVC_RE/REDTC>,
        <https://w3id.org/cdisc/cosmos/dss/RE/FVC_RE/REORRES>,
        <https://w3id.org/cdisc/cosmos/dss/RE/FVC_RE/REORRESU>,
        <https://w3id.org/cdisc/cosmos/dss/RE/FVC_RE/RESTRESC>,
        <https://w3id.org/cdisc/cosmos/dss/RE/FVC_RE/RESTRESN>,
        <https://w3id.org/cdisc/cosmos/dss/RE/FVC_RE/RESTRESU>,
        <https://w3id.org/cdisc/cosmos/dss/RE/FVC_RE/RETEST>,
        <https://w3id.org/cdisc/cosmos/dss/RE/FVC_RE/RETESTCD> .

<https://w3id.org/cdisc/cosmos/dss/RE/GAW_RE> a cosmos_sdtm:SDTMGroup ;
    dcterms:identifier "GAW_RE" ;
    rdf:_1 <https://w3id.org/cdisc/cosmos/dss/RE/GAW_RE/RETESTCD> ;
    rdf:_2 <https://w3id.org/cdisc/cosmos/dss/RE/GAW_RE/RETEST> ;
    rdf:_3 <https://w3id.org/cdisc/cosmos/dss/RE/GAW_RE/REORRES> ;
    rdf:_4 <https://w3id.org/cdisc/cosmos/dss/RE/GAW_RE/RESTRESC> ;
    rdf:_5 <https://w3id.org/cdisc/cosmos/dss/RE/GAW_RE/RESTRESN> ;
    rdf:_6 <https://w3id.org/cdisc/cosmos/dss/RE/GAW_RE/REDTC> ;
    cosmos_sdtm:biomedicalConceptId NCIT:C124422 ;
    cosmos_sdtm:domain "RE" ;
    cosmos_sdtm:packageDate "2026-05-26"^^xsd:date ;
    cosmos_sdtm:packageType <https://www.cdisc.org/cosmos/sdtm_v1.0/PackageTypeEnum#sdtm> ;
    cosmos_sdtm:sdtmigStartVersion "3-4" ;
    cosmos_sdtm:shortName "Airway Conductance (RE)" ;
    cosmos_sdtm:source "RE.RETESTCD" ;
    cosmos_sdtm:variables <https://w3id.org/cdisc/cosmos/dss/RE/GAW_RE/REDTC>,
        <https://w3id.org/cdisc/cosmos/dss/RE/GAW_RE/REORRES>,
        <https://w3id.org/cdisc/cosmos/dss/RE/GAW_RE/RESTRESC>,
        <https://w3id.org/cdisc/cosmos/dss/RE/GAW_RE/RESTRESN>,
        <https://w3id.org/cdisc/cosmos/dss/RE/GAW_RE/RETEST>,
        <https://w3id.org/cdisc/cosmos/dss/RE/GAW_RE/RETESTCD> .

<https://w3id.org/cdisc/cosmos/dss/RE/ICPP_RE> a cosmos_sdtm:SDTMGroup ;
    dcterms:identifier "ICPP_RE" ;
    rdf:_1 <https://w3id.org/cdisc/cosmos/dss/RE/ICPP_RE/RETESTCD> ;
    rdf:_2 <https://w3id.org/cdisc/cosmos/dss/RE/ICPP_RE/RETEST> ;
    rdf:_3 <https://w3id.org/cdisc/cosmos/dss/RE/ICPP_RE/REORRES> ;
    rdf:_4 <https://w3id.org/cdisc/cosmos/dss/RE/ICPP_RE/REORRESU> ;
    rdf:_5 <https://w3id.org/cdisc/cosmos/dss/RE/ICPP_RE/RESTRESC> ;
    rdf:_6 <https://w3id.org/cdisc/cosmos/dss/RE/ICPP_RE/RESTRESN> ;
    rdf:_7 <https://w3id.org/cdisc/cosmos/dss/RE/ICPP_RE/RESTRESU> ;
    rdf:_8 <https://w3id.org/cdisc/cosmos/dss/RE/ICPP_RE/REDTC> ;
    cosmos_sdtm:biomedicalConceptId NCIT:C112382 ;
    cosmos_sdtm:domain "RE" ;
    cosmos_sdtm:packageDate "2026-05-26"^^xsd:date ;
    cosmos_sdtm:packageType <https://www.cdisc.org/cosmos/sdtm_v1.0/PackageTypeEnum#sdtm> ;
    cosmos_sdtm:sdtmigStartVersion "3-4" ;
    cosmos_sdtm:shortName "Percent Predicted Inspiratory Capacity (RE)" ;
    cosmos_sdtm:source "RE.RETESTCD" ;
    cosmos_sdtm:variables <https://w3id.org/cdisc/cosmos/dss/RE/ICPP_RE/REDTC>,
        <https://w3id.org/cdisc/cosmos/dss/RE/ICPP_RE/REORRES>,
        <https://w3id.org/cdisc/cosmos/dss/RE/ICPP_RE/REORRESU>,
        <https://w3id.org/cdisc/cosmos/dss/RE/ICPP_RE/RESTRESC>,
        <https://w3id.org/cdisc/cosmos/dss/RE/ICPP_RE/RESTRESN>,
        <https://w3id.org/cdisc/cosmos/dss/RE/ICPP_RE/RESTRESU>,
        <https://w3id.org/cdisc/cosmos/dss/RE/ICPP_RE/RETEST>,
        <https://w3id.org/cdisc/cosmos/dss/RE/ICPP_RE/RETESTCD> .

<https://w3id.org/cdisc/cosmos/dss/RE/ICREV_RE> a cosmos_sdtm:SDTMGroup ;
    dcterms:identifier "ICREV_RE" ;
    rdf:_1 <https://w3id.org/cdisc/cosmos/dss/RE/ICREV_RE/RETESTCD> ;
    rdf:_2 <https://w3id.org/cdisc/cosmos/dss/RE/ICREV_RE/RETEST> ;
    rdf:_3 <https://w3id.org/cdisc/cosmos/dss/RE/ICREV_RE/REORRES> ;
    rdf:_4 <https://w3id.org/cdisc/cosmos/dss/RE/ICREV_RE/RESTRESC> ;
    rdf:_5 <https://w3id.org/cdisc/cosmos/dss/RE/ICREV_RE/RESTRESN> ;
    rdf:_6 <https://w3id.org/cdisc/cosmos/dss/RE/ICREV_RE/REDTC> ;
    cosmos_sdtm:biomedicalConceptId NCIT:C112321 ;
    cosmos_sdtm:domain "RE" ;
    cosmos_sdtm:packageDate "2026-05-26"^^xsd:date ;
    cosmos_sdtm:packageType <https://www.cdisc.org/cosmos/sdtm_v1.0/PackageTypeEnum#sdtm> ;
    cosmos_sdtm:sdtmigStartVersion "3-4" ;
    cosmos_sdtm:shortName "IC Reversibility (RE)" ;
    cosmos_sdtm:source "RE.RETESTCD" ;
    cosmos_sdtm:variables <https://w3id.org/cdisc/cosmos/dss/RE/ICREV_RE/REDTC>,
        <https://w3id.org/cdisc/cosmos/dss/RE/ICREV_RE/REORRES>,
        <https://w3id.org/cdisc/cosmos/dss/RE/ICREV_RE/RESTRESC>,
        <https://w3id.org/cdisc/cosmos/dss/RE/ICREV_RE/RESTRESN>,
        <https://w3id.org/cdisc/cosmos/dss/RE/ICREV_RE/RETEST>,
        <https://w3id.org/cdisc/cosmos/dss/RE/ICREV_RE/RETESTCD> .

<https://w3id.org/cdisc/cosmos/dss/RE/IC_RE> a cosmos_sdtm:SDTMGroup ;
    dcterms:identifier "IC_RE" ;
    rdf:_1 <https://w3id.org/cdisc/cosmos/dss/RE/IC_RE/RETESTCD> ;
    rdf:_2 <https://w3id.org/cdisc/cosmos/dss/RE/IC_RE/RETEST> ;
    rdf:_3 <https://w3id.org/cdisc/cosmos/dss/RE/IC_RE/REORRES> ;
    rdf:_4 <https://w3id.org/cdisc/cosmos/dss/RE/IC_RE/REORRESU> ;
    rdf:_5 <https://w3id.org/cdisc/cosmos/dss/RE/IC_RE/RESTRESC> ;
    rdf:_6 <https://w3id.org/cdisc/cosmos/dss/RE/IC_RE/RESTRESN> ;
    rdf:_7 <https://w3id.org/cdisc/cosmos/dss/RE/IC_RE/RESTRESU> ;
    rdf:_8 <https://w3id.org/cdisc/cosmos/dss/RE/IC_RE/REDTC> ;
    cosmos_sdtm:biomedicalConceptId NCIT:C111362 ;
    cosmos_sdtm:domain "RE" ;
    cosmos_sdtm:packageDate "2026-05-26"^^xsd:date ;
    cosmos_sdtm:packageType <https://www.cdisc.org/cosmos/sdtm_v1.0/PackageTypeEnum#sdtm> ;
    cosmos_sdtm:sdtmigStartVersion "3-4" ;
    cosmos_sdtm:shortName "Inspiratory Capacity (RE)" ;
    cosmos_sdtm:source "RE.RETESTCD" ;
    cosmos_sdtm:variables <https://w3id.org/cdisc/cosmos/dss/RE/IC_RE/REDTC>,
        <https://w3id.org/cdisc/cosmos/dss/RE/IC_RE/REORRES>,
        <https://w3id.org/cdisc/cosmos/dss/RE/IC_RE/REORRESU>,
        <https://w3id.org/cdisc/cosmos/dss/RE/IC_RE/RESTRESC>,
        <https://w3id.org/cdisc/cosmos/dss/RE/IC_RE/RESTRESN>,
        <https://w3id.org/cdisc/cosmos/dss/RE/IC_RE/RESTRESU>,
        <https://w3id.org/cdisc/cosmos/dss/RE/IC_RE/RETEST>,
        <https://w3id.org/cdisc/cosmos/dss/RE/IC_RE/RETESTCD> .

<https://w3id.org/cdisc/cosmos/dss/RE/INERTANC_RE> a cosmos_sdtm:SDTMGroup ;
    dcterms:identifier "INERTANC_RE" ;
    rdf:_1 <https://w3id.org/cdisc/cosmos/dss/RE/INERTANC_RE/RETESTCD> ;
    rdf:_2 <https://w3id.org/cdisc/cosmos/dss/RE/INERTANC_RE/RETEST> ;
    rdf:_3 <https://w3id.org/cdisc/cosmos/dss/RE/INERTANC_RE/REORRES> ;
    rdf:_4 <https://w3id.org/cdisc/cosmos/dss/RE/INERTANC_RE/RESTRESC> ;
    rdf:_5 <https://w3id.org/cdisc/cosmos/dss/RE/INERTANC_RE/RESTRESN> ;
    rdf:_6 <https://w3id.org/cdisc/cosmos/dss/RE/INERTANC_RE/REDTC> ;
    cosmos_sdtm:biomedicalConceptId NCIT:C139254 ;
    cosmos_sdtm:domain "RE" ;
    cosmos_sdtm:packageDate "2026-05-26"^^xsd:date ;
    cosmos_sdtm:packageType <https://www.cdisc.org/cosmos/sdtm_v1.0/PackageTypeEnum#sdtm> ;
    cosmos_sdtm:sdtmigStartVersion "3-4" ;
    cosmos_sdtm:shortName "Inertance (RE)" ;
    cosmos_sdtm:source "RE.RETESTCD" ;
    cosmos_sdtm:variables <https://w3id.org/cdisc/cosmos/dss/RE/INERTANC_RE/REDTC>,
        <https://w3id.org/cdisc/cosmos/dss/RE/INERTANC_RE/REORRES>,
        <https://w3id.org/cdisc/cosmos/dss/RE/INERTANC_RE/RESTRESC>,
        <https://w3id.org/cdisc/cosmos/dss/RE/INERTANC_RE/RESTRESN>,
        <https://w3id.org/cdisc/cosmos/dss/RE/INERTANC_RE/RETEST>,
        <https://w3id.org/cdisc/cosmos/dss/RE/INERTANC_RE/RETESTCD> .

<https://w3id.org/cdisc/cosmos/dss/RE/INFLTIND_RE> a cosmos_sdtm:SDTMGroup ;
    dcterms:identifier "INFLTIND_RE" ;
    rdf:_1 <https://w3id.org/cdisc/cosmos/dss/RE/INFLTIND_RE/RETESTCD> ;
    rdf:_2 <https://w3id.org/cdisc/cosmos/dss/RE/INFLTIND_RE/RETEST> ;
    rdf:_3 <https://w3id.org/cdisc/cosmos/dss/RE/INFLTIND_RE/REORRES> ;
    rdf:_4 <https://w3id.org/cdisc/cosmos/dss/RE/INFLTIND_RE/RESTRESC> ;
    rdf:_5 <https://w3id.org/cdisc/cosmos/dss/RE/INFLTIND_RE/REDTC> ;
    cosmos_sdtm:biomedicalConceptId NCIT:C171512 ;
    cosmos_sdtm:domain "RE" ;
    cosmos_sdtm:packageDate "2026-05-26"^^xsd:date ;
    cosmos_sdtm:packageType <https://www.cdisc.org/cosmos/sdtm_v1.0/PackageTypeEnum#sdtm> ;
    cosmos_sdtm:sdtmigStartVersion "3-4" ;
    cosmos_sdtm:shortName "Infiltrates Indicator (RE)" ;
    cosmos_sdtm:source "RE.RETESTCD" ;
    cosmos_sdtm:variables <https://w3id.org/cdisc/cosmos/dss/RE/INFLTIND_RE/REDTC>,
        <https://w3id.org/cdisc/cosmos/dss/RE/INFLTIND_RE/REORRES>,
        <https://w3id.org/cdisc/cosmos/dss/RE/INFLTIND_RE/RESTRESC>,
        <https://w3id.org/cdisc/cosmos/dss/RE/INFLTIND_RE/RETEST>,
        <https://w3id.org/cdisc/cosmos/dss/RE/INFLTIND_RE/RETESTCD> .

<https://w3id.org/cdisc/cosmos/dss/RE/INTP_RE> a cosmos_sdtm:SDTMGroup ;
    dcterms:identifier "INTP_RE" ;
    rdf:_1 <https://w3id.org/cdisc/cosmos/dss/RE/INTP_RE/RETESTCD> ;
    rdf:_2 <https://w3id.org/cdisc/cosmos/dss/RE/INTP_RE/RETEST> ;
    rdf:_3 <https://w3id.org/cdisc/cosmos/dss/RE/INTP_RE/REORRES> ;
    rdf:_4 <https://w3id.org/cdisc/cosmos/dss/RE/INTP_RE/RESTRESC> ;
    rdf:_5 <https://w3id.org/cdisc/cosmos/dss/RE/INTP_RE/REDTC> ;
    cosmos_sdtm:biomedicalConceptId NCIT:C41255 ;
    cosmos_sdtm:domain "RE" ;
    cosmos_sdtm:packageDate "2026-05-26"^^xsd:date ;
    cosmos_sdtm:packageType <https://www.cdisc.org/cosmos/sdtm_v1.0/PackageTypeEnum#sdtm> ;
    cosmos_sdtm:sdtmigStartVersion "3-4" ;
    cosmos_sdtm:shortName "Interpretation (RE)" ;
    cosmos_sdtm:source "RE.RETESTCD" ;
    cosmos_sdtm:variables <https://w3id.org/cdisc/cosmos/dss/RE/INTP_RE/REDTC>,
        <https://w3id.org/cdisc/cosmos/dss/RE/INTP_RE/REORRES>,
        <https://w3id.org/cdisc/cosmos/dss/RE/INTP_RE/RESTRESC>,
        <https://w3id.org/cdisc/cosmos/dss/RE/INTP_RE/RETEST>,
        <https://w3id.org/cdisc/cosmos/dss/RE/INTP_RE/RETESTCD> .

<https://w3id.org/cdisc/cosmos/dss/RE/IRVPP_RE> a cosmos_sdtm:SDTMGroup ;
    dcterms:identifier "IRVPP_RE" ;
    rdf:_1 <https://w3id.org/cdisc/cosmos/dss/RE/IRVPP_RE/RETESTCD> ;
    rdf:_2 <https://w3id.org/cdisc/cosmos/dss/RE/IRVPP_RE/RETEST> ;
    rdf:_3 <https://w3id.org/cdisc/cosmos/dss/RE/IRVPP_RE/REORRES> ;
    rdf:_4 <https://w3id.org/cdisc/cosmos/dss/RE/IRVPP_RE/REORRESU> ;
    rdf:_5 <https://w3id.org/cdisc/cosmos/dss/RE/IRVPP_RE/RESTRESC> ;
    rdf:_6 <https://w3id.org/cdisc/cosmos/dss/RE/IRVPP_RE/RESTRESN> ;
    rdf:_7 <https://w3id.org/cdisc/cosmos/dss/RE/IRVPP_RE/RESTRESU> ;
    rdf:_8 <https://w3id.org/cdisc/cosmos/dss/RE/IRVPP_RE/REDTC> ;
    cosmos_sdtm:biomedicalConceptId NCIT:C112383 ;
    cosmos_sdtm:domain "RE" ;
    cosmos_sdtm:packageDate "2026-05-26"^^xsd:date ;
    cosmos_sdtm:packageType <https://www.cdisc.org/cosmos/sdtm_v1.0/PackageTypeEnum#sdtm> ;
    cosmos_sdtm:sdtmigStartVersion "3-4" ;
    cosmos_sdtm:shortName "Percent Predicted IRV (RE)" ;
    cosmos_sdtm:source "RE.RETESTCD" ;
    cosmos_sdtm:variables <https://w3id.org/cdisc/cosmos/dss/RE/IRVPP_RE/REDTC>,
        <https://w3id.org/cdisc/cosmos/dss/RE/IRVPP_RE/REORRES>,
        <https://w3id.org/cdisc/cosmos/dss/RE/IRVPP_RE/REORRESU>,
        <https://w3id.org/cdisc/cosmos/dss/RE/IRVPP_RE/RESTRESC>,
        <https://w3id.org/cdisc/cosmos/dss/RE/IRVPP_RE/RESTRESN>,
        <https://w3id.org/cdisc/cosmos/dss/RE/IRVPP_RE/RESTRESU>,
        <https://w3id.org/cdisc/cosmos/dss/RE/IRVPP_RE/RETEST>,
        <https://w3id.org/cdisc/cosmos/dss/RE/IRVPP_RE/RETESTCD> .

<https://w3id.org/cdisc/cosmos/dss/RE/IRV_RE> a cosmos_sdtm:SDTMGroup ;
    dcterms:identifier "IRV_RE" ;
    rdf:_1 <https://w3id.org/cdisc/cosmos/dss/RE/IRV_RE/RETESTCD> ;
    rdf:_2 <https://w3id.org/cdisc/cosmos/dss/RE/IRV_RE/RETEST> ;
    rdf:_3 <https://w3id.org/cdisc/cosmos/dss/RE/IRV_RE/REORRES> ;
    rdf:_4 <https://w3id.org/cdisc/cosmos/dss/RE/IRV_RE/REORRESU> ;
    rdf:_5 <https://w3id.org/cdisc/cosmos/dss/RE/IRV_RE/RESTRESC> ;
    rdf:_6 <https://w3id.org/cdisc/cosmos/dss/RE/IRV_RE/RESTRESN> ;
    rdf:_7 <https://w3id.org/cdisc/cosmos/dss/RE/IRV_RE/RESTRESU> ;
    rdf:_8 <https://w3id.org/cdisc/cosmos/dss/RE/IRV_RE/REDTC> ;
    cosmos_sdtm:biomedicalConceptId NCIT:C111237 ;
    cosmos_sdtm:domain "RE" ;
    cosmos_sdtm:packageDate "2026-05-26"^^xsd:date ;
    cosmos_sdtm:packageType <https://www.cdisc.org/cosmos/sdtm_v1.0/PackageTypeEnum#sdtm> ;
    cosmos_sdtm:sdtmigStartVersion "3-4" ;
    cosmos_sdtm:shortName "Inspiratory Reserve Volume (RE)" ;
    cosmos_sdtm:source "RE.RETESTCD" ;
    cosmos_sdtm:variables <https://w3id.org/cdisc/cosmos/dss/RE/IRV_RE/REDTC>,
        <https://w3id.org/cdisc/cosmos/dss/RE/IRV_RE/REORRES>,
        <https://w3id.org/cdisc/cosmos/dss/RE/IRV_RE/REORRESU>,
        <https://w3id.org/cdisc/cosmos/dss/RE/IRV_RE/RESTRESC>,
        <https://w3id.org/cdisc/cosmos/dss/RE/IRV_RE/RESTRESN>,
        <https://w3id.org/cdisc/cosmos/dss/RE/IRV_RE/RESTRESU>,
        <https://w3id.org/cdisc/cosmos/dss/RE/IRV_RE/RETEST>,
        <https://w3id.org/cdisc/cosmos/dss/RE/IRV_RE/RETESTCD> .

<https://w3id.org/cdisc/cosmos/dss/RE/IVCPP_RE> a cosmos_sdtm:SDTMGroup ;
    dcterms:identifier "IVCPP_RE" ;
    rdf:_1 <https://w3id.org/cdisc/cosmos/dss/RE/IVCPP_RE/RETESTCD> ;
    rdf:_2 <https://w3id.org/cdisc/cosmos/dss/RE/IVCPP_RE/RETEST> ;
    rdf:_3 <https://w3id.org/cdisc/cosmos/dss/RE/IVCPP_RE/REORRES> ;
    rdf:_4 <https://w3id.org/cdisc/cosmos/dss/RE/IVCPP_RE/REORRESU> ;
    rdf:_5 <https://w3id.org/cdisc/cosmos/dss/RE/IVCPP_RE/RESTRESC> ;
    rdf:_6 <https://w3id.org/cdisc/cosmos/dss/RE/IVCPP_RE/RESTRESN> ;
    rdf:_7 <https://w3id.org/cdisc/cosmos/dss/RE/IVCPP_RE/RESTRESU> ;
    rdf:_8 <https://w3id.org/cdisc/cosmos/dss/RE/IVCPP_RE/REDTC> ;
    cosmos_sdtm:biomedicalConceptId NCIT:C124424 ;
    cosmos_sdtm:domain "RE" ;
    cosmos_sdtm:packageDate "2026-05-26"^^xsd:date ;
    cosmos_sdtm:packageType <https://www.cdisc.org/cosmos/sdtm_v1.0/PackageTypeEnum#sdtm> ;
    cosmos_sdtm:sdtmigStartVersion "3-4" ;
    cosmos_sdtm:shortName "Percent Predicted IVC (RE)" ;
    cosmos_sdtm:source "RE.RETESTCD" ;
    cosmos_sdtm:variables <https://w3id.org/cdisc/cosmos/dss/RE/IVCPP_RE/REDTC>,
        <https://w3id.org/cdisc/cosmos/dss/RE/IVCPP_RE/REORRES>,
        <https://w3id.org/cdisc/cosmos/dss/RE/IVCPP_RE/REORRESU>,
        <https://w3id.org/cdisc/cosmos/dss/RE/IVCPP_RE/RESTRESC>,
        <https://w3id.org/cdisc/cosmos/dss/RE/IVCPP_RE/RESTRESN>,
        <https://w3id.org/cdisc/cosmos/dss/RE/IVCPP_RE/RESTRESU>,
        <https://w3id.org/cdisc/cosmos/dss/RE/IVCPP_RE/RETEST>,
        <https://w3id.org/cdisc/cosmos/dss/RE/IVCPP_RE/RETESTCD> .

<https://w3id.org/cdisc/cosmos/dss/RE/IVC_RE> a cosmos_sdtm:SDTMGroup ;
    dcterms:identifier "IVC_RE" ;
    rdf:_1 <https://w3id.org/cdisc/cosmos/dss/RE/IVC_RE/RETESTCD> ;
    rdf:_2 <https://w3id.org/cdisc/cosmos/dss/RE/IVC_RE/RETEST> ;
    rdf:_3 <https://w3id.org/cdisc/cosmos/dss/RE/IVC_RE/REORRES> ;
    rdf:_4 <https://w3id.org/cdisc/cosmos/dss/RE/IVC_RE/REORRESU> ;
    rdf:_5 <https://w3id.org/cdisc/cosmos/dss/RE/IVC_RE/RESTRESC> ;
    rdf:_6 <https://w3id.org/cdisc/cosmos/dss/RE/IVC_RE/RESTRESN> ;
    rdf:_7 <https://w3id.org/cdisc/cosmos/dss/RE/IVC_RE/RESTRESU> ;
    rdf:_8 <https://w3id.org/cdisc/cosmos/dss/RE/IVC_RE/REDTC> ;
    cosmos_sdtm:biomedicalConceptId NCIT:C124423 ;
    cosmos_sdtm:domain "RE" ;
    cosmos_sdtm:packageDate "2026-05-26"^^xsd:date ;
    cosmos_sdtm:packageType <https://www.cdisc.org/cosmos/sdtm_v1.0/PackageTypeEnum#sdtm> ;
    cosmos_sdtm:sdtmigStartVersion "3-4" ;
    cosmos_sdtm:shortName "Inspiratory Vital Capacity (RE)" ;
    cosmos_sdtm:source "RE.RETESTCD" ;
    cosmos_sdtm:variables <https://w3id.org/cdisc/cosmos/dss/RE/IVC_RE/REDTC>,
        <https://w3id.org/cdisc/cosmos/dss/RE/IVC_RE/REORRES>,
        <https://w3id.org/cdisc/cosmos/dss/RE/IVC_RE/REORRESU>,
        <https://w3id.org/cdisc/cosmos/dss/RE/IVC_RE/RESTRESC>,
        <https://w3id.org/cdisc/cosmos/dss/RE/IVC_RE/RESTRESN>,
        <https://w3id.org/cdisc/cosmos/dss/RE/IVC_RE/RESTRESU>,
        <https://w3id.org/cdisc/cosmos/dss/RE/IVC_RE/RETEST>,
        <https://w3id.org/cdisc/cosmos/dss/RE/IVC_RE/RETESTCD> .

<https://w3id.org/cdisc/cosmos/dss/RE/LCI2_5_RE> a cosmos_sdtm:SDTMGroup ;
    dcterms:identifier "LCI2_5_RE" ;
    rdf:_1 <https://w3id.org/cdisc/cosmos/dss/RE/LCI2_5_RE/RETESTCD> ;
    rdf:_2 <https://w3id.org/cdisc/cosmos/dss/RE/LCI2_5_RE/RETEST> ;
    rdf:_3 <https://w3id.org/cdisc/cosmos/dss/RE/LCI2_5_RE/REORRES> ;
    rdf:_4 <https://w3id.org/cdisc/cosmos/dss/RE/LCI2_5_RE/RESTRESC> ;
    rdf:_5 <https://w3id.org/cdisc/cosmos/dss/RE/LCI2_5_RE/RESTRESN> ;
    rdf:_6 <https://w3id.org/cdisc/cosmos/dss/RE/LCI2_5_RE/REDTC> ;
    cosmos_sdtm:biomedicalConceptId NCIT:C201473 ;
    cosmos_sdtm:domain "RE" ;
    cosmos_sdtm:packageDate "2026-05-26"^^xsd:date ;
    cosmos_sdtm:packageType <https://www.cdisc.org/cosmos/sdtm_v1.0/PackageTypeEnum#sdtm> ;
    cosmos_sdtm:sdtmigStartVersion "3-4" ;
    cosmos_sdtm:shortName "LCI to 2.5% Initial Concentration (RE)" ;
    cosmos_sdtm:source "RE.RETESTCD" ;
    cosmos_sdtm:variables <https://w3id.org/cdisc/cosmos/dss/RE/LCI2_5_RE/REDTC>,
        <https://w3id.org/cdisc/cosmos/dss/RE/LCI2_5_RE/REORRES>,
        <https://w3id.org/cdisc/cosmos/dss/RE/LCI2_5_RE/RESTRESC>,
        <https://w3id.org/cdisc/cosmos/dss/RE/LCI2_5_RE/RESTRESN>,
        <https://w3id.org/cdisc/cosmos/dss/RE/LCI2_5_RE/RETEST>,
        <https://w3id.org/cdisc/cosmos/dss/RE/LCI2_5_RE/RETESTCD> .

<https://w3id.org/cdisc/cosmos/dss/RE/LCI5_RE> a cosmos_sdtm:SDTMGroup ;
    dcterms:identifier "LCI5_RE" ;
    rdf:_1 <https://w3id.org/cdisc/cosmos/dss/RE/LCI5_RE/RETESTCD> ;
    rdf:_2 <https://w3id.org/cdisc/cosmos/dss/RE/LCI5_RE/RETEST> ;
    rdf:_3 <https://w3id.org/cdisc/cosmos/dss/RE/LCI5_RE/REORRES> ;
    rdf:_4 <https://w3id.org/cdisc/cosmos/dss/RE/LCI5_RE/RESTRESC> ;
    rdf:_5 <https://w3id.org/cdisc/cosmos/dss/RE/LCI5_RE/RESTRESN> ;
    rdf:_6 <https://w3id.org/cdisc/cosmos/dss/RE/LCI5_RE/REDTC> ;
    cosmos_sdtm:biomedicalConceptId NCIT:C201472 ;
    cosmos_sdtm:domain "RE" ;
    cosmos_sdtm:packageDate "2026-05-26"^^xsd:date ;
    cosmos_sdtm:packageType <https://www.cdisc.org/cosmos/sdtm_v1.0/PackageTypeEnum#sdtm> ;
    cosmos_sdtm:sdtmigStartVersion "3-4" ;
    cosmos_sdtm:shortName "LCI to 5% Initial Concentration (RE)" ;
    cosmos_sdtm:source "RE.RETESTCD" ;
    cosmos_sdtm:variables <https://w3id.org/cdisc/cosmos/dss/RE/LCI5_RE/REDTC>,
        <https://w3id.org/cdisc/cosmos/dss/RE/LCI5_RE/REORRES>,
        <https://w3id.org/cdisc/cosmos/dss/RE/LCI5_RE/RESTRESC>,
        <https://w3id.org/cdisc/cosmos/dss/RE/LCI5_RE/RESTRESN>,
        <https://w3id.org/cdisc/cosmos/dss/RE/LCI5_RE/RETEST>,
        <https://w3id.org/cdisc/cosmos/dss/RE/LCI5_RE/RETESTCD> .

<https://w3id.org/cdisc/cosmos/dss/RE/LCI_RE> a cosmos_sdtm:SDTMGroup ;
    dcterms:identifier "LCI_RE" ;
    rdf:_1 <https://w3id.org/cdisc/cosmos/dss/RE/LCI_RE/RETESTCD> ;
    rdf:_2 <https://w3id.org/cdisc/cosmos/dss/RE/LCI_RE/RETEST> ;
    rdf:_3 <https://w3id.org/cdisc/cosmos/dss/RE/LCI_RE/REORRES> ;
    rdf:_4 <https://w3id.org/cdisc/cosmos/dss/RE/LCI_RE/RESTRESC> ;
    rdf:_5 <https://w3id.org/cdisc/cosmos/dss/RE/LCI_RE/RESTRESN> ;
    rdf:_6 <https://w3id.org/cdisc/cosmos/dss/RE/LCI_RE/REDTC> ;
    cosmos_sdtm:biomedicalConceptId NCIT:C124425 ;
    cosmos_sdtm:domain "RE" ;
    cosmos_sdtm:packageDate "2026-05-26"^^xsd:date ;
    cosmos_sdtm:packageType <https://www.cdisc.org/cosmos/sdtm_v1.0/PackageTypeEnum#sdtm> ;
    cosmos_sdtm:sdtmigStartVersion "3-4" ;
    cosmos_sdtm:shortName "Lung Clearance Index (RE)" ;
    cosmos_sdtm:source "RE.RETESTCD" ;
    cosmos_sdtm:variables <https://w3id.org/cdisc/cosmos/dss/RE/LCI_RE/REDTC>,
        <https://w3id.org/cdisc/cosmos/dss/RE/LCI_RE/REORRES>,
        <https://w3id.org/cdisc/cosmos/dss/RE/LCI_RE/RESTRESC>,
        <https://w3id.org/cdisc/cosmos/dss/RE/LCI_RE/RESTRESN>,
        <https://w3id.org/cdisc/cosmos/dss/RE/LCI_RE/RETEST>,
        <https://w3id.org/cdisc/cosmos/dss/RE/LCI_RE/RETESTCD> .

<https://w3id.org/cdisc/cosmos/dss/RE/LOBVOLPP_RE> a cosmos_sdtm:SDTMGroup ;
    dcterms:identifier "LOBVOLPP_RE" ;
    rdf:_1 <https://w3id.org/cdisc/cosmos/dss/RE/LOBVOLPP_RE/RETESTCD> ;
    rdf:_2 <https://w3id.org/cdisc/cosmos/dss/RE/LOBVOLPP_RE/RETEST> ;
    rdf:_3 <https://w3id.org/cdisc/cosmos/dss/RE/LOBVOLPP_RE/REORRES> ;
    rdf:_4 <https://w3id.org/cdisc/cosmos/dss/RE/LOBVOLPP_RE/REORRESU> ;
    rdf:_5 <https://w3id.org/cdisc/cosmos/dss/RE/LOBVOLPP_RE/RESTRESC> ;
    rdf:_6 <https://w3id.org/cdisc/cosmos/dss/RE/LOBVOLPP_RE/RESTRESN> ;
    rdf:_7 <https://w3id.org/cdisc/cosmos/dss/RE/LOBVOLPP_RE/RESTRESU> ;
    rdf:_8 <https://w3id.org/cdisc/cosmos/dss/RE/LOBVOLPP_RE/REDTC> ;
    cosmos_sdtm:biomedicalConceptId NCIT:C174361 ;
    cosmos_sdtm:domain "RE" ;
    cosmos_sdtm:packageDate "2026-05-26"^^xsd:date ;
    cosmos_sdtm:packageType <https://www.cdisc.org/cosmos/sdtm_v1.0/PackageTypeEnum#sdtm> ;
    cosmos_sdtm:sdtmigStartVersion "3-4" ;
    cosmos_sdtm:shortName "Percent Predicted Lobar Volume (RE)" ;
    cosmos_sdtm:source "RE.RETESTCD" ;
    cosmos_sdtm:variables <https://w3id.org/cdisc/cosmos/dss/RE/LOBVOLPP_RE/REDTC>,
        <https://w3id.org/cdisc/cosmos/dss/RE/LOBVOLPP_RE/REORRES>,
        <https://w3id.org/cdisc/cosmos/dss/RE/LOBVOLPP_RE/REORRESU>,
        <https://w3id.org/cdisc/cosmos/dss/RE/LOBVOLPP_RE/RESTRESC>,
        <https://w3id.org/cdisc/cosmos/dss/RE/LOBVOLPP_RE/RESTRESN>,
        <https://w3id.org/cdisc/cosmos/dss/RE/LOBVOLPP_RE/RESTRESU>,
        <https://w3id.org/cdisc/cosmos/dss/RE/LOBVOLPP_RE/RETEST>,
        <https://w3id.org/cdisc/cosmos/dss/RE/LOBVOLPP_RE/RETESTCD> .

<https://w3id.org/cdisc/cosmos/dss/RE/LOBVOL_RE> a cosmos_sdtm:SDTMGroup ;
    dcterms:identifier "LOBVOL_RE" ;
    rdf:_1 <https://w3id.org/cdisc/cosmos/dss/RE/LOBVOL_RE/RETESTCD> ;
    rdf:_2 <https://w3id.org/cdisc/cosmos/dss/RE/LOBVOL_RE/RETEST> ;
    rdf:_3 <https://w3id.org/cdisc/cosmos/dss/RE/LOBVOL_RE/REORRES> ;
    rdf:_4 <https://w3id.org/cdisc/cosmos/dss/RE/LOBVOL_RE/REORRESU> ;
    rdf:_5 <https://w3id.org/cdisc/cosmos/dss/RE/LOBVOL_RE/RESTRESC> ;
    rdf:_6 <https://w3id.org/cdisc/cosmos/dss/RE/LOBVOL_RE/RESTRESN> ;
    rdf:_7 <https://w3id.org/cdisc/cosmos/dss/RE/LOBVOL_RE/RESTRESU> ;
    rdf:_8 <https://w3id.org/cdisc/cosmos/dss/RE/LOBVOL_RE/REDTC> ;
    cosmos_sdtm:biomedicalConceptId NCIT:C174232 ;
    cosmos_sdtm:domain "RE" ;
    cosmos_sdtm:packageDate "2026-05-26"^^xsd:date ;
    cosmos_sdtm:packageType <https://www.cdisc.org/cosmos/sdtm_v1.0/PackageTypeEnum#sdtm> ;
    cosmos_sdtm:sdtmigStartVersion "3-4" ;
    cosmos_sdtm:shortName "Lobar Volume (RE)" ;
    cosmos_sdtm:source "RE.RETESTCD" ;
    cosmos_sdtm:variables <https://w3id.org/cdisc/cosmos/dss/RE/LOBVOL_RE/REDTC>,
        <https://w3id.org/cdisc/cosmos/dss/RE/LOBVOL_RE/REORRES>,
        <https://w3id.org/cdisc/cosmos/dss/RE/LOBVOL_RE/REORRESU>,
        <https://w3id.org/cdisc/cosmos/dss/RE/LOBVOL_RE/RESTRESC>,
        <https://w3id.org/cdisc/cosmos/dss/RE/LOBVOL_RE/RESTRESN>,
        <https://w3id.org/cdisc/cosmos/dss/RE/LOBVOL_RE/RESTRESU>,
        <https://w3id.org/cdisc/cosmos/dss/RE/LOBVOL_RE/RETEST>,
        <https://w3id.org/cdisc/cosmos/dss/RE/LOBVOL_RE/RETESTCD> .

<https://w3id.org/cdisc/cosmos/dss/RE/MALEVDES_RE> a cosmos_sdtm:SDTMGroup ;
    dcterms:identifier "MALEVDES_RE" ;
    rdf:_1 <https://w3id.org/cdisc/cosmos/dss/RE/MALEVDES_RE/RETESTCD> ;
    rdf:_2 <https://w3id.org/cdisc/cosmos/dss/RE/MALEVDES_RE/RETEST> ;
    rdf:_3 <https://w3id.org/cdisc/cosmos/dss/RE/MALEVDES_RE/REORRES> ;
    rdf:_4 <https://w3id.org/cdisc/cosmos/dss/RE/MALEVDES_RE/RESTRESC> ;
    rdf:_5 <https://w3id.org/cdisc/cosmos/dss/RE/MALEVDES_RE/REDTC> ;
    cosmos_sdtm:biomedicalConceptId NCIT:C161312 ;
    cosmos_sdtm:domain "RE" ;
    cosmos_sdtm:packageDate "2026-05-26"^^xsd:date ;
    cosmos_sdtm:packageType <https://www.cdisc.org/cosmos/sdtm_v1.0/PackageTypeEnum#sdtm> ;
    cosmos_sdtm:sdtmigStartVersion "3-4" ;
    cosmos_sdtm:shortName "Malignancy Evidence Description (RE)" ;
    cosmos_sdtm:source "RE.RETESTCD" ;
    cosmos_sdtm:variables <https://w3id.org/cdisc/cosmos/dss/RE/MALEVDES_RE/REDTC>,
        <https://w3id.org/cdisc/cosmos/dss/RE/MALEVDES_RE/REORRES>,
        <https://w3id.org/cdisc/cosmos/dss/RE/MALEVDES_RE/RESTRESC>,
        <https://w3id.org/cdisc/cosmos/dss/RE/MALEVDES_RE/RETEST>,
        <https://w3id.org/cdisc/cosmos/dss/RE/MALEVDES_RE/RETESTCD> .

<https://w3id.org/cdisc/cosmos/dss/RE/MALIND_RE> a cosmos_sdtm:SDTMGroup ;
    dcterms:identifier "MALIND_RE" ;
    rdf:_1 <https://w3id.org/cdisc/cosmos/dss/RE/MALIND_RE/RETESTCD> ;
    rdf:_2 <https://w3id.org/cdisc/cosmos/dss/RE/MALIND_RE/RETEST> ;
    rdf:_3 <https://w3id.org/cdisc/cosmos/dss/RE/MALIND_RE/REORRES> ;
    rdf:_4 <https://w3id.org/cdisc/cosmos/dss/RE/MALIND_RE/RESTRESC> ;
    rdf:_5 <https://w3id.org/cdisc/cosmos/dss/RE/MALIND_RE/REDTC> ;
    cosmos_sdtm:biomedicalConceptId NCIT:C161423 ;
    cosmos_sdtm:domain "RE" ;
    cosmos_sdtm:packageDate "2026-05-26"^^xsd:date ;
    cosmos_sdtm:packageType <https://www.cdisc.org/cosmos/sdtm_v1.0/PackageTypeEnum#sdtm> ;
    cosmos_sdtm:sdtmigStartVersion "3-4" ;
    cosmos_sdtm:shortName "Malignancy Indicator (RE)" ;
    cosmos_sdtm:source "RE.RETESTCD" ;
    cosmos_sdtm:variables <https://w3id.org/cdisc/cosmos/dss/RE/MALIND_RE/REDTC>,
        <https://w3id.org/cdisc/cosmos/dss/RE/MALIND_RE/REORRES>,
        <https://w3id.org/cdisc/cosmos/dss/RE/MALIND_RE/RESTRESC>,
        <https://w3id.org/cdisc/cosmos/dss/RE/MALIND_RE/RETEST>,
        <https://w3id.org/cdisc/cosmos/dss/RE/MALIND_RE/RETESTCD> .

<https://w3id.org/cdisc/cosmos/dss/RE/MEPPP_RE> a cosmos_sdtm:SDTMGroup ;
    dcterms:identifier "MEPPP_RE" ;
    rdf:_1 <https://w3id.org/cdisc/cosmos/dss/RE/MEPPP_RE/RETESTCD> ;
    rdf:_2 <https://w3id.org/cdisc/cosmos/dss/RE/MEPPP_RE/RETEST> ;
    rdf:_3 <https://w3id.org/cdisc/cosmos/dss/RE/MEPPP_RE/REORRES> ;
    rdf:_4 <https://w3id.org/cdisc/cosmos/dss/RE/MEPPP_RE/REORRESU> ;
    rdf:_5 <https://w3id.org/cdisc/cosmos/dss/RE/MEPPP_RE/RESTRESC> ;
    rdf:_6 <https://w3id.org/cdisc/cosmos/dss/RE/MEPPP_RE/RESTRESN> ;
    rdf:_7 <https://w3id.org/cdisc/cosmos/dss/RE/MEPPP_RE/RESTRESU> ;
    rdf:_8 <https://w3id.org/cdisc/cosmos/dss/RE/MEPPP_RE/REDTC> ;
    cosmos_sdtm:biomedicalConceptId NCIT:C135495 ;
    cosmos_sdtm:domain "RE" ;
    cosmos_sdtm:packageDate "2026-05-26"^^xsd:date ;
    cosmos_sdtm:packageType <https://www.cdisc.org/cosmos/sdtm_v1.0/PackageTypeEnum#sdtm> ;
    cosmos_sdtm:sdtmigStartVersion "3-4" ;
    cosmos_sdtm:shortName "Percent Predicted MEP (RE)" ;
    cosmos_sdtm:source "RE.RETESTCD" ;
    cosmos_sdtm:variables <https://w3id.org/cdisc/cosmos/dss/RE/MEPPP_RE/REDTC>,
        <https://w3id.org/cdisc/cosmos/dss/RE/MEPPP_RE/REORRES>,
        <https://w3id.org/cdisc/cosmos/dss/RE/MEPPP_RE/REORRESU>,
        <https://w3id.org/cdisc/cosmos/dss/RE/MEPPP_RE/RESTRESC>,
        <https://w3id.org/cdisc/cosmos/dss/RE/MEPPP_RE/RESTRESN>,
        <https://w3id.org/cdisc/cosmos/dss/RE/MEPPP_RE/RESTRESU>,
        <https://w3id.org/cdisc/cosmos/dss/RE/MEPPP_RE/RETEST>,
        <https://w3id.org/cdisc/cosmos/dss/RE/MEPPP_RE/RETESTCD> .

<https://w3id.org/cdisc/cosmos/dss/RE/MEP_RE> a cosmos_sdtm:SDTMGroup ;
    dcterms:identifier "MEP_RE" ;
    rdf:_1 <https://w3id.org/cdisc/cosmos/dss/RE/MEP_RE/RETESTCD> ;
    rdf:_2 <https://w3id.org/cdisc/cosmos/dss/RE/MEP_RE/RETEST> ;
    rdf:_3 <https://w3id.org/cdisc/cosmos/dss/RE/MEP_RE/REORRES> ;
    rdf:_4 <https://w3id.org/cdisc/cosmos/dss/RE/MEP_RE/REORRESU> ;
    rdf:_5 <https://w3id.org/cdisc/cosmos/dss/RE/MEP_RE/RESTRESC> ;
    rdf:_6 <https://w3id.org/cdisc/cosmos/dss/RE/MEP_RE/RESTRESN> ;
    rdf:_7 <https://w3id.org/cdisc/cosmos/dss/RE/MEP_RE/RESTRESU> ;
    rdf:_8 <https://w3id.org/cdisc/cosmos/dss/RE/MEP_RE/REDTC> ;
    cosmos_sdtm:biomedicalConceptId NCIT:C135494 ;
    cosmos_sdtm:domain "RE" ;
    cosmos_sdtm:packageDate "2026-05-26"^^xsd:date ;
    cosmos_sdtm:packageType <https://www.cdisc.org/cosmos/sdtm_v1.0/PackageTypeEnum#sdtm> ;
    cosmos_sdtm:sdtmigStartVersion "3-4" ;
    cosmos_sdtm:shortName "Maximal Expiratory Pressure (RE)" ;
    cosmos_sdtm:source "RE.RETESTCD" ;
    cosmos_sdtm:variables <https://w3id.org/cdisc/cosmos/dss/RE/MEP_RE/REDTC>,
        <https://w3id.org/cdisc/cosmos/dss/RE/MEP_RE/REORRES>,
        <https://w3id.org/cdisc/cosmos/dss/RE/MEP_RE/REORRESU>,
        <https://w3id.org/cdisc/cosmos/dss/RE/MEP_RE/RESTRESC>,
        <https://w3id.org/cdisc/cosmos/dss/RE/MEP_RE/RESTRESN>,
        <https://w3id.org/cdisc/cosmos/dss/RE/MEP_RE/RESTRESU>,
        <https://w3id.org/cdisc/cosmos/dss/RE/MEP_RE/RETEST>,
        <https://w3id.org/cdisc/cosmos/dss/RE/MEP_RE/RETESTCD> .

<https://w3id.org/cdisc/cosmos/dss/RE/MIPPP_RE> a cosmos_sdtm:SDTMGroup ;
    dcterms:identifier "MIPPP_RE" ;
    rdf:_1 <https://w3id.org/cdisc/cosmos/dss/RE/MIPPP_RE/RETESTCD> ;
    rdf:_2 <https://w3id.org/cdisc/cosmos/dss/RE/MIPPP_RE/RETEST> ;
    rdf:_3 <https://w3id.org/cdisc/cosmos/dss/RE/MIPPP_RE/REORRES> ;
    rdf:_4 <https://w3id.org/cdisc/cosmos/dss/RE/MIPPP_RE/REORRESU> ;
    rdf:_5 <https://w3id.org/cdisc/cosmos/dss/RE/MIPPP_RE/RESTRESC> ;
    rdf:_6 <https://w3id.org/cdisc/cosmos/dss/RE/MIPPP_RE/RESTRESN> ;
    rdf:_7 <https://w3id.org/cdisc/cosmos/dss/RE/MIPPP_RE/RESTRESU> ;
    rdf:_8 <https://w3id.org/cdisc/cosmos/dss/RE/MIPPP_RE/REDTC> ;
    cosmos_sdtm:biomedicalConceptId NCIT:C135497 ;
    cosmos_sdtm:domain "RE" ;
    cosmos_sdtm:packageDate "2026-05-26"^^xsd:date ;
    cosmos_sdtm:packageType <https://www.cdisc.org/cosmos/sdtm_v1.0/PackageTypeEnum#sdtm> ;
    cosmos_sdtm:sdtmigStartVersion "3-4" ;
    cosmos_sdtm:shortName "Percent Predicted MIP (RE)" ;
    cosmos_sdtm:source "RE.RETESTCD" ;
    cosmos_sdtm:variables <https://w3id.org/cdisc/cosmos/dss/RE/MIPPP_RE/REDTC>,
        <https://w3id.org/cdisc/cosmos/dss/RE/MIPPP_RE/REORRES>,
        <https://w3id.org/cdisc/cosmos/dss/RE/MIPPP_RE/REORRESU>,
        <https://w3id.org/cdisc/cosmos/dss/RE/MIPPP_RE/RESTRESC>,
        <https://w3id.org/cdisc/cosmos/dss/RE/MIPPP_RE/RESTRESN>,
        <https://w3id.org/cdisc/cosmos/dss/RE/MIPPP_RE/RESTRESU>,
        <https://w3id.org/cdisc/cosmos/dss/RE/MIPPP_RE/RETEST>,
        <https://w3id.org/cdisc/cosmos/dss/RE/MIPPP_RE/RETESTCD> .

<https://w3id.org/cdisc/cosmos/dss/RE/MIP_RE> a cosmos_sdtm:SDTMGroup ;
    dcterms:identifier "MIP_RE" ;
    rdf:_1 <https://w3id.org/cdisc/cosmos/dss/RE/MIP_RE/RETESTCD> ;
    rdf:_2 <https://w3id.org/cdisc/cosmos/dss/RE/MIP_RE/RETEST> ;
    rdf:_3 <https://w3id.org/cdisc/cosmos/dss/RE/MIP_RE/REORRES> ;
    rdf:_4 <https://w3id.org/cdisc/cosmos/dss/RE/MIP_RE/REORRESU> ;
    rdf:_5 <https://w3id.org/cdisc/cosmos/dss/RE/MIP_RE/RESTRESC> ;
    rdf:_6 <https://w3id.org/cdisc/cosmos/dss/RE/MIP_RE/RESTRESN> ;
    rdf:_7 <https://w3id.org/cdisc/cosmos/dss/RE/MIP_RE/RESTRESU> ;
    rdf:_8 <https://w3id.org/cdisc/cosmos/dss/RE/MIP_RE/REDTC> ;
    cosmos_sdtm:biomedicalConceptId NCIT:C135496 ;
    cosmos_sdtm:domain "RE" ;
    cosmos_sdtm:packageDate "2026-05-26"^^xsd:date ;
    cosmos_sdtm:packageType <https://www.cdisc.org/cosmos/sdtm_v1.0/PackageTypeEnum#sdtm> ;
    cosmos_sdtm:sdtmigStartVersion "3-4" ;
    cosmos_sdtm:shortName "Maximal Inspiratory Pressure (RE)" ;
    cosmos_sdtm:source "RE.RETESTCD" ;
    cosmos_sdtm:variables <https://w3id.org/cdisc/cosmos/dss/RE/MIP_RE/REDTC>,
        <https://w3id.org/cdisc/cosmos/dss/RE/MIP_RE/REORRES>,
        <https://w3id.org/cdisc/cosmos/dss/RE/MIP_RE/REORRESU>,
        <https://w3id.org/cdisc/cosmos/dss/RE/MIP_RE/RESTRESC>,
        <https://w3id.org/cdisc/cosmos/dss/RE/MIP_RE/RESTRESN>,
        <https://w3id.org/cdisc/cosmos/dss/RE/MIP_RE/RESTRESU>,
        <https://w3id.org/cdisc/cosmos/dss/RE/MIP_RE/RETEST>,
        <https://w3id.org/cdisc/cosmos/dss/RE/MIP_RE/RETESTCD> .

<https://w3id.org/cdisc/cosmos/dss/RE/MV_RE> a cosmos_sdtm:SDTMGroup ;
    dcterms:identifier "MV_RE" ;
    rdf:_1 <https://w3id.org/cdisc/cosmos/dss/RE/MV_RE/RETESTCD> ;
    rdf:_2 <https://w3id.org/cdisc/cosmos/dss/RE/MV_RE/RETEST> ;
    rdf:_3 <https://w3id.org/cdisc/cosmos/dss/RE/MV_RE/REORRES> ;
    rdf:_4 <https://w3id.org/cdisc/cosmos/dss/RE/MV_RE/REORRESU> ;
    rdf:_5 <https://w3id.org/cdisc/cosmos/dss/RE/MV_RE/RESTRESC> ;
    rdf:_6 <https://w3id.org/cdisc/cosmos/dss/RE/MV_RE/RESTRESN> ;
    rdf:_7 <https://w3id.org/cdisc/cosmos/dss/RE/MV_RE/RESTRESU> ;
    rdf:_8 <https://w3id.org/cdisc/cosmos/dss/RE/MV_RE/REDTC> ;
    cosmos_sdtm:biomedicalConceptId NCIT:C120936 ;
    cosmos_sdtm:domain "RE" ;
    cosmos_sdtm:packageDate "2026-05-26"^^xsd:date ;
    cosmos_sdtm:packageType <https://www.cdisc.org/cosmos/sdtm_v1.0/PackageTypeEnum#sdtm> ;
    cosmos_sdtm:sdtmigStartVersion "3-4" ;
    cosmos_sdtm:shortName "Minute Volume (RE)" ;
    cosmos_sdtm:source "RE.RETESTCD" ;
    cosmos_sdtm:variables <https://w3id.org/cdisc/cosmos/dss/RE/MV_RE/REDTC>,
        <https://w3id.org/cdisc/cosmos/dss/RE/MV_RE/REORRES>,
        <https://w3id.org/cdisc/cosmos/dss/RE/MV_RE/REORRESU>,
        <https://w3id.org/cdisc/cosmos/dss/RE/MV_RE/RESTRESC>,
        <https://w3id.org/cdisc/cosmos/dss/RE/MV_RE/RESTRESN>,
        <https://w3id.org/cdisc/cosmos/dss/RE/MV_RE/RESTRESU>,
        <https://w3id.org/cdisc/cosmos/dss/RE/MV_RE/RETEST>,
        <https://w3id.org/cdisc/cosmos/dss/RE/MV_RE/RETESTCD> .

<https://w3id.org/cdisc/cosmos/dss/RE/OI_RE> a cosmos_sdtm:SDTMGroup ;
    dcterms:identifier "OI_RE" ;
    rdf:_1 <https://w3id.org/cdisc/cosmos/dss/RE/OI_RE/RETESTCD> ;
    rdf:_2 <https://w3id.org/cdisc/cosmos/dss/RE/OI_RE/RETEST> ;
    rdf:_3 <https://w3id.org/cdisc/cosmos/dss/RE/OI_RE/REORRES> ;
    rdf:_4 <https://w3id.org/cdisc/cosmos/dss/RE/OI_RE/RESTRESC> ;
    rdf:_5 <https://w3id.org/cdisc/cosmos/dss/RE/OI_RE/RESTRESN> ;
    rdf:_6 <https://w3id.org/cdisc/cosmos/dss/RE/OI_RE/REDTC> ;
    cosmos_sdtm:biomedicalConceptId NCIT:C189635 ;
    cosmos_sdtm:domain "RE" ;
    cosmos_sdtm:packageDate "2026-05-26"^^xsd:date ;
    cosmos_sdtm:packageType <https://www.cdisc.org/cosmos/sdtm_v1.0/PackageTypeEnum#sdtm> ;
    cosmos_sdtm:sdtmigStartVersion "3-4" ;
    cosmos_sdtm:shortName "Oxygenation Index (RE)" ;
    cosmos_sdtm:source "RE.RETESTCD" ;
    cosmos_sdtm:variables <https://w3id.org/cdisc/cosmos/dss/RE/OI_RE/REDTC>,
        <https://w3id.org/cdisc/cosmos/dss/RE/OI_RE/REORRES>,
        <https://w3id.org/cdisc/cosmos/dss/RE/OI_RE/RESTRESC>,
        <https://w3id.org/cdisc/cosmos/dss/RE/OI_RE/RESTRESN>,
        <https://w3id.org/cdisc/cosmos/dss/RE/OI_RE/RETEST>,
        <https://w3id.org/cdisc/cosmos/dss/RE/OI_RE/RETESTCD> .

<https://w3id.org/cdisc/cosmos/dss/RE/OXYPULSE_RE> a cosmos_sdtm:SDTMGroup ;
    dcterms:identifier "OXYPULSE_RE" ;
    rdf:_1 <https://w3id.org/cdisc/cosmos/dss/RE/OXYPULSE_RE/RETESTCD> ;
    rdf:_2 <https://w3id.org/cdisc/cosmos/dss/RE/OXYPULSE_RE/RETEST> ;
    rdf:_3 <https://w3id.org/cdisc/cosmos/dss/RE/OXYPULSE_RE/REORRES> ;
    rdf:_4 <https://w3id.org/cdisc/cosmos/dss/RE/OXYPULSE_RE/REORRESU> ;
    rdf:_5 <https://w3id.org/cdisc/cosmos/dss/RE/OXYPULSE_RE/RESTRESC> ;
    rdf:_6 <https://w3id.org/cdisc/cosmos/dss/RE/OXYPULSE_RE/RESTRESN> ;
    rdf:_7 <https://w3id.org/cdisc/cosmos/dss/RE/OXYPULSE_RE/RESTRESU> ;
    rdf:_8 <https://w3id.org/cdisc/cosmos/dss/RE/OXYPULSE_RE/REDTC> ;
    cosmos_sdtm:biomedicalConceptId NCIT:C123566 ;
    cosmos_sdtm:domain "RE" ;
    cosmos_sdtm:packageDate "2026-05-26"^^xsd:date ;
    cosmos_sdtm:packageType <https://www.cdisc.org/cosmos/sdtm_v1.0/PackageTypeEnum#sdtm> ;
    cosmos_sdtm:sdtmigStartVersion "3-4" ;
    cosmos_sdtm:shortName "Oxygen Pulse (RE)" ;
    cosmos_sdtm:source "RE.RETESTCD" ;
    cosmos_sdtm:variables <https://w3id.org/cdisc/cosmos/dss/RE/OXYPULSE_RE/REDTC>,
        <https://w3id.org/cdisc/cosmos/dss/RE/OXYPULSE_RE/REORRES>,
        <https://w3id.org/cdisc/cosmos/dss/RE/OXYPULSE_RE/REORRESU>,
        <https://w3id.org/cdisc/cosmos/dss/RE/OXYPULSE_RE/RESTRESC>,
        <https://w3id.org/cdisc/cosmos/dss/RE/OXYPULSE_RE/RESTRESN>,
        <https://w3id.org/cdisc/cosmos/dss/RE/OXYPULSE_RE/RESTRESU>,
        <https://w3id.org/cdisc/cosmos/dss/RE/OXYPULSE_RE/RETEST>,
        <https://w3id.org/cdisc/cosmos/dss/RE/OXYPULSE_RE/RETESTCD> .

<https://w3id.org/cdisc/cosmos/dss/RE/OXYSAT_RE> a cosmos_sdtm:SDTMGroup ;
    dcterms:identifier "OXYSAT_RE" ;
    rdf:_1 <https://w3id.org/cdisc/cosmos/dss/RE/OXYSAT_RE/RETESTCD> ;
    rdf:_2 <https://w3id.org/cdisc/cosmos/dss/RE/OXYSAT_RE/RETEST> ;
    rdf:_3 <https://w3id.org/cdisc/cosmos/dss/RE/OXYSAT_RE/REORRES> ;
    rdf:_4 <https://w3id.org/cdisc/cosmos/dss/RE/OXYSAT_RE/REORRESU> ;
    rdf:_5 <https://w3id.org/cdisc/cosmos/dss/RE/OXYSAT_RE/RESTRESC> ;
    rdf:_6 <https://w3id.org/cdisc/cosmos/dss/RE/OXYSAT_RE/RESTRESN> ;
    rdf:_7 <https://w3id.org/cdisc/cosmos/dss/RE/OXYSAT_RE/RESTRESU> ;
    rdf:_8 <https://w3id.org/cdisc/cosmos/dss/RE/OXYSAT_RE/REDTC> ;
    cosmos_sdtm:biomedicalConceptId NCIT:C60832 ;
    cosmos_sdtm:domain "RE" ;
    cosmos_sdtm:packageDate "2026-05-26"^^xsd:date ;
    cosmos_sdtm:packageType <https://www.cdisc.org/cosmos/sdtm_v1.0/PackageTypeEnum#sdtm> ;
    cosmos_sdtm:sdtmigStartVersion "3-4" ;
    cosmos_sdtm:shortName "Oxygen Saturation (RE)" ;
    cosmos_sdtm:source "RE.RETESTCD" ;
    cosmos_sdtm:variables <https://w3id.org/cdisc/cosmos/dss/RE/OXYSAT_RE/REDTC>,
        <https://w3id.org/cdisc/cosmos/dss/RE/OXYSAT_RE/REORRES>,
        <https://w3id.org/cdisc/cosmos/dss/RE/OXYSAT_RE/REORRESU>,
        <https://w3id.org/cdisc/cosmos/dss/RE/OXYSAT_RE/RESTRESC>,
        <https://w3id.org/cdisc/cosmos/dss/RE/OXYSAT_RE/RESTRESN>,
        <https://w3id.org/cdisc/cosmos/dss/RE/OXYSAT_RE/RESTRESU>,
        <https://w3id.org/cdisc/cosmos/dss/RE/OXYSAT_RE/RETEST>,
        <https://w3id.org/cdisc/cosmos/dss/RE/OXYSAT_RE/RETESTCD> .

<https://w3id.org/cdisc/cosmos/dss/RE/PCF_RE> a cosmos_sdtm:SDTMGroup ;
    dcterms:identifier "PCF_RE" ;
    rdf:_1 <https://w3id.org/cdisc/cosmos/dss/RE/PCF_RE/RETESTCD> ;
    rdf:_2 <https://w3id.org/cdisc/cosmos/dss/RE/PCF_RE/RETEST> ;
    rdf:_3 <https://w3id.org/cdisc/cosmos/dss/RE/PCF_RE/REORRES> ;
    rdf:_4 <https://w3id.org/cdisc/cosmos/dss/RE/PCF_RE/REORRESU> ;
    rdf:_5 <https://w3id.org/cdisc/cosmos/dss/RE/PCF_RE/RESTRESC> ;
    rdf:_6 <https://w3id.org/cdisc/cosmos/dss/RE/PCF_RE/RESTRESN> ;
    rdf:_7 <https://w3id.org/cdisc/cosmos/dss/RE/PCF_RE/RESTRESU> ;
    rdf:_8 <https://w3id.org/cdisc/cosmos/dss/RE/PCF_RE/REDTC> ;
    cosmos_sdtm:biomedicalConceptId NCIT:C135498 ;
    cosmos_sdtm:domain "RE" ;
    cosmos_sdtm:packageDate "2026-05-26"^^xsd:date ;
    cosmos_sdtm:packageType <https://www.cdisc.org/cosmos/sdtm_v1.0/PackageTypeEnum#sdtm> ;
    cosmos_sdtm:sdtmigStartVersion "3-4" ;
    cosmos_sdtm:shortName "Peak Cough Flow (RE)" ;
    cosmos_sdtm:source "RE.RETESTCD" ;
    cosmos_sdtm:variables <https://w3id.org/cdisc/cosmos/dss/RE/PCF_RE/REDTC>,
        <https://w3id.org/cdisc/cosmos/dss/RE/PCF_RE/REORRES>,
        <https://w3id.org/cdisc/cosmos/dss/RE/PCF_RE/REORRESU>,
        <https://w3id.org/cdisc/cosmos/dss/RE/PCF_RE/RESTRESC>,
        <https://w3id.org/cdisc/cosmos/dss/RE/PCF_RE/RESTRESN>,
        <https://w3id.org/cdisc/cosmos/dss/RE/PCF_RE/RESTRESU>,
        <https://w3id.org/cdisc/cosmos/dss/RE/PCF_RE/RETEST>,
        <https://w3id.org/cdisc/cosmos/dss/RE/PCF_RE/RETESTCD> .

<https://w3id.org/cdisc/cosmos/dss/RE/PEFPP_RE> a cosmos_sdtm:SDTMGroup ;
    dcterms:identifier "PEFPP_RE" ;
    rdf:_1 <https://w3id.org/cdisc/cosmos/dss/RE/PEFPP_RE/RETESTCD> ;
    rdf:_2 <https://w3id.org/cdisc/cosmos/dss/RE/PEFPP_RE/RETEST> ;
    rdf:_3 <https://w3id.org/cdisc/cosmos/dss/RE/PEFPP_RE/REORRES> ;
    rdf:_4 <https://w3id.org/cdisc/cosmos/dss/RE/PEFPP_RE/REORRESU> ;
    rdf:_5 <https://w3id.org/cdisc/cosmos/dss/RE/PEFPP_RE/RESTRESC> ;
    rdf:_6 <https://w3id.org/cdisc/cosmos/dss/RE/PEFPP_RE/RESTRESN> ;
    rdf:_7 <https://w3id.org/cdisc/cosmos/dss/RE/PEFPP_RE/RESTRESU> ;
    rdf:_8 <https://w3id.org/cdisc/cosmos/dss/RE/PEFPP_RE/REDTC> ;
    cosmos_sdtm:biomedicalConceptId NCIT:C112384 ;
    cosmos_sdtm:domain "RE" ;
    cosmos_sdtm:packageDate "2026-05-26"^^xsd:date ;
    cosmos_sdtm:packageType <https://www.cdisc.org/cosmos/sdtm_v1.0/PackageTypeEnum#sdtm> ;
    cosmos_sdtm:sdtmigStartVersion "3-4" ;
    cosmos_sdtm:shortName "Percent Predicted Peak Expiratory Flow (RE)" ;
    cosmos_sdtm:source "RE.RETESTCD" ;
    cosmos_sdtm:variables <https://w3id.org/cdisc/cosmos/dss/RE/PEFPP_RE/REDTC>,
        <https://w3id.org/cdisc/cosmos/dss/RE/PEFPP_RE/REORRES>,
        <https://w3id.org/cdisc/cosmos/dss/RE/PEFPP_RE/REORRESU>,
        <https://w3id.org/cdisc/cosmos/dss/RE/PEFPP_RE/RESTRESC>,
        <https://w3id.org/cdisc/cosmos/dss/RE/PEFPP_RE/RESTRESN>,
        <https://w3id.org/cdisc/cosmos/dss/RE/PEFPP_RE/RESTRESU>,
        <https://w3id.org/cdisc/cosmos/dss/RE/PEFPP_RE/RETEST>,
        <https://w3id.org/cdisc/cosmos/dss/RE/PEFPP_RE/RETESTCD> .

<https://w3id.org/cdisc/cosmos/dss/RE/PEFREV_RE> a cosmos_sdtm:SDTMGroup ;
    dcterms:identifier "PEFREV_RE" ;
    rdf:_1 <https://w3id.org/cdisc/cosmos/dss/RE/PEFREV_RE/RETESTCD> ;
    rdf:_2 <https://w3id.org/cdisc/cosmos/dss/RE/PEFREV_RE/RETEST> ;
    rdf:_3 <https://w3id.org/cdisc/cosmos/dss/RE/PEFREV_RE/REORRES> ;
    rdf:_4 <https://w3id.org/cdisc/cosmos/dss/RE/PEFREV_RE/RESTRESC> ;
    rdf:_5 <https://w3id.org/cdisc/cosmos/dss/RE/PEFREV_RE/RESTRESN> ;
    rdf:_6 <https://w3id.org/cdisc/cosmos/dss/RE/PEFREV_RE/REDTC> ;
    cosmos_sdtm:biomedicalConceptId NCIT:C112368 ;
    cosmos_sdtm:domain "RE" ;
    cosmos_sdtm:packageDate "2026-05-26"^^xsd:date ;
    cosmos_sdtm:packageType <https://www.cdisc.org/cosmos/sdtm_v1.0/PackageTypeEnum#sdtm> ;
    cosmos_sdtm:sdtmigStartVersion "3-4" ;
    cosmos_sdtm:shortName "PEF Reversibility (RE)" ;
    cosmos_sdtm:source "RE.RETESTCD" ;
    cosmos_sdtm:variables <https://w3id.org/cdisc/cosmos/dss/RE/PEFREV_RE/REDTC>,
        <https://w3id.org/cdisc/cosmos/dss/RE/PEFREV_RE/REORRES>,
        <https://w3id.org/cdisc/cosmos/dss/RE/PEFREV_RE/RESTRESC>,
        <https://w3id.org/cdisc/cosmos/dss/RE/PEFREV_RE/RESTRESN>,
        <https://w3id.org/cdisc/cosmos/dss/RE/PEFREV_RE/RETEST>,
        <https://w3id.org/cdisc/cosmos/dss/RE/PEFREV_RE/RETESTCD> .

<https://w3id.org/cdisc/cosmos/dss/RE/PEFTIME_RE> a cosmos_sdtm:SDTMGroup ;
    dcterms:identifier "PEFTIME_RE" ;
    rdf:_1 <https://w3id.org/cdisc/cosmos/dss/RE/PEFTIME_RE/RETESTCD> ;
    rdf:_2 <https://w3id.org/cdisc/cosmos/dss/RE/PEFTIME_RE/RETEST> ;
    rdf:_3 <https://w3id.org/cdisc/cosmos/dss/RE/PEFTIME_RE/REORRES> ;
    rdf:_4 <https://w3id.org/cdisc/cosmos/dss/RE/PEFTIME_RE/REORRESU> ;
    rdf:_5 <https://w3id.org/cdisc/cosmos/dss/RE/PEFTIME_RE/RESTRESC> ;
    rdf:_6 <https://w3id.org/cdisc/cosmos/dss/RE/PEFTIME_RE/RESTRESN> ;
    rdf:_7 <https://w3id.org/cdisc/cosmos/dss/RE/PEFTIME_RE/RESTRESU> ;
    rdf:_8 <https://w3id.org/cdisc/cosmos/dss/RE/PEFTIME_RE/REDTC> ;
    cosmos_sdtm:biomedicalConceptId NCIT:C139259 ;
    cosmos_sdtm:domain "RE" ;
    cosmos_sdtm:packageDate "2026-05-26"^^xsd:date ;
    cosmos_sdtm:packageType <https://www.cdisc.org/cosmos/sdtm_v1.0/PackageTypeEnum#sdtm> ;
    cosmos_sdtm:sdtmigStartVersion "3-4" ;
    cosmos_sdtm:shortName "Peak Expiratory Flow Time (RE)" ;
    cosmos_sdtm:source "RE.RETESTCD" ;
    cosmos_sdtm:variables <https://w3id.org/cdisc/cosmos/dss/RE/PEFTIME_RE/REDTC>,
        <https://w3id.org/cdisc/cosmos/dss/RE/PEFTIME_RE/REORRES>,
        <https://w3id.org/cdisc/cosmos/dss/RE/PEFTIME_RE/REORRESU>,
        <https://w3id.org/cdisc/cosmos/dss/RE/PEFTIME_RE/RESTRESC>,
        <https://w3id.org/cdisc/cosmos/dss/RE/PEFTIME_RE/RESTRESN>,
        <https://w3id.org/cdisc/cosmos/dss/RE/PEFTIME_RE/RESTRESU>,
        <https://w3id.org/cdisc/cosmos/dss/RE/PEFTIME_RE/RETEST>,
        <https://w3id.org/cdisc/cosmos/dss/RE/PEFTIME_RE/RETESTCD> .

<https://w3id.org/cdisc/cosmos/dss/RE/PEF_RE> a cosmos_sdtm:SDTMGroup ;
    dcterms:identifier "PEF_RE" ;
    rdf:_1 <https://w3id.org/cdisc/cosmos/dss/RE/PEF_RE/RETESTCD> ;
    rdf:_2 <https://w3id.org/cdisc/cosmos/dss/RE/PEF_RE/RETEST> ;
    rdf:_3 <https://w3id.org/cdisc/cosmos/dss/RE/PEF_RE/REORRES> ;
    rdf:_4 <https://w3id.org/cdisc/cosmos/dss/RE/PEF_RE/REORRESU> ;
    rdf:_5 <https://w3id.org/cdisc/cosmos/dss/RE/PEF_RE/RESTRESC> ;
    rdf:_6 <https://w3id.org/cdisc/cosmos/dss/RE/PEF_RE/RESTRESN> ;
    rdf:_7 <https://w3id.org/cdisc/cosmos/dss/RE/PEF_RE/RESTRESU> ;
    rdf:_8 <https://w3id.org/cdisc/cosmos/dss/RE/PEF_RE/REDTC> ;
    cosmos_sdtm:biomedicalConceptId NCIT:C41372 ;
    cosmos_sdtm:domain "RE" ;
    cosmos_sdtm:packageDate "2026-05-26"^^xsd:date ;
    cosmos_sdtm:packageType <https://www.cdisc.org/cosmos/sdtm_v1.0/PackageTypeEnum#sdtm> ;
    cosmos_sdtm:sdtmigStartVersion "3-4" ;
    cosmos_sdtm:shortName "Peak Expiratory Flow (RE)" ;
    cosmos_sdtm:source "RE.RETESTCD" ;
    cosmos_sdtm:variables <https://w3id.org/cdisc/cosmos/dss/RE/PEF_RE/REDTC>,
        <https://w3id.org/cdisc/cosmos/dss/RE/PEF_RE/REORRES>,
        <https://w3id.org/cdisc/cosmos/dss/RE/PEF_RE/REORRESU>,
        <https://w3id.org/cdisc/cosmos/dss/RE/PEF_RE/RESTRESC>,
        <https://w3id.org/cdisc/cosmos/dss/RE/PEF_RE/RESTRESN>,
        <https://w3id.org/cdisc/cosmos/dss/RE/PEF_RE/RESTRESU>,
        <https://w3id.org/cdisc/cosmos/dss/RE/PEF_RE/RETEST>,
        <https://w3id.org/cdisc/cosmos/dss/RE/PEF_RE/RETESTCD> .

<https://w3id.org/cdisc/cosmos/dss/RE/PIF_RE> a cosmos_sdtm:SDTMGroup ;
    dcterms:identifier "PIF_RE" ;
    rdf:_1 <https://w3id.org/cdisc/cosmos/dss/RE/PIF_RE/RETESTCD> ;
    rdf:_2 <https://w3id.org/cdisc/cosmos/dss/RE/PIF_RE/RETEST> ;
    rdf:_3 <https://w3id.org/cdisc/cosmos/dss/RE/PIF_RE/REORRES> ;
    rdf:_4 <https://w3id.org/cdisc/cosmos/dss/RE/PIF_RE/REORRESU> ;
    rdf:_5 <https://w3id.org/cdisc/cosmos/dss/RE/PIF_RE/RESTRESC> ;
    rdf:_6 <https://w3id.org/cdisc/cosmos/dss/RE/PIF_RE/RESTRESN> ;
    rdf:_7 <https://w3id.org/cdisc/cosmos/dss/RE/PIF_RE/RESTRESU> ;
    rdf:_8 <https://w3id.org/cdisc/cosmos/dss/RE/PIF_RE/REDTC> ;
    cosmos_sdtm:biomedicalConceptId NCIT:C120939 ;
    cosmos_sdtm:domain "RE" ;
    cosmos_sdtm:packageDate "2026-05-26"^^xsd:date ;
    cosmos_sdtm:packageType <https://www.cdisc.org/cosmos/sdtm_v1.0/PackageTypeEnum#sdtm> ;
    cosmos_sdtm:sdtmigStartVersion "3-4" ;
    cosmos_sdtm:shortName "Peak Inspiratory Flow (RE)" ;
    cosmos_sdtm:source "RE.RETESTCD" ;
    cosmos_sdtm:variables <https://w3id.org/cdisc/cosmos/dss/RE/PIF_RE/REDTC>,
        <https://w3id.org/cdisc/cosmos/dss/RE/PIF_RE/REORRES>,
        <https://w3id.org/cdisc/cosmos/dss/RE/PIF_RE/REORRESU>,
        <https://w3id.org/cdisc/cosmos/dss/RE/PIF_RE/RESTRESC>,
        <https://w3id.org/cdisc/cosmos/dss/RE/PIF_RE/RESTRESN>,
        <https://w3id.org/cdisc/cosmos/dss/RE/PIF_RE/RESTRESU>,
        <https://w3id.org/cdisc/cosmos/dss/RE/PIF_RE/RETEST>,
        <https://w3id.org/cdisc/cosmos/dss/RE/PIF_RE/RETESTCD> .

<https://w3id.org/cdisc/cosmos/dss/RE/PLMXRS_RE> a cosmos_sdtm:SDTMGroup ;
    dcterms:identifier "PLMXRS_RE" ;
    rdf:_1 <https://w3id.org/cdisc/cosmos/dss/RE/PLMXRS_RE/RETESTCD> ;
    rdf:_2 <https://w3id.org/cdisc/cosmos/dss/RE/PLMXRS_RE/RETEST> ;
    rdf:_3 <https://w3id.org/cdisc/cosmos/dss/RE/PLMXRS_RE/REORRES> ;
    rdf:_4 <https://w3id.org/cdisc/cosmos/dss/RE/PLMXRS_RE/RESTRESC> ;
    rdf:_5 <https://w3id.org/cdisc/cosmos/dss/RE/PLMXRS_RE/RESTRESN> ;
    rdf:_6 <https://w3id.org/cdisc/cosmos/dss/RE/PLMXRS_RE/REDTC> ;
    cosmos_sdtm:biomedicalConceptId NCIT:C123567 ;
    cosmos_sdtm:domain "RE" ;
    cosmos_sdtm:packageDate "2026-05-26"^^xsd:date ;
    cosmos_sdtm:packageType <https://www.cdisc.org/cosmos/sdtm_v1.0/PackageTypeEnum#sdtm> ;
    cosmos_sdtm:sdtmigStartVersion "3-4" ;
    cosmos_sdtm:shortName "Pulmonary Reactance (RE)" ;
    cosmos_sdtm:source "RE.RETESTCD" ;
    cosmos_sdtm:variables <https://w3id.org/cdisc/cosmos/dss/RE/PLMXRS_RE/REDTC>,
        <https://w3id.org/cdisc/cosmos/dss/RE/PLMXRS_RE/REORRES>,
        <https://w3id.org/cdisc/cosmos/dss/RE/PLMXRS_RE/RESTRESC>,
        <https://w3id.org/cdisc/cosmos/dss/RE/PLMXRS_RE/RESTRESN>,
        <https://w3id.org/cdisc/cosmos/dss/RE/PLMXRS_RE/RETEST>,
        <https://w3id.org/cdisc/cosmos/dss/RE/PLMXRS_RE/RETESTCD> .

<https://w3id.org/cdisc/cosmos/dss/RE/PNEUMIND_RE> a cosmos_sdtm:SDTMGroup ;
    dcterms:identifier "PNEUMIND_RE" ;
    rdf:_1 <https://w3id.org/cdisc/cosmos/dss/RE/PNEUMIND_RE/RETESTCD> ;
    rdf:_2 <https://w3id.org/cdisc/cosmos/dss/RE/PNEUMIND_RE/RETEST> ;
    rdf:_3 <https://w3id.org/cdisc/cosmos/dss/RE/PNEUMIND_RE/REORRES> ;
    rdf:_4 <https://w3id.org/cdisc/cosmos/dss/RE/PNEUMIND_RE/RESTRESC> ;
    rdf:_5 <https://w3id.org/cdisc/cosmos/dss/RE/PNEUMIND_RE/REDTC> ;
    cosmos_sdtm:biomedicalConceptId NCIT:C171521 ;
    cosmos_sdtm:domain "RE" ;
    cosmos_sdtm:packageDate "2026-05-26"^^xsd:date ;
    cosmos_sdtm:packageType <https://www.cdisc.org/cosmos/sdtm_v1.0/PackageTypeEnum#sdtm> ;
    cosmos_sdtm:sdtmigStartVersion "3-4" ;
    cosmos_sdtm:shortName "Pneumonia Indicator (RE)" ;
    cosmos_sdtm:source "RE.RETESTCD" ;
    cosmos_sdtm:variables <https://w3id.org/cdisc/cosmos/dss/RE/PNEUMIND_RE/REDTC>,
        <https://w3id.org/cdisc/cosmos/dss/RE/PNEUMIND_RE/REORRES>,
        <https://w3id.org/cdisc/cosmos/dss/RE/PNEUMIND_RE/RESTRESC>,
        <https://w3id.org/cdisc/cosmos/dss/RE/PNEUMIND_RE/RETEST>,
        <https://w3id.org/cdisc/cosmos/dss/RE/PNEUMIND_RE/RETESTCD> .

<https://w3id.org/cdisc/cosmos/dss/RE/PNIF_RE> a cosmos_sdtm:SDTMGroup ;
    dcterms:identifier "PNIF_RE" ;
    rdf:_1 <https://w3id.org/cdisc/cosmos/dss/RE/PNIF_RE/RETESTCD> ;
    rdf:_2 <https://w3id.org/cdisc/cosmos/dss/RE/PNIF_RE/RETEST> ;
    rdf:_3 <https://w3id.org/cdisc/cosmos/dss/RE/PNIF_RE/REORRES> ;
    rdf:_4 <https://w3id.org/cdisc/cosmos/dss/RE/PNIF_RE/REORRESU> ;
    rdf:_5 <https://w3id.org/cdisc/cosmos/dss/RE/PNIF_RE/RESTRESC> ;
    rdf:_6 <https://w3id.org/cdisc/cosmos/dss/RE/PNIF_RE/RESTRESN> ;
    rdf:_7 <https://w3id.org/cdisc/cosmos/dss/RE/PNIF_RE/RESTRESU> ;
    rdf:_8 <https://w3id.org/cdisc/cosmos/dss/RE/PNIF_RE/REDTC> ;
    cosmos_sdtm:biomedicalConceptId NCIT:C119547 ;
    cosmos_sdtm:domain "RE" ;
    cosmos_sdtm:packageDate "2026-05-26"^^xsd:date ;
    cosmos_sdtm:packageType <https://www.cdisc.org/cosmos/sdtm_v1.0/PackageTypeEnum#sdtm> ;
    cosmos_sdtm:sdtmigStartVersion "3-4" ;
    cosmos_sdtm:shortName "Peak Nasal Inspiratory Flow (RE)" ;
    cosmos_sdtm:source "RE.RETESTCD" ;
    cosmos_sdtm:variables <https://w3id.org/cdisc/cosmos/dss/RE/PNIF_RE/REDTC>,
        <https://w3id.org/cdisc/cosmos/dss/RE/PNIF_RE/REORRES>,
        <https://w3id.org/cdisc/cosmos/dss/RE/PNIF_RE/REORRESU>,
        <https://w3id.org/cdisc/cosmos/dss/RE/PNIF_RE/RESTRESC>,
        <https://w3id.org/cdisc/cosmos/dss/RE/PNIF_RE/RESTRESN>,
        <https://w3id.org/cdisc/cosmos/dss/RE/PNIF_RE/RESTRESU>,
        <https://w3id.org/cdisc/cosmos/dss/RE/PNIF_RE/RETEST>,
        <https://w3id.org/cdisc/cosmos/dss/RE/PNIF_RE/RETESTCD> .

<https://w3id.org/cdisc/cosmos/dss/RE/PO2FIO2_RE> a cosmos_sdtm:SDTMGroup ;
    dcterms:identifier "PO2FIO2_RE" ;
    rdf:_1 <https://w3id.org/cdisc/cosmos/dss/RE/PO2FIO2_RE/RETESTCD> ;
    rdf:_2 <https://w3id.org/cdisc/cosmos/dss/RE/PO2FIO2_RE/RETEST> ;
    rdf:_3 <https://w3id.org/cdisc/cosmos/dss/RE/PO2FIO2_RE/REORRES> ;
    rdf:_4 <https://w3id.org/cdisc/cosmos/dss/RE/PO2FIO2_RE/REORRESU> ;
    rdf:_5 <https://w3id.org/cdisc/cosmos/dss/RE/PO2FIO2_RE/RESTRESC> ;
    rdf:_6 <https://w3id.org/cdisc/cosmos/dss/RE/PO2FIO2_RE/RESTRESN> ;
    rdf:_7 <https://w3id.org/cdisc/cosmos/dss/RE/PO2FIO2_RE/RESTRESU> ;
    rdf:_8 <https://w3id.org/cdisc/cosmos/dss/RE/PO2FIO2_RE/REDTC> ;
    cosmos_sdtm:biomedicalConceptId NCIT:C119293 ;
    cosmos_sdtm:domain "RE" ;
    cosmos_sdtm:packageDate "2026-05-26"^^xsd:date ;
    cosmos_sdtm:packageType <https://www.cdisc.org/cosmos/sdtm_v1.0/PackageTypeEnum#sdtm> ;
    cosmos_sdtm:sdtmigStartVersion "3-4" ;
    cosmos_sdtm:shortName "PP Arterial O2/Fraction Inspired O2 (RE)" ;
    cosmos_sdtm:source "RE.RETESTCD" ;
    cosmos_sdtm:variables <https://w3id.org/cdisc/cosmos/dss/RE/PO2FIO2_RE/REDTC>,
        <https://w3id.org/cdisc/cosmos/dss/RE/PO2FIO2_RE/REORRES>,
        <https://w3id.org/cdisc/cosmos/dss/RE/PO2FIO2_RE/REORRESU>,
        <https://w3id.org/cdisc/cosmos/dss/RE/PO2FIO2_RE/RESTRESC>,
        <https://w3id.org/cdisc/cosmos/dss/RE/PO2FIO2_RE/RESTRESN>,
        <https://w3id.org/cdisc/cosmos/dss/RE/PO2FIO2_RE/RESTRESU>,
        <https://w3id.org/cdisc/cosmos/dss/RE/PO2FIO2_RE/RETEST>,
        <https://w3id.org/cdisc/cosmos/dss/RE/PO2FIO2_RE/RETESTCD> .

<https://w3id.org/cdisc/cosmos/dss/RE/QUASCOMP_RE> a cosmos_sdtm:SDTMGroup ;
    dcterms:identifier "QUASCOMP_RE" ;
    rdf:_1 <https://w3id.org/cdisc/cosmos/dss/RE/QUASCOMP_RE/RETESTCD> ;
    rdf:_2 <https://w3id.org/cdisc/cosmos/dss/RE/QUASCOMP_RE/RETEST> ;
    rdf:_3 <https://w3id.org/cdisc/cosmos/dss/RE/QUASCOMP_RE/REORRES> ;
    rdf:_4 <https://w3id.org/cdisc/cosmos/dss/RE/QUASCOMP_RE/REORRESU> ;
    rdf:_5 <https://w3id.org/cdisc/cosmos/dss/RE/QUASCOMP_RE/RESTRESC> ;
    rdf:_6 <https://w3id.org/cdisc/cosmos/dss/RE/QUASCOMP_RE/RESTRESN> ;
    rdf:_7 <https://w3id.org/cdisc/cosmos/dss/RE/QUASCOMP_RE/RESTRESU> ;
    rdf:_8 <https://w3id.org/cdisc/cosmos/dss/RE/QUASCOMP_RE/REDTC> ;
    cosmos_sdtm:biomedicalConceptId NCIT:C139255 ;
    cosmos_sdtm:domain "RE" ;
    cosmos_sdtm:packageDate "2026-05-26"^^xsd:date ;
    cosmos_sdtm:packageType <https://www.cdisc.org/cosmos/sdtm_v1.0/PackageTypeEnum#sdtm> ;
    cosmos_sdtm:sdtmigStartVersion "3-4" ;
    cosmos_sdtm:shortName "Quasi-Static Compliance (RE)" ;
    cosmos_sdtm:source "RE.RETESTCD" ;
    cosmos_sdtm:variables <https://w3id.org/cdisc/cosmos/dss/RE/QUASCOMP_RE/REDTC>,
        <https://w3id.org/cdisc/cosmos/dss/RE/QUASCOMP_RE/REORRES>,
        <https://w3id.org/cdisc/cosmos/dss/RE/QUASCOMP_RE/REORRESU>,
        <https://w3id.org/cdisc/cosmos/dss/RE/QUASCOMP_RE/RESTRESC>,
        <https://w3id.org/cdisc/cosmos/dss/RE/QUASCOMP_RE/RESTRESN>,
        <https://w3id.org/cdisc/cosmos/dss/RE/QUASCOMP_RE/RESTRESU>,
        <https://w3id.org/cdisc/cosmos/dss/RE/QUASCOMP_RE/RETEST>,
        <https://w3id.org/cdisc/cosmos/dss/RE/QUASCOMP_RE/RETESTCD> .

<https://w3id.org/cdisc/cosmos/dss/RE/RAWPP_RE> a cosmos_sdtm:SDTMGroup ;
    dcterms:identifier "RAWPP_RE" ;
    rdf:_1 <https://w3id.org/cdisc/cosmos/dss/RE/RAWPP_RE/RETESTCD> ;
    rdf:_2 <https://w3id.org/cdisc/cosmos/dss/RE/RAWPP_RE/RETEST> ;
    rdf:_3 <https://w3id.org/cdisc/cosmos/dss/RE/RAWPP_RE/REORRES> ;
    rdf:_4 <https://w3id.org/cdisc/cosmos/dss/RE/RAWPP_RE/REORRESU> ;
    rdf:_5 <https://w3id.org/cdisc/cosmos/dss/RE/RAWPP_RE/RESTRESC> ;
    rdf:_6 <https://w3id.org/cdisc/cosmos/dss/RE/RAWPP_RE/RESTRESN> ;
    rdf:_7 <https://w3id.org/cdisc/cosmos/dss/RE/RAWPP_RE/RESTRESU> ;
    rdf:_8 <https://w3id.org/cdisc/cosmos/dss/RE/RAWPP_RE/REDTC> ;
    cosmos_sdtm:biomedicalConceptId NCIT:C170623 ;
    cosmos_sdtm:domain "RE" ;
    cosmos_sdtm:packageDate "2026-05-26"^^xsd:date ;
    cosmos_sdtm:packageType <https://www.cdisc.org/cosmos/sdtm_v1.0/PackageTypeEnum#sdtm> ;
    cosmos_sdtm:sdtmigStartVersion "3-4" ;
    cosmos_sdtm:shortName "Percent Predicted Airway Resistance (RE)" ;
    cosmos_sdtm:source "RE.RETESTCD" ;
    cosmos_sdtm:variables <https://w3id.org/cdisc/cosmos/dss/RE/RAWPP_RE/REDTC>,
        <https://w3id.org/cdisc/cosmos/dss/RE/RAWPP_RE/REORRES>,
        <https://w3id.org/cdisc/cosmos/dss/RE/RAWPP_RE/REORRESU>,
        <https://w3id.org/cdisc/cosmos/dss/RE/RAWPP_RE/RESTRESC>,
        <https://w3id.org/cdisc/cosmos/dss/RE/RAWPP_RE/RESTRESN>,
        <https://w3id.org/cdisc/cosmos/dss/RE/RAWPP_RE/RESTRESU>,
        <https://w3id.org/cdisc/cosmos/dss/RE/RAWPP_RE/RETEST>,
        <https://w3id.org/cdisc/cosmos/dss/RE/RAWPP_RE/RETESTCD> .

<https://w3id.org/cdisc/cosmos/dss/RE/RAW_RE> a cosmos_sdtm:SDTMGroup ;
    dcterms:identifier "RAW_RE" ;
    rdf:_1 <https://w3id.org/cdisc/cosmos/dss/RE/RAW_RE/RETESTCD> ;
    rdf:_2 <https://w3id.org/cdisc/cosmos/dss/RE/RAW_RE/RETEST> ;
    rdf:_3 <https://w3id.org/cdisc/cosmos/dss/RE/RAW_RE/REORRES> ;
    rdf:_4 <https://w3id.org/cdisc/cosmos/dss/RE/RAW_RE/REORRESU> ;
    rdf:_5 <https://w3id.org/cdisc/cosmos/dss/RE/RAW_RE/RESTRESC> ;
    rdf:_6 <https://w3id.org/cdisc/cosmos/dss/RE/RAW_RE/RESTRESN> ;
    rdf:_7 <https://w3id.org/cdisc/cosmos/dss/RE/RAW_RE/RESTRESU> ;
    rdf:_8 <https://w3id.org/cdisc/cosmos/dss/RE/RAW_RE/REDTC> ;
    cosmos_sdtm:biomedicalConceptId NCIT:C120927 ;
    cosmos_sdtm:domain "RE" ;
    cosmos_sdtm:packageDate "2026-05-26"^^xsd:date ;
    cosmos_sdtm:packageType <https://www.cdisc.org/cosmos/sdtm_v1.0/PackageTypeEnum#sdtm> ;
    cosmos_sdtm:sdtmigStartVersion "3-4" ;
    cosmos_sdtm:shortName "Airway Resistance (RE)" ;
    cosmos_sdtm:source "RE.RETESTCD" ;
    cosmos_sdtm:variables <https://w3id.org/cdisc/cosmos/dss/RE/RAW_RE/REDTC>,
        <https://w3id.org/cdisc/cosmos/dss/RE/RAW_RE/REORRES>,
        <https://w3id.org/cdisc/cosmos/dss/RE/RAW_RE/REORRESU>,
        <https://w3id.org/cdisc/cosmos/dss/RE/RAW_RE/RESTRESC>,
        <https://w3id.org/cdisc/cosmos/dss/RE/RAW_RE/RESTRESN>,
        <https://w3id.org/cdisc/cosmos/dss/RE/RAW_RE/RESTRESU>,
        <https://w3id.org/cdisc/cosmos/dss/RE/RAW_RE/RETEST>,
        <https://w3id.org/cdisc/cosmos/dss/RE/RAW_RE/RETESTCD> .

<https://w3id.org/cdisc/cosmos/dss/RE/REEXAM_RE> a cosmos_sdtm:SDTMGroup ;
    dcterms:identifier "REEXAM_RE" ;
    rdf:_1 <https://w3id.org/cdisc/cosmos/dss/RE/REEXAM_RE/RETESTCD> ;
    rdf:_2 <https://w3id.org/cdisc/cosmos/dss/RE/REEXAM_RE/RETEST> ;
    rdf:_3 <https://w3id.org/cdisc/cosmos/dss/RE/REEXAM_RE/REORRES> ;
    rdf:_4 <https://w3id.org/cdisc/cosmos/dss/RE/REEXAM_RE/RESTRESC> ;
    rdf:_5 <https://w3id.org/cdisc/cosmos/dss/RE/REEXAM_RE/REDTC> ;
    cosmos_sdtm:biomedicalConceptId NCIT:C198356 ;
    cosmos_sdtm:domain "RE" ;
    cosmos_sdtm:packageDate "2026-05-26"^^xsd:date ;
    cosmos_sdtm:packageType <https://www.cdisc.org/cosmos/sdtm_v1.0/PackageTypeEnum#sdtm> ;
    cosmos_sdtm:sdtmigStartVersion "3-4" ;
    cosmos_sdtm:shortName "Respiratory System Examination (RE)" ;
    cosmos_sdtm:source "RE.RETESTCD" ;
    cosmos_sdtm:variables <https://w3id.org/cdisc/cosmos/dss/RE/REEXAM_RE/REDTC>,
        <https://w3id.org/cdisc/cosmos/dss/RE/REEXAM_RE/REORRES>,
        <https://w3id.org/cdisc/cosmos/dss/RE/REEXAM_RE/RESTRESC>,
        <https://w3id.org/cdisc/cosmos/dss/RE/REEXAM_RE/RETEST>,
        <https://w3id.org/cdisc/cosmos/dss/RE/REEXAM_RE/RETESTCD> .

<https://w3id.org/cdisc/cosmos/dss/RE/RER_RE> a cosmos_sdtm:SDTMGroup ;
    dcterms:identifier "RER_RE" ;
    rdf:_1 <https://w3id.org/cdisc/cosmos/dss/RE/RER_RE/RETESTCD> ;
    rdf:_2 <https://w3id.org/cdisc/cosmos/dss/RE/RER_RE/RETEST> ;
    rdf:_3 <https://w3id.org/cdisc/cosmos/dss/RE/RER_RE/REORRES> ;
    rdf:_4 <https://w3id.org/cdisc/cosmos/dss/RE/RER_RE/REORRESU> ;
    rdf:_5 <https://w3id.org/cdisc/cosmos/dss/RE/RER_RE/RESTRESC> ;
    rdf:_6 <https://w3id.org/cdisc/cosmos/dss/RE/RER_RE/RESTRESN> ;
    rdf:_7 <https://w3id.org/cdisc/cosmos/dss/RE/RER_RE/RESTRESU> ;
    rdf:_8 <https://w3id.org/cdisc/cosmos/dss/RE/RER_RE/REDTC> ;
    cosmos_sdtm:biomedicalConceptId NCIT:C123568 ;
    cosmos_sdtm:domain "RE" ;
    cosmos_sdtm:packageDate "2026-05-26"^^xsd:date ;
    cosmos_sdtm:packageType <https://www.cdisc.org/cosmos/sdtm_v1.0/PackageTypeEnum#sdtm> ;
    cosmos_sdtm:sdtmigStartVersion "3-4" ;
    cosmos_sdtm:shortName "Respiratory Exchange Ratio (RE)" ;
    cosmos_sdtm:source "RE.RETESTCD" ;
    cosmos_sdtm:variables <https://w3id.org/cdisc/cosmos/dss/RE/RER_RE/REDTC>,
        <https://w3id.org/cdisc/cosmos/dss/RE/RER_RE/REORRES>,
        <https://w3id.org/cdisc/cosmos/dss/RE/RER_RE/REORRESU>,
        <https://w3id.org/cdisc/cosmos/dss/RE/RER_RE/RESTRESC>,
        <https://w3id.org/cdisc/cosmos/dss/RE/RER_RE/RESTRESN>,
        <https://w3id.org/cdisc/cosmos/dss/RE/RER_RE/RESTRESU>,
        <https://w3id.org/cdisc/cosmos/dss/RE/RER_RE/RETEST>,
        <https://w3id.org/cdisc/cosmos/dss/RE/RER_RE/RETESTCD> .

<https://w3id.org/cdisc/cosmos/dss/RE/RRS_RE> a cosmos_sdtm:SDTMGroup ;
    dcterms:identifier "RRS_RE" ;
    rdf:_1 <https://w3id.org/cdisc/cosmos/dss/RE/RRS_RE/RETESTCD> ;
    rdf:_2 <https://w3id.org/cdisc/cosmos/dss/RE/RRS_RE/RETEST> ;
    rdf:_3 <https://w3id.org/cdisc/cosmos/dss/RE/RRS_RE/REORRES> ;
    rdf:_4 <https://w3id.org/cdisc/cosmos/dss/RE/RRS_RE/REORRESU> ;
    rdf:_5 <https://w3id.org/cdisc/cosmos/dss/RE/RRS_RE/RESTRESC> ;
    rdf:_6 <https://w3id.org/cdisc/cosmos/dss/RE/RRS_RE/RESTRESN> ;
    rdf:_7 <https://w3id.org/cdisc/cosmos/dss/RE/RRS_RE/RESTRESU> ;
    rdf:_8 <https://w3id.org/cdisc/cosmos/dss/RE/RRS_RE/REDTC> ;
    cosmos_sdtm:biomedicalConceptId NCIT:C122185 ;
    cosmos_sdtm:domain "RE" ;
    cosmos_sdtm:packageDate "2026-05-26"^^xsd:date ;
    cosmos_sdtm:packageType <https://www.cdisc.org/cosmos/sdtm_v1.0/PackageTypeEnum#sdtm> ;
    cosmos_sdtm:sdtmigStartVersion "3-4" ;
    cosmos_sdtm:shortName "Total Respiratory System Resistance (RE)" ;
    cosmos_sdtm:source "RE.RETESTCD" ;
    cosmos_sdtm:variables <https://w3id.org/cdisc/cosmos/dss/RE/RRS_RE/REDTC>,
        <https://w3id.org/cdisc/cosmos/dss/RE/RRS_RE/REORRES>,
        <https://w3id.org/cdisc/cosmos/dss/RE/RRS_RE/REORRESU>,
        <https://w3id.org/cdisc/cosmos/dss/RE/RRS_RE/RESTRESC>,
        <https://w3id.org/cdisc/cosmos/dss/RE/RRS_RE/RESTRESN>,
        <https://w3id.org/cdisc/cosmos/dss/RE/RRS_RE/RESTRESU>,
        <https://w3id.org/cdisc/cosmos/dss/RE/RRS_RE/RETEST>,
        <https://w3id.org/cdisc/cosmos/dss/RE/RRS_RE/RETESTCD> .

<https://w3id.org/cdisc/cosmos/dss/RE/RVPP_RE> a cosmos_sdtm:SDTMGroup ;
    dcterms:identifier "RVPP_RE" ;
    rdf:_1 <https://w3id.org/cdisc/cosmos/dss/RE/RVPP_RE/RETESTCD> ;
    rdf:_2 <https://w3id.org/cdisc/cosmos/dss/RE/RVPP_RE/RETEST> ;
    rdf:_3 <https://w3id.org/cdisc/cosmos/dss/RE/RVPP_RE/REORRES> ;
    rdf:_4 <https://w3id.org/cdisc/cosmos/dss/RE/RVPP_RE/REORRESU> ;
    rdf:_5 <https://w3id.org/cdisc/cosmos/dss/RE/RVPP_RE/RESTRESC> ;
    rdf:_6 <https://w3id.org/cdisc/cosmos/dss/RE/RVPP_RE/RESTRESN> ;
    rdf:_7 <https://w3id.org/cdisc/cosmos/dss/RE/RVPP_RE/RESTRESU> ;
    rdf:_8 <https://w3id.org/cdisc/cosmos/dss/RE/RVPP_RE/REDTC> ;
    cosmos_sdtm:biomedicalConceptId NCIT:C112385 ;
    cosmos_sdtm:domain "RE" ;
    cosmos_sdtm:packageDate "2026-05-26"^^xsd:date ;
    cosmos_sdtm:packageType <https://www.cdisc.org/cosmos/sdtm_v1.0/PackageTypeEnum#sdtm> ;
    cosmos_sdtm:sdtmigStartVersion "3-4" ;
    cosmos_sdtm:shortName "Percent Predicted Residual Volume (RE)" ;
    cosmos_sdtm:source "RE.RETESTCD" ;
    cosmos_sdtm:variables <https://w3id.org/cdisc/cosmos/dss/RE/RVPP_RE/REDTC>,
        <https://w3id.org/cdisc/cosmos/dss/RE/RVPP_RE/REORRES>,
        <https://w3id.org/cdisc/cosmos/dss/RE/RVPP_RE/REORRESU>,
        <https://w3id.org/cdisc/cosmos/dss/RE/RVPP_RE/RESTRESC>,
        <https://w3id.org/cdisc/cosmos/dss/RE/RVPP_RE/RESTRESN>,
        <https://w3id.org/cdisc/cosmos/dss/RE/RVPP_RE/RESTRESU>,
        <https://w3id.org/cdisc/cosmos/dss/RE/RVPP_RE/RETEST>,
        <https://w3id.org/cdisc/cosmos/dss/RE/RVPP_RE/RETESTCD> .

<https://w3id.org/cdisc/cosmos/dss/RE/RV_RE> a cosmos_sdtm:SDTMGroup ;
    dcterms:identifier "RV_RE" ;
    rdf:_1 <https://w3id.org/cdisc/cosmos/dss/RE/RV_RE/RETESTCD> ;
    rdf:_2 <https://w3id.org/cdisc/cosmos/dss/RE/RV_RE/RETEST> ;
    rdf:_3 <https://w3id.org/cdisc/cosmos/dss/RE/RV_RE/REORRES> ;
    rdf:_4 <https://w3id.org/cdisc/cosmos/dss/RE/RV_RE/REORRESU> ;
    rdf:_5 <https://w3id.org/cdisc/cosmos/dss/RE/RV_RE/RESTRESC> ;
    rdf:_6 <https://w3id.org/cdisc/cosmos/dss/RE/RV_RE/RESTRESN> ;
    rdf:_7 <https://w3id.org/cdisc/cosmos/dss/RE/RV_RE/RESTRESU> ;
    rdf:_8 <https://w3id.org/cdisc/cosmos/dss/RE/RV_RE/REDTC> ;
    cosmos_sdtm:biomedicalConceptId NCIT:C89836 ;
    cosmos_sdtm:domain "RE" ;
    cosmos_sdtm:packageDate "2026-05-26"^^xsd:date ;
    cosmos_sdtm:packageType <https://www.cdisc.org/cosmos/sdtm_v1.0/PackageTypeEnum#sdtm> ;
    cosmos_sdtm:sdtmigStartVersion "3-4" ;
    cosmos_sdtm:shortName "Residual Volume (RE)" ;
    cosmos_sdtm:source "RE.RETESTCD" ;
    cosmos_sdtm:variables <https://w3id.org/cdisc/cosmos/dss/RE/RV_RE/REDTC>,
        <https://w3id.org/cdisc/cosmos/dss/RE/RV_RE/REORRES>,
        <https://w3id.org/cdisc/cosmos/dss/RE/RV_RE/REORRESU>,
        <https://w3id.org/cdisc/cosmos/dss/RE/RV_RE/RESTRESC>,
        <https://w3id.org/cdisc/cosmos/dss/RE/RV_RE/RESTRESN>,
        <https://w3id.org/cdisc/cosmos/dss/RE/RV_RE/RESTRESU>,
        <https://w3id.org/cdisc/cosmos/dss/RE/RV_RE/RETEST>,
        <https://w3id.org/cdisc/cosmos/dss/RE/RV_RE/RETESTCD> .

<https://w3id.org/cdisc/cosmos/dss/RE/SALKA_RE> a cosmos_sdtm:SDTMGroup ;
    dcterms:identifier "SALKA_RE" ;
    rdf:_1 <https://w3id.org/cdisc/cosmos/dss/RE/SALKA_RE/RETESTCD> ;
    rdf:_2 <https://w3id.org/cdisc/cosmos/dss/RE/SALKA_RE/RETEST> ;
    rdf:_3 <https://w3id.org/cdisc/cosmos/dss/RE/SALKA_RE/REORRES> ;
    rdf:_4 <https://w3id.org/cdisc/cosmos/dss/RE/SALKA_RE/RESTRESC> ;
    rdf:_5 <https://w3id.org/cdisc/cosmos/dss/RE/SALKA_RE/RESTRESN> ;
    rdf:_6 <https://w3id.org/cdisc/cosmos/dss/RE/SALKA_RE/REDTC> ;
    cosmos_sdtm:biomedicalConceptId NCIT:C139256 ;
    cosmos_sdtm:domain "RE" ;
    cosmos_sdtm:packageDate "2026-05-26"^^xsd:date ;
    cosmos_sdtm:packageType <https://www.cdisc.org/cosmos/sdtm_v1.0/PackageTypeEnum#sdtm> ;
    cosmos_sdtm:sdtmigStartVersion "3-4" ;
    cosmos_sdtm:shortName "Salazar-Knowles Equation Parameter A (RE)" ;
    cosmos_sdtm:source "RE.RETESTCD" ;
    cosmos_sdtm:variables <https://w3id.org/cdisc/cosmos/dss/RE/SALKA_RE/REDTC>,
        <https://w3id.org/cdisc/cosmos/dss/RE/SALKA_RE/REORRES>,
        <https://w3id.org/cdisc/cosmos/dss/RE/SALKA_RE/RESTRESC>,
        <https://w3id.org/cdisc/cosmos/dss/RE/SALKA_RE/RESTRESN>,
        <https://w3id.org/cdisc/cosmos/dss/RE/SALKA_RE/RETEST>,
        <https://w3id.org/cdisc/cosmos/dss/RE/SALKA_RE/RETESTCD> .

<https://w3id.org/cdisc/cosmos/dss/RE/SALKB_RE> a cosmos_sdtm:SDTMGroup ;
    dcterms:identifier "SALKB_RE" ;
    rdf:_1 <https://w3id.org/cdisc/cosmos/dss/RE/SALKB_RE/RETESTCD> ;
    rdf:_2 <https://w3id.org/cdisc/cosmos/dss/RE/SALKB_RE/RETEST> ;
    rdf:_3 <https://w3id.org/cdisc/cosmos/dss/RE/SALKB_RE/REORRES> ;
    rdf:_4 <https://w3id.org/cdisc/cosmos/dss/RE/SALKB_RE/RESTRESC> ;
    rdf:_5 <https://w3id.org/cdisc/cosmos/dss/RE/SALKB_RE/RESTRESN> ;
    rdf:_6 <https://w3id.org/cdisc/cosmos/dss/RE/SALKB_RE/REDTC> ;
    cosmos_sdtm:biomedicalConceptId NCIT:C139257 ;
    cosmos_sdtm:domain "RE" ;
    cosmos_sdtm:packageDate "2026-05-26"^^xsd:date ;
    cosmos_sdtm:packageType <https://www.cdisc.org/cosmos/sdtm_v1.0/PackageTypeEnum#sdtm> ;
    cosmos_sdtm:sdtmigStartVersion "3-4" ;
    cosmos_sdtm:shortName "Salazar-Knowles Equation Parameter B (RE)" ;
    cosmos_sdtm:source "RE.RETESTCD" ;
    cosmos_sdtm:variables <https://w3id.org/cdisc/cosmos/dss/RE/SALKB_RE/REDTC>,
        <https://w3id.org/cdisc/cosmos/dss/RE/SALKB_RE/REORRES>,
        <https://w3id.org/cdisc/cosmos/dss/RE/SALKB_RE/RESTRESC>,
        <https://w3id.org/cdisc/cosmos/dss/RE/SALKB_RE/RESTRESN>,
        <https://w3id.org/cdisc/cosmos/dss/RE/SALKB_RE/RETEST>,
        <https://w3id.org/cdisc/cosmos/dss/RE/SALKB_RE/RETESTCD> .

<https://w3id.org/cdisc/cosmos/dss/RE/SALKK_RE> a cosmos_sdtm:SDTMGroup ;
    dcterms:identifier "SALKK_RE" ;
    rdf:_1 <https://w3id.org/cdisc/cosmos/dss/RE/SALKK_RE/RETESTCD> ;
    rdf:_2 <https://w3id.org/cdisc/cosmos/dss/RE/SALKK_RE/RETEST> ;
    rdf:_3 <https://w3id.org/cdisc/cosmos/dss/RE/SALKK_RE/REORRES> ;
    rdf:_4 <https://w3id.org/cdisc/cosmos/dss/RE/SALKK_RE/RESTRESC> ;
    rdf:_5 <https://w3id.org/cdisc/cosmos/dss/RE/SALKK_RE/RESTRESN> ;
    rdf:_6 <https://w3id.org/cdisc/cosmos/dss/RE/SALKK_RE/REDTC> ;
    cosmos_sdtm:biomedicalConceptId NCIT:C139258 ;
    cosmos_sdtm:domain "RE" ;
    cosmos_sdtm:packageDate "2026-05-26"^^xsd:date ;
    cosmos_sdtm:packageType <https://www.cdisc.org/cosmos/sdtm_v1.0/PackageTypeEnum#sdtm> ;
    cosmos_sdtm:sdtmigStartVersion "3-4" ;
    cosmos_sdtm:shortName "Salazar-Knowles Equation, K (RE)" ;
    cosmos_sdtm:source "RE.RETESTCD" ;
    cosmos_sdtm:variables <https://w3id.org/cdisc/cosmos/dss/RE/SALKK_RE/REDTC>,
        <https://w3id.org/cdisc/cosmos/dss/RE/SALKK_RE/REORRES>,
        <https://w3id.org/cdisc/cosmos/dss/RE/SALKK_RE/RESTRESC>,
        <https://w3id.org/cdisc/cosmos/dss/RE/SALKK_RE/RESTRESN>,
        <https://w3id.org/cdisc/cosmos/dss/RE/SALKK_RE/RETEST>,
        <https://w3id.org/cdisc/cosmos/dss/RE/SALKK_RE/RETESTCD> .

<https://w3id.org/cdisc/cosmos/dss/RE/SAO2FIO2_RE> a cosmos_sdtm:SDTMGroup ;
    dcterms:identifier "SAO2FIO2_RE" ;
    rdf:_1 <https://w3id.org/cdisc/cosmos/dss/RE/SAO2FIO2_RE/RETESTCD> ;
    rdf:_2 <https://w3id.org/cdisc/cosmos/dss/RE/SAO2FIO2_RE/RETEST> ;
    rdf:_3 <https://w3id.org/cdisc/cosmos/dss/RE/SAO2FIO2_RE/REORRES> ;
    rdf:_4 <https://w3id.org/cdisc/cosmos/dss/RE/SAO2FIO2_RE/REORRESU> ;
    rdf:_5 <https://w3id.org/cdisc/cosmos/dss/RE/SAO2FIO2_RE/RESTRESC> ;
    rdf:_6 <https://w3id.org/cdisc/cosmos/dss/RE/SAO2FIO2_RE/RESTRESN> ;
    rdf:_7 <https://w3id.org/cdisc/cosmos/dss/RE/SAO2FIO2_RE/RESTRESU> ;
    rdf:_8 <https://w3id.org/cdisc/cosmos/dss/RE/SAO2FIO2_RE/REDTC> ;
    cosmos_sdtm:biomedicalConceptId NCIT:C174311 ;
    cosmos_sdtm:domain "RE" ;
    cosmos_sdtm:packageDate "2026-05-26"^^xsd:date ;
    cosmos_sdtm:packageType <https://www.cdisc.org/cosmos/sdtm_v1.0/PackageTypeEnum#sdtm> ;
    cosmos_sdtm:sdtmigStartVersion "3-4" ;
    cosmos_sdtm:shortName "Oxygen Saturation/Fraction Inspired O2 (RE)" ;
    cosmos_sdtm:source "RE.RETESTCD" ;
    cosmos_sdtm:variables <https://w3id.org/cdisc/cosmos/dss/RE/SAO2FIO2_RE/REDTC>,
        <https://w3id.org/cdisc/cosmos/dss/RE/SAO2FIO2_RE/REORRES>,
        <https://w3id.org/cdisc/cosmos/dss/RE/SAO2FIO2_RE/REORRESU>,
        <https://w3id.org/cdisc/cosmos/dss/RE/SAO2FIO2_RE/RESTRESC>,
        <https://w3id.org/cdisc/cosmos/dss/RE/SAO2FIO2_RE/RESTRESN>,
        <https://w3id.org/cdisc/cosmos/dss/RE/SAO2FIO2_RE/RESTRESU>,
        <https://w3id.org/cdisc/cosmos/dss/RE/SAO2FIO2_RE/RETEST>,
        <https://w3id.org/cdisc/cosmos/dss/RE/SAO2FIO2_RE/RETESTCD> .

<https://w3id.org/cdisc/cosmos/dss/RE/SAWVOLPP_RE> a cosmos_sdtm:SDTMGroup ;
    dcterms:identifier "SAWVOLPP_RE" ;
    rdf:_1 <https://w3id.org/cdisc/cosmos/dss/RE/SAWVOLPP_RE/RETESTCD> ;
    rdf:_2 <https://w3id.org/cdisc/cosmos/dss/RE/SAWVOLPP_RE/RETEST> ;
    rdf:_3 <https://w3id.org/cdisc/cosmos/dss/RE/SAWVOLPP_RE/REORRES> ;
    rdf:_4 <https://w3id.org/cdisc/cosmos/dss/RE/SAWVOLPP_RE/REORRESU> ;
    rdf:_5 <https://w3id.org/cdisc/cosmos/dss/RE/SAWVOLPP_RE/RESTRESC> ;
    rdf:_6 <https://w3id.org/cdisc/cosmos/dss/RE/SAWVOLPP_RE/RESTRESN> ;
    rdf:_7 <https://w3id.org/cdisc/cosmos/dss/RE/SAWVOLPP_RE/RESTRESU> ;
    rdf:_8 <https://w3id.org/cdisc/cosmos/dss/RE/SAWVOLPP_RE/REDTC> ;
    cosmos_sdtm:biomedicalConceptId NCIT:C170622 ;
    cosmos_sdtm:domain "RE" ;
    cosmos_sdtm:packageDate "2026-05-26"^^xsd:date ;
    cosmos_sdtm:packageType <https://www.cdisc.org/cosmos/sdtm_v1.0/PackageTypeEnum#sdtm> ;
    cosmos_sdtm:sdtmigStartVersion "3-4" ;
    cosmos_sdtm:shortName "Percent Predicted Specific Airway Volume (RE)" ;
    cosmos_sdtm:source "RE.RETESTCD" ;
    cosmos_sdtm:variables <https://w3id.org/cdisc/cosmos/dss/RE/SAWVOLPP_RE/REDTC>,
        <https://w3id.org/cdisc/cosmos/dss/RE/SAWVOLPP_RE/REORRES>,
        <https://w3id.org/cdisc/cosmos/dss/RE/SAWVOLPP_RE/REORRESU>,
        <https://w3id.org/cdisc/cosmos/dss/RE/SAWVOLPP_RE/RESTRESC>,
        <https://w3id.org/cdisc/cosmos/dss/RE/SAWVOLPP_RE/RESTRESN>,
        <https://w3id.org/cdisc/cosmos/dss/RE/SAWVOLPP_RE/RESTRESU>,
        <https://w3id.org/cdisc/cosmos/dss/RE/SAWVOLPP_RE/RETEST>,
        <https://w3id.org/cdisc/cosmos/dss/RE/SAWVOLPP_RE/RETESTCD> .

<https://w3id.org/cdisc/cosmos/dss/RE/SAWVOL_RE> a cosmos_sdtm:SDTMGroup ;
    dcterms:identifier "SAWVOL_RE" ;
    rdf:_1 <https://w3id.org/cdisc/cosmos/dss/RE/SAWVOL_RE/RETESTCD> ;
    rdf:_2 <https://w3id.org/cdisc/cosmos/dss/RE/SAWVOL_RE/RETEST> ;
    rdf:_3 <https://w3id.org/cdisc/cosmos/dss/RE/SAWVOL_RE/REORRES> ;
    rdf:_4 <https://w3id.org/cdisc/cosmos/dss/RE/SAWVOL_RE/REORRESU> ;
    rdf:_5 <https://w3id.org/cdisc/cosmos/dss/RE/SAWVOL_RE/RESTRESC> ;
    rdf:_6 <https://w3id.org/cdisc/cosmos/dss/RE/SAWVOL_RE/RESTRESN> ;
    rdf:_7 <https://w3id.org/cdisc/cosmos/dss/RE/SAWVOL_RE/RESTRESU> ;
    rdf:_8 <https://w3id.org/cdisc/cosmos/dss/RE/SAWVOL_RE/REDTC> ;
    cosmos_sdtm:biomedicalConceptId NCIT:C170618 ;
    cosmos_sdtm:domain "RE" ;
    cosmos_sdtm:packageDate "2026-05-26"^^xsd:date ;
    cosmos_sdtm:packageType <https://www.cdisc.org/cosmos/sdtm_v1.0/PackageTypeEnum#sdtm> ;
    cosmos_sdtm:sdtmigStartVersion "3-4" ;
    cosmos_sdtm:shortName "Specific Airway Volume (RE)" ;
    cosmos_sdtm:source "RE.RETESTCD" ;
    cosmos_sdtm:variables <https://w3id.org/cdisc/cosmos/dss/RE/SAWVOL_RE/REDTC>,
        <https://w3id.org/cdisc/cosmos/dss/RE/SAWVOL_RE/REORRES>,
        <https://w3id.org/cdisc/cosmos/dss/RE/SAWVOL_RE/REORRESU>,
        <https://w3id.org/cdisc/cosmos/dss/RE/SAWVOL_RE/RESTRESC>,
        <https://w3id.org/cdisc/cosmos/dss/RE/SAWVOL_RE/RESTRESN>,
        <https://w3id.org/cdisc/cosmos/dss/RE/SAWVOL_RE/RESTRESU>,
        <https://w3id.org/cdisc/cosmos/dss/RE/SAWVOL_RE/RETEST>,
        <https://w3id.org/cdisc/cosmos/dss/RE/SAWVOL_RE/RETESTCD> .

<https://w3id.org/cdisc/cosmos/dss/RE/SGAW_RE> a cosmos_sdtm:SDTMGroup ;
    dcterms:identifier "SGAW_RE" ;
    rdf:_1 <https://w3id.org/cdisc/cosmos/dss/RE/SGAW_RE/RETESTCD> ;
    rdf:_2 <https://w3id.org/cdisc/cosmos/dss/RE/SGAW_RE/RETEST> ;
    rdf:_3 <https://w3id.org/cdisc/cosmos/dss/RE/SGAW_RE/REORRES> ;
    rdf:_4 <https://w3id.org/cdisc/cosmos/dss/RE/SGAW_RE/RESTRESC> ;
    rdf:_5 <https://w3id.org/cdisc/cosmos/dss/RE/SGAW_RE/RESTRESN> ;
    rdf:_6 <https://w3id.org/cdisc/cosmos/dss/RE/SGAW_RE/REDTC> ;
    cosmos_sdtm:biomedicalConceptId NCIT:C122186 ;
    cosmos_sdtm:domain "RE" ;
    cosmos_sdtm:packageDate "2026-05-26"^^xsd:date ;
    cosmos_sdtm:packageType <https://www.cdisc.org/cosmos/sdtm_v1.0/PackageTypeEnum#sdtm> ;
    cosmos_sdtm:sdtmigStartVersion "3-4" ;
    cosmos_sdtm:shortName "Specific Airway Conductance (RE)" ;
    cosmos_sdtm:source "RE.RETESTCD" ;
    cosmos_sdtm:variables <https://w3id.org/cdisc/cosmos/dss/RE/SGAW_RE/REDTC>,
        <https://w3id.org/cdisc/cosmos/dss/RE/SGAW_RE/REORRES>,
        <https://w3id.org/cdisc/cosmos/dss/RE/SGAW_RE/RESTRESC>,
        <https://w3id.org/cdisc/cosmos/dss/RE/SGAW_RE/RESTRESN>,
        <https://w3id.org/cdisc/cosmos/dss/RE/SGAW_RE/RETEST>,
        <https://w3id.org/cdisc/cosmos/dss/RE/SGAW_RE/RETESTCD> .

<https://w3id.org/cdisc/cosmos/dss/RE/SRAWPP_RE> a cosmos_sdtm:SDTMGroup ;
    dcterms:identifier "SRAWPP_RE" ;
    rdf:_1 <https://w3id.org/cdisc/cosmos/dss/RE/SRAWPP_RE/RETESTCD> ;
    rdf:_2 <https://w3id.org/cdisc/cosmos/dss/RE/SRAWPP_RE/RETEST> ;
    rdf:_3 <https://w3id.org/cdisc/cosmos/dss/RE/SRAWPP_RE/REORRES> ;
    rdf:_4 <https://w3id.org/cdisc/cosmos/dss/RE/SRAWPP_RE/REORRESU> ;
    rdf:_5 <https://w3id.org/cdisc/cosmos/dss/RE/SRAWPP_RE/RESTRESC> ;
    rdf:_6 <https://w3id.org/cdisc/cosmos/dss/RE/SRAWPP_RE/RESTRESN> ;
    rdf:_7 <https://w3id.org/cdisc/cosmos/dss/RE/SRAWPP_RE/RESTRESU> ;
    rdf:_8 <https://w3id.org/cdisc/cosmos/dss/RE/SRAWPP_RE/REDTC> ;
    cosmos_sdtm:biomedicalConceptId NCIT:C170624 ;
    cosmos_sdtm:domain "RE" ;
    cosmos_sdtm:packageDate "2026-05-26"^^xsd:date ;
    cosmos_sdtm:packageType <https://www.cdisc.org/cosmos/sdtm_v1.0/PackageTypeEnum#sdtm> ;
    cosmos_sdtm:sdtmigStartVersion "3-4" ;
    cosmos_sdtm:shortName "Percent Predicted Sp Airway Resistance (RE)" ;
    cosmos_sdtm:source "RE.RETESTCD" ;
    cosmos_sdtm:variables <https://w3id.org/cdisc/cosmos/dss/RE/SRAWPP_RE/REDTC>,
        <https://w3id.org/cdisc/cosmos/dss/RE/SRAWPP_RE/REORRES>,
        <https://w3id.org/cdisc/cosmos/dss/RE/SRAWPP_RE/REORRESU>,
        <https://w3id.org/cdisc/cosmos/dss/RE/SRAWPP_RE/RESTRESC>,
        <https://w3id.org/cdisc/cosmos/dss/RE/SRAWPP_RE/RESTRESN>,
        <https://w3id.org/cdisc/cosmos/dss/RE/SRAWPP_RE/RESTRESU>,
        <https://w3id.org/cdisc/cosmos/dss/RE/SRAWPP_RE/RETEST>,
        <https://w3id.org/cdisc/cosmos/dss/RE/SRAWPP_RE/RETESTCD> .

<https://w3id.org/cdisc/cosmos/dss/RE/SRAW_RE> a cosmos_sdtm:SDTMGroup ;
    dcterms:identifier "SRAW_RE" ;
    rdf:_1 <https://w3id.org/cdisc/cosmos/dss/RE/SRAW_RE/RETESTCD> ;
    rdf:_2 <https://w3id.org/cdisc/cosmos/dss/RE/SRAW_RE/RETEST> ;
    rdf:_3 <https://w3id.org/cdisc/cosmos/dss/RE/SRAW_RE/REORRES> ;
    rdf:_4 <https://w3id.org/cdisc/cosmos/dss/RE/SRAW_RE/REORRESU> ;
    rdf:_5 <https://w3id.org/cdisc/cosmos/dss/RE/SRAW_RE/RESTRESC> ;
    rdf:_6 <https://w3id.org/cdisc/cosmos/dss/RE/SRAW_RE/RESTRESN> ;
    rdf:_7 <https://w3id.org/cdisc/cosmos/dss/RE/SRAW_RE/RESTRESU> ;
    rdf:_8 <https://w3id.org/cdisc/cosmos/dss/RE/SRAW_RE/REDTC> ;
    cosmos_sdtm:biomedicalConceptId NCIT:C123569 ;
    cosmos_sdtm:domain "RE" ;
    cosmos_sdtm:packageDate "2026-05-26"^^xsd:date ;
    cosmos_sdtm:packageType <https://www.cdisc.org/cosmos/sdtm_v1.0/PackageTypeEnum#sdtm> ;
    cosmos_sdtm:sdtmigStartVersion "3-4" ;
    cosmos_sdtm:shortName "Specific Airway Resistance (RE)" ;
    cosmos_sdtm:source "RE.RETESTCD" ;
    cosmos_sdtm:variables <https://w3id.org/cdisc/cosmos/dss/RE/SRAW_RE/REDTC>,
        <https://w3id.org/cdisc/cosmos/dss/RE/SRAW_RE/REORRES>,
        <https://w3id.org/cdisc/cosmos/dss/RE/SRAW_RE/REORRESU>,
        <https://w3id.org/cdisc/cosmos/dss/RE/SRAW_RE/RESTRESC>,
        <https://w3id.org/cdisc/cosmos/dss/RE/SRAW_RE/RESTRESN>,
        <https://w3id.org/cdisc/cosmos/dss/RE/SRAW_RE/RESTRESU>,
        <https://w3id.org/cdisc/cosmos/dss/RE/SRAW_RE/RETEST>,
        <https://w3id.org/cdisc/cosmos/dss/RE/SRAW_RE/RETESTCD> .

<https://w3id.org/cdisc/cosmos/dss/RE/SVCPP_RE> a cosmos_sdtm:SDTMGroup ;
    dcterms:identifier "SVCPP_RE" ;
    rdf:_1 <https://w3id.org/cdisc/cosmos/dss/RE/SVCPP_RE/RETESTCD> ;
    rdf:_2 <https://w3id.org/cdisc/cosmos/dss/RE/SVCPP_RE/RETEST> ;
    rdf:_3 <https://w3id.org/cdisc/cosmos/dss/RE/SVCPP_RE/REORRES> ;
    rdf:_4 <https://w3id.org/cdisc/cosmos/dss/RE/SVCPP_RE/REORRESU> ;
    rdf:_5 <https://w3id.org/cdisc/cosmos/dss/RE/SVCPP_RE/RESTRESC> ;
    rdf:_6 <https://w3id.org/cdisc/cosmos/dss/RE/SVCPP_RE/RESTRESN> ;
    rdf:_7 <https://w3id.org/cdisc/cosmos/dss/RE/SVCPP_RE/RESTRESU> ;
    rdf:_8 <https://w3id.org/cdisc/cosmos/dss/RE/SVCPP_RE/REDTC> ;
    cosmos_sdtm:biomedicalConceptId NCIT:C112386 ;
    cosmos_sdtm:domain "RE" ;
    cosmos_sdtm:packageDate "2026-05-26"^^xsd:date ;
    cosmos_sdtm:packageType <https://www.cdisc.org/cosmos/sdtm_v1.0/PackageTypeEnum#sdtm> ;
    cosmos_sdtm:sdtmigStartVersion "3-4" ;
    cosmos_sdtm:shortName "Percent Predicted Slow Vital Capacity (RE)" ;
    cosmos_sdtm:source "RE.RETESTCD" ;
    cosmos_sdtm:variables <https://w3id.org/cdisc/cosmos/dss/RE/SVCPP_RE/REDTC>,
        <https://w3id.org/cdisc/cosmos/dss/RE/SVCPP_RE/REORRES>,
        <https://w3id.org/cdisc/cosmos/dss/RE/SVCPP_RE/REORRESU>,
        <https://w3id.org/cdisc/cosmos/dss/RE/SVCPP_RE/RESTRESC>,
        <https://w3id.org/cdisc/cosmos/dss/RE/SVCPP_RE/RESTRESN>,
        <https://w3id.org/cdisc/cosmos/dss/RE/SVCPP_RE/RESTRESU>,
        <https://w3id.org/cdisc/cosmos/dss/RE/SVCPP_RE/RETEST>,
        <https://w3id.org/cdisc/cosmos/dss/RE/SVCPP_RE/RETESTCD> .

<https://w3id.org/cdisc/cosmos/dss/RE/SVC_RE> a cosmos_sdtm:SDTMGroup ;
    dcterms:identifier "SVC_RE" ;
    rdf:_1 <https://w3id.org/cdisc/cosmos/dss/RE/SVC_RE/RETESTCD> ;
    rdf:_2 <https://w3id.org/cdisc/cosmos/dss/RE/SVC_RE/RETEST> ;
    rdf:_3 <https://w3id.org/cdisc/cosmos/dss/RE/SVC_RE/REORRES> ;
    rdf:_4 <https://w3id.org/cdisc/cosmos/dss/RE/SVC_RE/REORRESU> ;
    rdf:_5 <https://w3id.org/cdisc/cosmos/dss/RE/SVC_RE/RESTRESC> ;
    rdf:_6 <https://w3id.org/cdisc/cosmos/dss/RE/SVC_RE/RESTRESN> ;
    rdf:_7 <https://w3id.org/cdisc/cosmos/dss/RE/SVC_RE/RESTRESU> ;
    rdf:_8 <https://w3id.org/cdisc/cosmos/dss/RE/SVC_RE/REDTC> ;
    cosmos_sdtm:biomedicalConceptId NCIT:C111315 ;
    cosmos_sdtm:domain "RE" ;
    cosmos_sdtm:packageDate "2026-05-26"^^xsd:date ;
    cosmos_sdtm:packageType <https://www.cdisc.org/cosmos/sdtm_v1.0/PackageTypeEnum#sdtm> ;
    cosmos_sdtm:sdtmigStartVersion "3-4" ;
    cosmos_sdtm:shortName "Slow Vital Capacity (RE)" ;
    cosmos_sdtm:source "RE.RETESTCD" ;
    cosmos_sdtm:variables <https://w3id.org/cdisc/cosmos/dss/RE/SVC_RE/REDTC>,
        <https://w3id.org/cdisc/cosmos/dss/RE/SVC_RE/REORRES>,
        <https://w3id.org/cdisc/cosmos/dss/RE/SVC_RE/REORRESU>,
        <https://w3id.org/cdisc/cosmos/dss/RE/SVC_RE/RESTRESC>,
        <https://w3id.org/cdisc/cosmos/dss/RE/SVC_RE/RESTRESN>,
        <https://w3id.org/cdisc/cosmos/dss/RE/SVC_RE/RESTRESU>,
        <https://w3id.org/cdisc/cosmos/dss/RE/SVC_RE/RETEST>,
        <https://w3id.org/cdisc/cosmos/dss/RE/SVC_RE/RETESTCD> .

<https://w3id.org/cdisc/cosmos/dss/RE/TGV_RE> a cosmos_sdtm:SDTMGroup ;
    dcterms:identifier "TGV_RE" ;
    rdf:_1 <https://w3id.org/cdisc/cosmos/dss/RE/TGV_RE/RETESTCD> ;
    rdf:_2 <https://w3id.org/cdisc/cosmos/dss/RE/TGV_RE/RETEST> ;
    rdf:_3 <https://w3id.org/cdisc/cosmos/dss/RE/TGV_RE/REORRES> ;
    rdf:_4 <https://w3id.org/cdisc/cosmos/dss/RE/TGV_RE/REORRESU> ;
    rdf:_5 <https://w3id.org/cdisc/cosmos/dss/RE/TGV_RE/RESTRESC> ;
    rdf:_6 <https://w3id.org/cdisc/cosmos/dss/RE/TGV_RE/RESTRESN> ;
    rdf:_7 <https://w3id.org/cdisc/cosmos/dss/RE/TGV_RE/RESTRESU> ;
    rdf:_8 <https://w3id.org/cdisc/cosmos/dss/RE/TGV_RE/REDTC> ;
    cosmos_sdtm:biomedicalConceptId NCIT:C124426 ;
    cosmos_sdtm:domain "RE" ;
    cosmos_sdtm:packageDate "2026-05-26"^^xsd:date ;
    cosmos_sdtm:packageType <https://www.cdisc.org/cosmos/sdtm_v1.0/PackageTypeEnum#sdtm> ;
    cosmos_sdtm:sdtmigStartVersion "3-4" ;
    cosmos_sdtm:shortName "Thoracic Gas Volume (RE)" ;
    cosmos_sdtm:source "RE.RETESTCD" ;
    cosmos_sdtm:variables <https://w3id.org/cdisc/cosmos/dss/RE/TGV_RE/REDTC>,
        <https://w3id.org/cdisc/cosmos/dss/RE/TGV_RE/REORRES>,
        <https://w3id.org/cdisc/cosmos/dss/RE/TGV_RE/REORRESU>,
        <https://w3id.org/cdisc/cosmos/dss/RE/TGV_RE/RESTRESC>,
        <https://w3id.org/cdisc/cosmos/dss/RE/TGV_RE/RESTRESN>,
        <https://w3id.org/cdisc/cosmos/dss/RE/TGV_RE/RESTRESU>,
        <https://w3id.org/cdisc/cosmos/dss/RE/TGV_RE/RETEST>,
        <https://w3id.org/cdisc/cosmos/dss/RE/TGV_RE/RETESTCD> .

<https://w3id.org/cdisc/cosmos/dss/RE/TLCPP_RE> a cosmos_sdtm:SDTMGroup ;
    dcterms:identifier "TLCPP_RE" ;
    rdf:_1 <https://w3id.org/cdisc/cosmos/dss/RE/TLCPP_RE/RETESTCD> ;
    rdf:_2 <https://w3id.org/cdisc/cosmos/dss/RE/TLCPP_RE/RETEST> ;
    rdf:_3 <https://w3id.org/cdisc/cosmos/dss/RE/TLCPP_RE/REORRES> ;
    rdf:_4 <https://w3id.org/cdisc/cosmos/dss/RE/TLCPP_RE/REORRESU> ;
    rdf:_5 <https://w3id.org/cdisc/cosmos/dss/RE/TLCPP_RE/RESTRESC> ;
    rdf:_6 <https://w3id.org/cdisc/cosmos/dss/RE/TLCPP_RE/RESTRESN> ;
    rdf:_7 <https://w3id.org/cdisc/cosmos/dss/RE/TLCPP_RE/RESTRESU> ;
    rdf:_8 <https://w3id.org/cdisc/cosmos/dss/RE/TLCPP_RE/REDTC> ;
    cosmos_sdtm:biomedicalConceptId NCIT:C112388 ;
    cosmos_sdtm:domain "RE" ;
    cosmos_sdtm:packageDate "2026-05-26"^^xsd:date ;
    cosmos_sdtm:packageType <https://www.cdisc.org/cosmos/sdtm_v1.0/PackageTypeEnum#sdtm> ;
    cosmos_sdtm:sdtmigStartVersion "3-4" ;
    cosmos_sdtm:shortName "Percent Predicted Total Lung Capacity (RE)" ;
    cosmos_sdtm:source "RE.RETESTCD" ;
    cosmos_sdtm:variables <https://w3id.org/cdisc/cosmos/dss/RE/TLCPP_RE/REDTC>,
        <https://w3id.org/cdisc/cosmos/dss/RE/TLCPP_RE/REORRES>,
        <https://w3id.org/cdisc/cosmos/dss/RE/TLCPP_RE/REORRESU>,
        <https://w3id.org/cdisc/cosmos/dss/RE/TLCPP_RE/RESTRESC>,
        <https://w3id.org/cdisc/cosmos/dss/RE/TLCPP_RE/RESTRESN>,
        <https://w3id.org/cdisc/cosmos/dss/RE/TLCPP_RE/RESTRESU>,
        <https://w3id.org/cdisc/cosmos/dss/RE/TLCPP_RE/RETEST>,
        <https://w3id.org/cdisc/cosmos/dss/RE/TLCPP_RE/RETESTCD> .

<https://w3id.org/cdisc/cosmos/dss/RE/TLC_RE> a cosmos_sdtm:SDTMGroup ;
    dcterms:identifier "TLC_RE" ;
    rdf:_1 <https://w3id.org/cdisc/cosmos/dss/RE/TLC_RE/RETESTCD> ;
    rdf:_2 <https://w3id.org/cdisc/cosmos/dss/RE/TLC_RE/RETEST> ;
    rdf:_3 <https://w3id.org/cdisc/cosmos/dss/RE/TLC_RE/REORRES> ;
    rdf:_4 <https://w3id.org/cdisc/cosmos/dss/RE/TLC_RE/REORRESU> ;
    rdf:_5 <https://w3id.org/cdisc/cosmos/dss/RE/TLC_RE/RESTRESC> ;
    rdf:_6 <https://w3id.org/cdisc/cosmos/dss/RE/TLC_RE/RESTRESN> ;
    rdf:_7 <https://w3id.org/cdisc/cosmos/dss/RE/TLC_RE/RESTRESU> ;
    rdf:_8 <https://w3id.org/cdisc/cosmos/dss/RE/TLC_RE/REDTC> ;
    cosmos_sdtm:biomedicalConceptId NCIT:C111325 ;
    cosmos_sdtm:domain "RE" ;
    cosmos_sdtm:packageDate "2026-05-26"^^xsd:date ;
    cosmos_sdtm:packageType <https://www.cdisc.org/cosmos/sdtm_v1.0/PackageTypeEnum#sdtm> ;
    cosmos_sdtm:sdtmigStartVersion "3-4" ;
    cosmos_sdtm:shortName "Total Lung Capacity (RE)" ;
    cosmos_sdtm:source "RE.RETESTCD" ;
    cosmos_sdtm:variables <https://w3id.org/cdisc/cosmos/dss/RE/TLC_RE/REDTC>,
        <https://w3id.org/cdisc/cosmos/dss/RE/TLC_RE/REORRES>,
        <https://w3id.org/cdisc/cosmos/dss/RE/TLC_RE/REORRESU>,
        <https://w3id.org/cdisc/cosmos/dss/RE/TLC_RE/RESTRESC>,
        <https://w3id.org/cdisc/cosmos/dss/RE/TLC_RE/RESTRESN>,
        <https://w3id.org/cdisc/cosmos/dss/RE/TLC_RE/RESTRESU>,
        <https://w3id.org/cdisc/cosmos/dss/RE/TLC_RE/RETEST>,
        <https://w3id.org/cdisc/cosmos/dss/RE/TLC_RE/RETESTCD> .

<https://w3id.org/cdisc/cosmos/dss/RE/TSUELAS_RE> a cosmos_sdtm:SDTMGroup ;
    dcterms:identifier "TSUELAS_RE" ;
    rdf:_1 <https://w3id.org/cdisc/cosmos/dss/RE/TSUELAS_RE/RETESTCD> ;
    rdf:_2 <https://w3id.org/cdisc/cosmos/dss/RE/TSUELAS_RE/RETEST> ;
    rdf:_3 <https://w3id.org/cdisc/cosmos/dss/RE/TSUELAS_RE/REORRES> ;
    rdf:_4 <https://w3id.org/cdisc/cosmos/dss/RE/TSUELAS_RE/REORRESU> ;
    rdf:_5 <https://w3id.org/cdisc/cosmos/dss/RE/TSUELAS_RE/RESTRESC> ;
    rdf:_6 <https://w3id.org/cdisc/cosmos/dss/RE/TSUELAS_RE/RESTRESN> ;
    rdf:_7 <https://w3id.org/cdisc/cosmos/dss/RE/TSUELAS_RE/RESTRESU> ;
    rdf:_8 <https://w3id.org/cdisc/cosmos/dss/RE/TSUELAS_RE/REDTC> ;
    cosmos_sdtm:biomedicalConceptId NCIT:C139260 ;
    cosmos_sdtm:domain "RE" ;
    cosmos_sdtm:packageDate "2026-05-26"^^xsd:date ;
    cosmos_sdtm:packageType <https://www.cdisc.org/cosmos/sdtm_v1.0/PackageTypeEnum#sdtm> ;
    cosmos_sdtm:sdtmigStartVersion "3-4" ;
    cosmos_sdtm:shortName "Tissue Elastance (RE)" ;
    cosmos_sdtm:source "RE.RETESTCD" ;
    cosmos_sdtm:variables <https://w3id.org/cdisc/cosmos/dss/RE/TSUELAS_RE/REDTC>,
        <https://w3id.org/cdisc/cosmos/dss/RE/TSUELAS_RE/REORRES>,
        <https://w3id.org/cdisc/cosmos/dss/RE/TSUELAS_RE/REORRESU>,
        <https://w3id.org/cdisc/cosmos/dss/RE/TSUELAS_RE/RESTRESC>,
        <https://w3id.org/cdisc/cosmos/dss/RE/TSUELAS_RE/RESTRESN>,
        <https://w3id.org/cdisc/cosmos/dss/RE/TSUELAS_RE/RESTRESU>,
        <https://w3id.org/cdisc/cosmos/dss/RE/TSUELAS_RE/RETEST>,
        <https://w3id.org/cdisc/cosmos/dss/RE/TSUELAS_RE/RETESTCD> .

<https://w3id.org/cdisc/cosmos/dss/RE/TSUHYS_RE> a cosmos_sdtm:SDTMGroup ;
    dcterms:identifier "TSUHYS_RE" ;
    rdf:_1 <https://w3id.org/cdisc/cosmos/dss/RE/TSUHYS_RE/RETESTCD> ;
    rdf:_2 <https://w3id.org/cdisc/cosmos/dss/RE/TSUHYS_RE/RETEST> ;
    rdf:_3 <https://w3id.org/cdisc/cosmos/dss/RE/TSUHYS_RE/REORRES> ;
    rdf:_4 <https://w3id.org/cdisc/cosmos/dss/RE/TSUHYS_RE/RESTRESC> ;
    rdf:_5 <https://w3id.org/cdisc/cosmos/dss/RE/TSUHYS_RE/RESTRESN> ;
    rdf:_6 <https://w3id.org/cdisc/cosmos/dss/RE/TSUHYS_RE/REDTC> ;
    cosmos_sdtm:biomedicalConceptId NCIT:C139261 ;
    cosmos_sdtm:domain "RE" ;
    cosmos_sdtm:packageDate "2026-05-26"^^xsd:date ;
    cosmos_sdtm:packageType <https://www.cdisc.org/cosmos/sdtm_v1.0/PackageTypeEnum#sdtm> ;
    cosmos_sdtm:sdtmigStartVersion "3-4" ;
    cosmos_sdtm:shortName "Tissue Hysteresivity (RE)" ;
    cosmos_sdtm:source "RE.RETESTCD" ;
    cosmos_sdtm:variables <https://w3id.org/cdisc/cosmos/dss/RE/TSUHYS_RE/REDTC>,
        <https://w3id.org/cdisc/cosmos/dss/RE/TSUHYS_RE/REORRES>,
        <https://w3id.org/cdisc/cosmos/dss/RE/TSUHYS_RE/RESTRESC>,
        <https://w3id.org/cdisc/cosmos/dss/RE/TSUHYS_RE/RESTRESN>,
        <https://w3id.org/cdisc/cosmos/dss/RE/TSUHYS_RE/RETEST>,
        <https://w3id.org/cdisc/cosmos/dss/RE/TSUHYS_RE/RETESTCD> .

<https://w3id.org/cdisc/cosmos/dss/RE/TVPP_RE> a cosmos_sdtm:SDTMGroup ;
    dcterms:identifier "TVPP_RE" ;
    rdf:_1 <https://w3id.org/cdisc/cosmos/dss/RE/TVPP_RE/RETESTCD> ;
    rdf:_2 <https://w3id.org/cdisc/cosmos/dss/RE/TVPP_RE/RETEST> ;
    rdf:_3 <https://w3id.org/cdisc/cosmos/dss/RE/TVPP_RE/REORRES> ;
    rdf:_4 <https://w3id.org/cdisc/cosmos/dss/RE/TVPP_RE/REORRESU> ;
    rdf:_5 <https://w3id.org/cdisc/cosmos/dss/RE/TVPP_RE/RESTRESC> ;
    rdf:_6 <https://w3id.org/cdisc/cosmos/dss/RE/TVPP_RE/RESTRESN> ;
    rdf:_7 <https://w3id.org/cdisc/cosmos/dss/RE/TVPP_RE/RESTRESU> ;
    rdf:_8 <https://w3id.org/cdisc/cosmos/dss/RE/TVPP_RE/REDTC> ;
    cosmos_sdtm:biomedicalConceptId NCIT:C112387 ;
    cosmos_sdtm:domain "RE" ;
    cosmos_sdtm:packageDate "2026-05-26"^^xsd:date ;
    cosmos_sdtm:packageType <https://www.cdisc.org/cosmos/sdtm_v1.0/PackageTypeEnum#sdtm> ;
    cosmos_sdtm:sdtmigStartVersion "3-4" ;
    cosmos_sdtm:shortName "Percent Predicted Tidal Volume (RE)" ;
    cosmos_sdtm:source "RE.RETESTCD" ;
    cosmos_sdtm:variables <https://w3id.org/cdisc/cosmos/dss/RE/TVPP_RE/REDTC>,
        <https://w3id.org/cdisc/cosmos/dss/RE/TVPP_RE/REORRES>,
        <https://w3id.org/cdisc/cosmos/dss/RE/TVPP_RE/REORRESU>,
        <https://w3id.org/cdisc/cosmos/dss/RE/TVPP_RE/RESTRESC>,
        <https://w3id.org/cdisc/cosmos/dss/RE/TVPP_RE/RESTRESN>,
        <https://w3id.org/cdisc/cosmos/dss/RE/TVPP_RE/RESTRESU>,
        <https://w3id.org/cdisc/cosmos/dss/RE/TVPP_RE/RETEST>,
        <https://w3id.org/cdisc/cosmos/dss/RE/TVPP_RE/RETESTCD> .

<https://w3id.org/cdisc/cosmos/dss/RE/TV_RE> a cosmos_sdtm:SDTMGroup ;
    dcterms:identifier "TV_RE" ;
    rdf:_1 <https://w3id.org/cdisc/cosmos/dss/RE/TV_RE/RETESTCD> ;
    rdf:_2 <https://w3id.org/cdisc/cosmos/dss/RE/TV_RE/RETEST> ;
    rdf:_3 <https://w3id.org/cdisc/cosmos/dss/RE/TV_RE/REORRES> ;
    rdf:_4 <https://w3id.org/cdisc/cosmos/dss/RE/TV_RE/REORRESU> ;
    rdf:_5 <https://w3id.org/cdisc/cosmos/dss/RE/TV_RE/RESTRESC> ;
    rdf:_6 <https://w3id.org/cdisc/cosmos/dss/RE/TV_RE/RESTRESN> ;
    rdf:_7 <https://w3id.org/cdisc/cosmos/dss/RE/TV_RE/RESTRESU> ;
    rdf:_8 <https://w3id.org/cdisc/cosmos/dss/RE/TV_RE/REDTC> ;
    cosmos_sdtm:biomedicalConceptId NCIT:C111324 ;
    cosmos_sdtm:domain "RE" ;
    cosmos_sdtm:packageDate "2026-05-26"^^xsd:date ;
    cosmos_sdtm:packageType <https://www.cdisc.org/cosmos/sdtm_v1.0/PackageTypeEnum#sdtm> ;
    cosmos_sdtm:sdtmigStartVersion "3-4" ;
    cosmos_sdtm:shortName "Tidal Volume (RE)" ;
    cosmos_sdtm:source "RE.RETESTCD" ;
    cosmos_sdtm:variables <https://w3id.org/cdisc/cosmos/dss/RE/TV_RE/REDTC>,
        <https://w3id.org/cdisc/cosmos/dss/RE/TV_RE/REORRES>,
        <https://w3id.org/cdisc/cosmos/dss/RE/TV_RE/REORRESU>,
        <https://w3id.org/cdisc/cosmos/dss/RE/TV_RE/RESTRESC>,
        <https://w3id.org/cdisc/cosmos/dss/RE/TV_RE/RESTRESN>,
        <https://w3id.org/cdisc/cosmos/dss/RE/TV_RE/RESTRESU>,
        <https://w3id.org/cdisc/cosmos/dss/RE/TV_RE/RETEST>,
        <https://w3id.org/cdisc/cosmos/dss/RE/TV_RE/RETESTCD> .

<https://w3id.org/cdisc/cosmos/dss/RE/VO2MAXE_RE> a cosmos_sdtm:SDTMGroup ;
    dcterms:identifier "VO2MAXE_RE" ;
    rdf:_1 <https://w3id.org/cdisc/cosmos/dss/RE/VO2MAXE_RE/RETESTCD> ;
    rdf:_2 <https://w3id.org/cdisc/cosmos/dss/RE/VO2MAXE_RE/RETEST> ;
    rdf:_3 <https://w3id.org/cdisc/cosmos/dss/RE/VO2MAXE_RE/REORRES> ;
    rdf:_4 <https://w3id.org/cdisc/cosmos/dss/RE/VO2MAXE_RE/REORRESU> ;
    rdf:_5 <https://w3id.org/cdisc/cosmos/dss/RE/VO2MAXE_RE/RESTRESC> ;
    rdf:_6 <https://w3id.org/cdisc/cosmos/dss/RE/VO2MAXE_RE/RESTRESN> ;
    rdf:_7 <https://w3id.org/cdisc/cosmos/dss/RE/VO2MAXE_RE/RESTRESU> ;
    rdf:_8 <https://w3id.org/cdisc/cosmos/dss/RE/VO2MAXE_RE/REDTC> ;
    cosmos_sdtm:biomedicalConceptId NCIT:C174363 ;
    cosmos_sdtm:domain "RE" ;
    cosmos_sdtm:packageDate "2026-05-26"^^xsd:date ;
    cosmos_sdtm:packageType <https://www.cdisc.org/cosmos/sdtm_v1.0/PackageTypeEnum#sdtm> ;
    cosmos_sdtm:sdtmigStartVersion "3-4" ;
    cosmos_sdtm:shortName "Maximal Oxygen Consumption, Estimated (RE)" ;
    cosmos_sdtm:source "RE.RETESTCD" ;
