@prefix NCIT: <http://purl.obolibrary.org/obo/NCIT_> .
@prefix cosmos_sdtm: <https://www.cdisc.org/cosmos/sdtm_v1.0/> .
@prefix dcterms: <http://purl.org/dc/terms/> .
@prefix owl: <http://www.w3.org/2002/07/owl#> .
@prefix rdf: <http://www.w3.org/1999/02/22-rdf-syntax-ns#> .
@prefix rdfs: <http://www.w3.org/2000/01/rdf-schema#> .
@prefix skos: <http://www.w3.org/2004/02/skos/core#> .
@prefix xsd: <http://www.w3.org/2001/XMLSchema#> .

<https://w3id.org/cdisc/cosmos/dss/SC> a owl:Ontology ;
    rdfs:label "CDISC COSMoS Dataset Specializations, SC (instances)" ;
    dcterms:identifier "2026-07-14" ;
    dcterms:source <https://raw.githubusercontent.com/cdisc-org/COSMoS/031429b1d14823721991cd23ee88a11616686ce3/export/cdisc_sdtm_dataset_specializations_latest.csv> ;
    rdfs:comment "Dataset Specialization instances for domain SC, rendered from the pinned COSMoS export. Variable order is the export's row order, carried as rdf:_n membership beside the variables edges. length and significantDigits are cast from the export's decimal form to integer; packageType is not in the export and is set to the enum's single value. A biomedicalConceptId or dataElementConceptId that resolves to no node is carried as the published string. The concept nodes those edges reach are declared in the Biomedical Concept instance graph, which is not imported. Draft - not a normative CDISC artifact." ;
    owl:imports <https://w3id.org/cdisc/cosmos/sdtm/> ;
    owl:versionIRI <https://w3id.org/cdisc/cosmos/dss/SC/0.4.0> ;
    owl:versionInfo "v0.4.0" .

<https://w3id.org/cdisc/cosmos/dss/SC/ADEVAIND> a cosmos_sdtm:SDTMGroup ;
    dcterms:identifier "ADEVAIND" ;
    rdf:_1 <https://w3id.org/cdisc/cosmos/dss/SC/ADEVAIND/SCTESTCD> ;
    rdf:_2 <https://w3id.org/cdisc/cosmos/dss/SC/ADEVAIND/SCTEST> ;
    rdf:_3 <https://w3id.org/cdisc/cosmos/dss/SC/ADEVAIND/SCCAT> ;
    rdf:_4 <https://w3id.org/cdisc/cosmos/dss/SC/ADEVAIND/SCORRES> ;
    rdf:_5 <https://w3id.org/cdisc/cosmos/dss/SC/ADEVAIND/SCDTC> ;
    rdf:_6 <https://w3id.org/cdisc/cosmos/dss/SC/ADEVAIND/SCSTRESC> ;
    cosmos_sdtm:biomedicalConceptId NCIT:C171499 ;
    cosmos_sdtm:domain "SC" ;
    cosmos_sdtm:packageDate "2026-07-14"^^xsd:date ;
    cosmos_sdtm:packageType <https://www.cdisc.org/cosmos/sdtm_v1.0/PackageTypeEnum#sdtm> ;
    cosmos_sdtm:sdtmigStartVersion "3-2" ;
    cosmos_sdtm:shortName "Appropriate Developmental Age Indicator" ;
    cosmos_sdtm:source "SC.SCTESTCD" ;
    cosmos_sdtm:variables <https://w3id.org/cdisc/cosmos/dss/SC/ADEVAIND/SCCAT>,
        <https://w3id.org/cdisc/cosmos/dss/SC/ADEVAIND/SCDTC>,
        <https://w3id.org/cdisc/cosmos/dss/SC/ADEVAIND/SCORRES>,
        <https://w3id.org/cdisc/cosmos/dss/SC/ADEVAIND/SCSTRESC>,
        <https://w3id.org/cdisc/cosmos/dss/SC/ADEVAIND/SCTEST>,
        <https://w3id.org/cdisc/cosmos/dss/SC/ADEVAIND/SCTESTCD> .

<https://w3id.org/cdisc/cosmos/dss/SC/BIO1DRN> a cosmos_sdtm:SDTMGroup ;
    dcterms:identifier "BIO1DRN" ;
    rdf:_1 <https://w3id.org/cdisc/cosmos/dss/SC/BIO1DRN/SCTESTCD> ;
    rdf:_2 <https://w3id.org/cdisc/cosmos/dss/SC/BIO1DRN/SCTEST> ;
    rdf:_3 <https://w3id.org/cdisc/cosmos/dss/SC/BIO1DRN/SCCAT> ;
    rdf:_4 <https://w3id.org/cdisc/cosmos/dss/SC/BIO1DRN/SCORRES> ;
    rdf:_5 <https://w3id.org/cdisc/cosmos/dss/SC/BIO1DRN/SCDTC> ;
    rdf:_6 <https://w3id.org/cdisc/cosmos/dss/SC/BIO1DRN/SCSTRESC> ;
    rdf:_7 <https://w3id.org/cdisc/cosmos/dss/SC/BIO1DRN/SCSTRESN> ;
    cosmos_sdtm:biomedicalConceptId NCIT:C198360 ;
    cosmos_sdtm:domain "SC" ;
    cosmos_sdtm:packageDate "2026-07-14"^^xsd:date ;
    cosmos_sdtm:packageType <https://www.cdisc.org/cosmos/sdtm_v1.0/PackageTypeEnum#sdtm> ;
    cosmos_sdtm:sdtmigStartVersion "3-2" ;
    cosmos_sdtm:shortName "Num 1st Degree Relatives, Biological" ;
    cosmos_sdtm:source "SC.SCTESTCD" ;
    cosmos_sdtm:variables <https://w3id.org/cdisc/cosmos/dss/SC/BIO1DRN/SCCAT>,
        <https://w3id.org/cdisc/cosmos/dss/SC/BIO1DRN/SCDTC>,
        <https://w3id.org/cdisc/cosmos/dss/SC/BIO1DRN/SCORRES>,
        <https://w3id.org/cdisc/cosmos/dss/SC/BIO1DRN/SCSTRESC>,
        <https://w3id.org/cdisc/cosmos/dss/SC/BIO1DRN/SCSTRESN>,
        <https://w3id.org/cdisc/cosmos/dss/SC/BIO1DRN/SCTEST>,
        <https://w3id.org/cdisc/cosmos/dss/SC/BIO1DRN/SCTESTCD> .

<https://w3id.org/cdisc/cosmos/dss/SC/BIOBRON> a cosmos_sdtm:SDTMGroup ;
    dcterms:identifier "BIOBRON" ;
    rdf:_1 <https://w3id.org/cdisc/cosmos/dss/SC/BIOBRON/SCTESTCD> ;
    rdf:_2 <https://w3id.org/cdisc/cosmos/dss/SC/BIOBRON/SCTEST> ;
    rdf:_3 <https://w3id.org/cdisc/cosmos/dss/SC/BIOBRON/SCCAT> ;
    rdf:_4 <https://w3id.org/cdisc/cosmos/dss/SC/BIOBRON/SCORRES> ;
    rdf:_5 <https://w3id.org/cdisc/cosmos/dss/SC/BIOBRON/SCDTC> ;
    rdf:_6 <https://w3id.org/cdisc/cosmos/dss/SC/BIOBRON/SCSTRESC> ;
    rdf:_7 <https://w3id.org/cdisc/cosmos/dss/SC/BIOBRON/SCSTRESN> ;
    cosmos_sdtm:biomedicalConceptId NCIT:C135500 ;
    cosmos_sdtm:domain "SC" ;
    cosmos_sdtm:packageDate "2026-07-14"^^xsd:date ;
    cosmos_sdtm:packageType <https://www.cdisc.org/cosmos/sdtm_v1.0/PackageTypeEnum#sdtm> ;
    cosmos_sdtm:sdtmigStartVersion "3-2" ;
    cosmos_sdtm:shortName "Number of Brothers, Biological" ;
    cosmos_sdtm:source "SC.SCTESTCD" ;
    cosmos_sdtm:variables <https://w3id.org/cdisc/cosmos/dss/SC/BIOBRON/SCCAT>,
        <https://w3id.org/cdisc/cosmos/dss/SC/BIOBRON/SCDTC>,
        <https://w3id.org/cdisc/cosmos/dss/SC/BIOBRON/SCORRES>,
        <https://w3id.org/cdisc/cosmos/dss/SC/BIOBRON/SCSTRESC>,
        <https://w3id.org/cdisc/cosmos/dss/SC/BIOBRON/SCSTRESN>,
        <https://w3id.org/cdisc/cosmos/dss/SC/BIOBRON/SCTEST>,
        <https://w3id.org/cdisc/cosmos/dss/SC/BIOBRON/SCTESTCD> .

<https://w3id.org/cdisc/cosmos/dss/SC/BIOSISN> a cosmos_sdtm:SDTMGroup ;
    dcterms:identifier "BIOSISN" ;
    rdf:_1 <https://w3id.org/cdisc/cosmos/dss/SC/BIOSISN/SCTESTCD> ;
    rdf:_2 <https://w3id.org/cdisc/cosmos/dss/SC/BIOSISN/SCTEST> ;
    rdf:_3 <https://w3id.org/cdisc/cosmos/dss/SC/BIOSISN/SCCAT> ;
    rdf:_4 <https://w3id.org/cdisc/cosmos/dss/SC/BIOSISN/SCORRES> ;
    rdf:_5 <https://w3id.org/cdisc/cosmos/dss/SC/BIOSISN/SCDTC> ;
    rdf:_6 <https://w3id.org/cdisc/cosmos/dss/SC/BIOSISN/SCSTRESC> ;
    rdf:_7 <https://w3id.org/cdisc/cosmos/dss/SC/BIOSISN/SCSTRESN> ;
    cosmos_sdtm:biomedicalConceptId NCIT:C135501 ;
    cosmos_sdtm:domain "SC" ;
    cosmos_sdtm:packageDate "2026-07-14"^^xsd:date ;
    cosmos_sdtm:packageType <https://www.cdisc.org/cosmos/sdtm_v1.0/PackageTypeEnum#sdtm> ;
    cosmos_sdtm:sdtmigStartVersion "3-2" ;
    cosmos_sdtm:shortName "Number of Sisters, Biological" ;
    cosmos_sdtm:source "SC.SCTESTCD" ;
    cosmos_sdtm:variables <https://w3id.org/cdisc/cosmos/dss/SC/BIOSISN/SCCAT>,
        <https://w3id.org/cdisc/cosmos/dss/SC/BIOSISN/SCDTC>,
        <https://w3id.org/cdisc/cosmos/dss/SC/BIOSISN/SCORRES>,
        <https://w3id.org/cdisc/cosmos/dss/SC/BIOSISN/SCSTRESC>,
        <https://w3id.org/cdisc/cosmos/dss/SC/BIOSISN/SCSTRESN>,
        <https://w3id.org/cdisc/cosmos/dss/SC/BIOSISN/SCTEST>,
        <https://w3id.org/cdisc/cosmos/dss/SC/BIOSISN/SCTESTCD> .

<https://w3id.org/cdisc/cosmos/dss/SC/BRCTRY> a cosmos_sdtm:SDTMGroup ;
    dcterms:identifier "BRCTRY" ;
    rdf:_1 <https://w3id.org/cdisc/cosmos/dss/SC/BRCTRY/SCTESTCD> ;
    rdf:_2 <https://w3id.org/cdisc/cosmos/dss/SC/BRCTRY/SCTEST> ;
    rdf:_3 <https://w3id.org/cdisc/cosmos/dss/SC/BRCTRY/SCCAT> ;
    rdf:_4 <https://w3id.org/cdisc/cosmos/dss/SC/BRCTRY/SCORRES> ;
    rdf:_5 <https://w3id.org/cdisc/cosmos/dss/SC/BRCTRY/SCDTC> ;
    rdf:_6 <https://w3id.org/cdisc/cosmos/dss/SC/BRCTRY/SCSTRESC> ;
    cosmos_sdtm:biomedicalConceptId NCIT:C200441 ;
    cosmos_sdtm:domain "SC" ;
    cosmos_sdtm:packageDate "2026-07-14"^^xsd:date ;
    cosmos_sdtm:packageType <https://www.cdisc.org/cosmos/sdtm_v1.0/PackageTypeEnum#sdtm> ;
    cosmos_sdtm:sdtmigStartVersion "3-2" ;
    cosmos_sdtm:shortName "Birth Country" ;
    cosmos_sdtm:source "SC.SCTESTCD" ;
    cosmos_sdtm:variables <https://w3id.org/cdisc/cosmos/dss/SC/BRCTRY/SCCAT>,
        <https://w3id.org/cdisc/cosmos/dss/SC/BRCTRY/SCDTC>,
        <https://w3id.org/cdisc/cosmos/dss/SC/BRCTRY/SCORRES>,
        <https://w3id.org/cdisc/cosmos/dss/SC/BRCTRY/SCSTRESC>,
        <https://w3id.org/cdisc/cosmos/dss/SC/BRCTRY/SCTEST>,
        <https://w3id.org/cdisc/cosmos/dss/SC/BRCTRY/SCTESTCD> .

<https://w3id.org/cdisc/cosmos/dss/SC/BRCTRYCD> a cosmos_sdtm:SDTMGroup ;
    dcterms:identifier "BRCTRYCD" ;
    rdf:_1 <https://w3id.org/cdisc/cosmos/dss/SC/BRCTRYCD/SCTESTCD> ;
    rdf:_2 <https://w3id.org/cdisc/cosmos/dss/SC/BRCTRYCD/SCTEST> ;
    rdf:_3 <https://w3id.org/cdisc/cosmos/dss/SC/BRCTRYCD/SCCAT> ;
    rdf:_4 <https://w3id.org/cdisc/cosmos/dss/SC/BRCTRYCD/SCORRES> ;
    rdf:_5 <https://w3id.org/cdisc/cosmos/dss/SC/BRCTRYCD/SCDTC> ;
    rdf:_6 <https://w3id.org/cdisc/cosmos/dss/SC/BRCTRYCD/SCSTRESC> ;
    cosmos_sdtm:biomedicalConceptId NCIT:C93516 ;
    cosmos_sdtm:domain "SC" ;
    cosmos_sdtm:packageDate "2026-07-14"^^xsd:date ;
    cosmos_sdtm:packageType <https://www.cdisc.org/cosmos/sdtm_v1.0/PackageTypeEnum#sdtm> ;
    cosmos_sdtm:sdtmigStartVersion "3-2" ;
    cosmos_sdtm:shortName "Birth Country Code" ;
    cosmos_sdtm:source "SC.SCTESTCD" ;
    cosmos_sdtm:variables <https://w3id.org/cdisc/cosmos/dss/SC/BRCTRYCD/SCCAT>,
        <https://w3id.org/cdisc/cosmos/dss/SC/BRCTRYCD/SCDTC>,
        <https://w3id.org/cdisc/cosmos/dss/SC/BRCTRYCD/SCORRES>,
        <https://w3id.org/cdisc/cosmos/dss/SC/BRCTRYCD/SCSTRESC>,
        <https://w3id.org/cdisc/cosmos/dss/SC/BRCTRYCD/SCTEST>,
        <https://w3id.org/cdisc/cosmos/dss/SC/BRCTRYCD/SCTESTCD> .

<https://w3id.org/cdisc/cosmos/dss/SC/BRFEDIND> a cosmos_sdtm:SDTMGroup ;
    dcterms:identifier "BRFEDIND" ;
    rdf:_1 <https://w3id.org/cdisc/cosmos/dss/SC/BRFEDIND/SCTESTCD> ;
    rdf:_2 <https://w3id.org/cdisc/cosmos/dss/SC/BRFEDIND/SCTEST> ;
    rdf:_3 <https://w3id.org/cdisc/cosmos/dss/SC/BRFEDIND/SCCAT> ;
    rdf:_4 <https://w3id.org/cdisc/cosmos/dss/SC/BRFEDIND/SCORRES> ;
    rdf:_5 <https://w3id.org/cdisc/cosmos/dss/SC/BRFEDIND/SCDTC> ;
    rdf:_6 <https://w3id.org/cdisc/cosmos/dss/SC/BRFEDIND/SCSTRESC> ;
    cosmos_sdtm:biomedicalConceptId NCIT:C112233 ;
    cosmos_sdtm:domain "SC" ;
    cosmos_sdtm:packageDate "2026-07-14"^^xsd:date ;
    cosmos_sdtm:packageType <https://www.cdisc.org/cosmos/sdtm_v1.0/PackageTypeEnum#sdtm> ;
    cosmos_sdtm:sdtmigStartVersion "3-2" ;
    cosmos_sdtm:shortName "Breast Fed Indicator" ;
    cosmos_sdtm:source "SC.SCTESTCD" ;
    cosmos_sdtm:variables <https://w3id.org/cdisc/cosmos/dss/SC/BRFEDIND/SCCAT>,
        <https://w3id.org/cdisc/cosmos/dss/SC/BRFEDIND/SCDTC>,
        <https://w3id.org/cdisc/cosmos/dss/SC/BRFEDIND/SCORRES>,
        <https://w3id.org/cdisc/cosmos/dss/SC/BRFEDIND/SCSTRESC>,
        <https://w3id.org/cdisc/cosmos/dss/SC/BRFEDIND/SCTEST>,
        <https://w3id.org/cdisc/cosmos/dss/SC/BRFEDIND/SCTESTCD> .

<https://w3id.org/cdisc/cosmos/dss/SC/BTHPLRTY> a cosmos_sdtm:SDTMGroup ;
    dcterms:identifier "BTHPLRTY" ;
    rdf:_1 <https://w3id.org/cdisc/cosmos/dss/SC/BTHPLRTY/SCTESTCD> ;
    rdf:_2 <https://w3id.org/cdisc/cosmos/dss/SC/BTHPLRTY/SCTEST> ;
    rdf:_3 <https://w3id.org/cdisc/cosmos/dss/SC/BTHPLRTY/SCCAT> ;
    rdf:_4 <https://w3id.org/cdisc/cosmos/dss/SC/BTHPLRTY/SCORRES> ;
    rdf:_5 <https://w3id.org/cdisc/cosmos/dss/SC/BTHPLRTY/SCDTC> ;
    rdf:_6 <https://w3id.org/cdisc/cosmos/dss/SC/BTHPLRTY/SCSTRESC> ;
    rdf:_7 <https://w3id.org/cdisc/cosmos/dss/SC/BTHPLRTY/SCSTRESN> ;
    cosmos_sdtm:biomedicalConceptId NCIT:C198361 ;
    cosmos_sdtm:domain "SC" ;
    cosmos_sdtm:packageDate "2026-07-14"^^xsd:date ;
    cosmos_sdtm:packageType <https://www.cdisc.org/cosmos/sdtm_v1.0/PackageTypeEnum#sdtm> ;
    cosmos_sdtm:sdtmigStartVersion "3-2" ;
    cosmos_sdtm:shortName "Birth Plurality" ;
    cosmos_sdtm:source "SC.SCTESTCD" ;
    cosmos_sdtm:variables <https://w3id.org/cdisc/cosmos/dss/SC/BTHPLRTY/SCCAT>,
        <https://w3id.org/cdisc/cosmos/dss/SC/BTHPLRTY/SCDTC>,
        <https://w3id.org/cdisc/cosmos/dss/SC/BTHPLRTY/SCORRES>,
        <https://w3id.org/cdisc/cosmos/dss/SC/BTHPLRTY/SCSTRESC>,
        <https://w3id.org/cdisc/cosmos/dss/SC/BTHPLRTY/SCSTRESN>,
        <https://w3id.org/cdisc/cosmos/dss/SC/BTHPLRTY/SCTEST>,
        <https://w3id.org/cdisc/cosmos/dss/SC/BTHPLRTY/SCTESTCD> .

<https://w3id.org/cdisc/cosmos/dss/SC/CHLDHSHN> a cosmos_sdtm:SDTMGroup ;
    dcterms:identifier "CHLDHSHN" ;
    rdf:_1 <https://w3id.org/cdisc/cosmos/dss/SC/CHLDHSHN/SCTESTCD> ;
    rdf:_2 <https://w3id.org/cdisc/cosmos/dss/SC/CHLDHSHN/SCTEST> ;
    rdf:_3 <https://w3id.org/cdisc/cosmos/dss/SC/CHLDHSHN/SCCAT> ;
    rdf:_4 <https://w3id.org/cdisc/cosmos/dss/SC/CHLDHSHN/SCORRES> ;
    rdf:_5 <https://w3id.org/cdisc/cosmos/dss/SC/CHLDHSHN/SCDTC> ;
    rdf:_6 <https://w3id.org/cdisc/cosmos/dss/SC/CHLDHSHN/SCSTRESC> ;
    rdf:_7 <https://w3id.org/cdisc/cosmos/dss/SC/CHLDHSHN/SCSTRESN> ;
    cosmos_sdtm:biomedicalConceptId NCIT:C19309 ;
    cosmos_sdtm:domain "SC" ;
    cosmos_sdtm:packageDate "2026-07-14"^^xsd:date ;
    cosmos_sdtm:packageType <https://www.cdisc.org/cosmos/sdtm_v1.0/PackageTypeEnum#sdtm> ;
    cosmos_sdtm:sdtmigStartVersion "3-2" ;
    cosmos_sdtm:shortName "Number of Children in Household" ;
    cosmos_sdtm:source "SC.SCTESTCD" ;
    cosmos_sdtm:variables <https://w3id.org/cdisc/cosmos/dss/SC/CHLDHSHN/SCCAT>,
        <https://w3id.org/cdisc/cosmos/dss/SC/CHLDHSHN/SCDTC>,
        <https://w3id.org/cdisc/cosmos/dss/SC/CHLDHSHN/SCORRES>,
        <https://w3id.org/cdisc/cosmos/dss/SC/CHLDHSHN/SCSTRESC>,
        <https://w3id.org/cdisc/cosmos/dss/SC/CHLDHSHN/SCSTRESN>,
        <https://w3id.org/cdisc/cosmos/dss/SC/CHLDHSHN/SCTEST>,
        <https://w3id.org/cdisc/cosmos/dss/SC/CHLDHSHN/SCTESTCD> .

<https://w3id.org/cdisc/cosmos/dss/SC/CINVIND> a cosmos_sdtm:SDTMGroup ;
    dcterms:identifier "CINVIND" ;
    rdf:_1 <https://w3id.org/cdisc/cosmos/dss/SC/CINVIND/SCTESTCD> ;
    rdf:_2 <https://w3id.org/cdisc/cosmos/dss/SC/CINVIND/SCTEST> ;
    rdf:_3 <https://w3id.org/cdisc/cosmos/dss/SC/CINVIND/SCCAT> ;
    rdf:_4 <https://w3id.org/cdisc/cosmos/dss/SC/CINVIND/SCORRES> ;
    rdf:_5 <https://w3id.org/cdisc/cosmos/dss/SC/CINVIND/SCDTC> ;
    rdf:_6 <https://w3id.org/cdisc/cosmos/dss/SC/CINVIND/SCSTRESC> ;
    cosmos_sdtm:biomedicalConceptId NCIT:C202576 ;
    cosmos_sdtm:domain "SC" ;
    cosmos_sdtm:packageDate "2026-07-14"^^xsd:date ;
    cosmos_sdtm:packageType <https://www.cdisc.org/cosmos/sdtm_v1.0/PackageTypeEnum#sdtm> ;
    cosmos_sdtm:sdtmigStartVersion "3-2" ;
    cosmos_sdtm:shortName "Contact Investigation Indicator" ;
    cosmos_sdtm:source "SC.SCTESTCD" ;
    cosmos_sdtm:variables <https://w3id.org/cdisc/cosmos/dss/SC/CINVIND/SCCAT>,
        <https://w3id.org/cdisc/cosmos/dss/SC/CINVIND/SCDTC>,
        <https://w3id.org/cdisc/cosmos/dss/SC/CINVIND/SCORRES>,
        <https://w3id.org/cdisc/cosmos/dss/SC/CINVIND/SCSTRESC>,
        <https://w3id.org/cdisc/cosmos/dss/SC/CINVIND/SCTEST>,
        <https://w3id.org/cdisc/cosmos/dss/SC/CINVIND/SCTESTCD> .

<https://w3id.org/cdisc/cosmos/dss/SC/CNTYPAD> a cosmos_sdtm:SDTMGroup ;
    dcterms:identifier "CNTYPAD" ;
    rdf:_1 <https://w3id.org/cdisc/cosmos/dss/SC/CNTYPAD/SCTESTCD> ;
    rdf:_2 <https://w3id.org/cdisc/cosmos/dss/SC/CNTYPAD/SCTEST> ;
    rdf:_3 <https://w3id.org/cdisc/cosmos/dss/SC/CNTYPAD/SCCAT> ;
    rdf:_4 <https://w3id.org/cdisc/cosmos/dss/SC/CNTYPAD/SCORRES> ;
    rdf:_5 <https://w3id.org/cdisc/cosmos/dss/SC/CNTYPAD/SCDTC> ;
    rdf:_6 <https://w3id.org/cdisc/cosmos/dss/SC/CNTYPAD/SCSTRESC> ;
    cosmos_sdtm:biomedicalConceptId NCIT:C176362 ;
    cosmos_sdtm:domain "SC" ;
    cosmos_sdtm:packageDate "2026-07-14"^^xsd:date ;
    cosmos_sdtm:packageType <https://www.cdisc.org/cosmos/sdtm_v1.0/PackageTypeEnum#sdtm> ;
    cosmos_sdtm:sdtmigStartVersion "3-2" ;
    cosmos_sdtm:shortName "County of Permanent Address" ;
    cosmos_sdtm:source "SC.SCTESTCD" ;
    cosmos_sdtm:variables <https://w3id.org/cdisc/cosmos/dss/SC/CNTYPAD/SCCAT>,
        <https://w3id.org/cdisc/cosmos/dss/SC/CNTYPAD/SCDTC>,
        <https://w3id.org/cdisc/cosmos/dss/SC/CNTYPAD/SCORRES>,
        <https://w3id.org/cdisc/cosmos/dss/SC/CNTYPAD/SCSTRESC>,
        <https://w3id.org/cdisc/cosmos/dss/SC/CNTYPAD/SCTEST>,
        <https://w3id.org/cdisc/cosmos/dss/SC/CNTYPAD/SCTESTCD> .

<https://w3id.org/cdisc/cosmos/dss/SC/CTRYDDTC> a cosmos_sdtm:SDTMGroup ;
    dcterms:identifier "CTRYDDTC" ;
    rdf:_1 <https://w3id.org/cdisc/cosmos/dss/SC/CTRYDDTC/SCTESTCD> ;
    rdf:_2 <https://w3id.org/cdisc/cosmos/dss/SC/CTRYDDTC/SCTEST> ;
    rdf:_3 <https://w3id.org/cdisc/cosmos/dss/SC/CTRYDDTC/SCCAT> ;
    rdf:_4 <https://w3id.org/cdisc/cosmos/dss/SC/CTRYDDTC/SCORRES> ;
    rdf:_5 <https://w3id.org/cdisc/cosmos/dss/SC/CTRYDDTC/SCDTC> ;
    rdf:_6 <https://w3id.org/cdisc/cosmos/dss/SC/CTRYDDTC/SCSTRESC> ;
    cosmos_sdtm:biomedicalConceptId NCIT:C102631 ;
    cosmos_sdtm:domain "SC" ;
    cosmos_sdtm:packageDate "2026-07-14"^^xsd:date ;
    cosmos_sdtm:packageType <https://www.cdisc.org/cosmos/sdtm_v1.0/PackageTypeEnum#sdtm> ;
    cosmos_sdtm:sdtmigStartVersion "3-2" ;
    cosmos_sdtm:shortName "Entry Date from Ptntl Cntry Disease Exp" ;
    cosmos_sdtm:source "SC.SCTESTCD" ;
    cosmos_sdtm:variables <https://w3id.org/cdisc/cosmos/dss/SC/CTRYDDTC/SCCAT>,
        <https://w3id.org/cdisc/cosmos/dss/SC/CTRYDDTC/SCDTC>,
        <https://w3id.org/cdisc/cosmos/dss/SC/CTRYDDTC/SCORRES>,
        <https://w3id.org/cdisc/cosmos/dss/SC/CTRYDDTC/SCSTRESC>,
        <https://w3id.org/cdisc/cosmos/dss/SC/CTRYDDTC/SCTEST>,
        <https://w3id.org/cdisc/cosmos/dss/SC/CTRYDDTC/SCTESTCD> .

<https://w3id.org/cdisc/cosmos/dss/SC/CTRYDEXP> a cosmos_sdtm:SDTMGroup ;
    dcterms:identifier "CTRYDEXP" ;
    rdf:_1 <https://w3id.org/cdisc/cosmos/dss/SC/CTRYDEXP/SCTESTCD> ;
    rdf:_2 <https://w3id.org/cdisc/cosmos/dss/SC/CTRYDEXP/SCTEST> ;
    rdf:_3 <https://w3id.org/cdisc/cosmos/dss/SC/CTRYDEXP/SCCAT> ;
    rdf:_4 <https://w3id.org/cdisc/cosmos/dss/SC/CTRYDEXP/SCORRES> ;
    rdf:_5 <https://w3id.org/cdisc/cosmos/dss/SC/CTRYDEXP/SCDTC> ;
    rdf:_6 <https://w3id.org/cdisc/cosmos/dss/SC/CTRYDEXP/SCSTRESC> ;
    cosmos_sdtm:biomedicalConceptId NCIT:C102612 ;
    cosmos_sdtm:domain "SC" ;
    cosmos_sdtm:packageDate "2026-07-14"^^xsd:date ;
    cosmos_sdtm:packageType <https://www.cdisc.org/cosmos/sdtm_v1.0/PackageTypeEnum#sdtm> ;
    cosmos_sdtm:sdtmigStartVersion "3-2" ;
    cosmos_sdtm:shortName "Country of Potential Disease Exposure" ;
    cosmos_sdtm:source "SC.SCTESTCD" ;
    cosmos_sdtm:variables <https://w3id.org/cdisc/cosmos/dss/SC/CTRYDEXP/SCCAT>,
        <https://w3id.org/cdisc/cosmos/dss/SC/CTRYDEXP/SCDTC>,
        <https://w3id.org/cdisc/cosmos/dss/SC/CTRYDEXP/SCORRES>,
        <https://w3id.org/cdisc/cosmos/dss/SC/CTRYDEXP/SCSTRESC>,
        <https://w3id.org/cdisc/cosmos/dss/SC/CTRYDEXP/SCTEST>,
        <https://w3id.org/cdisc/cosmos/dss/SC/CTRYDEXP/SCTESTCD> .

<https://w3id.org/cdisc/cosmos/dss/SC/CTRYPAD> a cosmos_sdtm:SDTMGroup ;
    dcterms:identifier "CTRYPAD" ;
    rdf:_1 <https://w3id.org/cdisc/cosmos/dss/SC/CTRYPAD/SCTESTCD> ;
    rdf:_2 <https://w3id.org/cdisc/cosmos/dss/SC/CTRYPAD/SCTEST> ;
    rdf:_3 <https://w3id.org/cdisc/cosmos/dss/SC/CTRYPAD/SCCAT> ;
    rdf:_4 <https://w3id.org/cdisc/cosmos/dss/SC/CTRYPAD/SCORRES> ;
    rdf:_5 <https://w3id.org/cdisc/cosmos/dss/SC/CTRYPAD/SCDTC> ;
    rdf:_6 <https://w3id.org/cdisc/cosmos/dss/SC/CTRYPAD/SCSTRESC> ;
    cosmos_sdtm:biomedicalConceptId NCIT:C176365 ;
    cosmos_sdtm:domain "SC" ;
    cosmos_sdtm:packageDate "2026-07-14"^^xsd:date ;
    cosmos_sdtm:packageType <https://www.cdisc.org/cosmos/sdtm_v1.0/PackageTypeEnum#sdtm> ;
    cosmos_sdtm:sdtmigStartVersion "3-2" ;
    cosmos_sdtm:shortName "Country of Permanent Address" ;
    cosmos_sdtm:source "SC.SCTESTCD" ;
    cosmos_sdtm:variables <https://w3id.org/cdisc/cosmos/dss/SC/CTRYPAD/SCCAT>,
        <https://w3id.org/cdisc/cosmos/dss/SC/CTRYPAD/SCDTC>,
        <https://w3id.org/cdisc/cosmos/dss/SC/CTRYPAD/SCORRES>,
        <https://w3id.org/cdisc/cosmos/dss/SC/CTRYPAD/SCSTRESC>,
        <https://w3id.org/cdisc/cosmos/dss/SC/CTRYPAD/SCTEST>,
        <https://w3id.org/cdisc/cosmos/dss/SC/CTRYPAD/SCTESTCD> .

<https://w3id.org/cdisc/cosmos/dss/SC/DAYCRIND> a cosmos_sdtm:SDTMGroup ;
    dcterms:identifier "DAYCRIND" ;
    rdf:_1 <https://w3id.org/cdisc/cosmos/dss/SC/DAYCRIND/SCTESTCD> ;
    rdf:_2 <https://w3id.org/cdisc/cosmos/dss/SC/DAYCRIND/SCTEST> ;
    rdf:_3 <https://w3id.org/cdisc/cosmos/dss/SC/DAYCRIND/SCCAT> ;
    rdf:_4 <https://w3id.org/cdisc/cosmos/dss/SC/DAYCRIND/SCORRES> ;
    rdf:_5 <https://w3id.org/cdisc/cosmos/dss/SC/DAYCRIND/SCDTC> ;
    rdf:_6 <https://w3id.org/cdisc/cosmos/dss/SC/DAYCRIND/SCSTRESC> ;
    cosmos_sdtm:biomedicalConceptId NCIT:C198362 ;
    cosmos_sdtm:domain "SC" ;
    cosmos_sdtm:packageDate "2026-07-14"^^xsd:date ;
    cosmos_sdtm:packageType <https://www.cdisc.org/cosmos/sdtm_v1.0/PackageTypeEnum#sdtm> ;
    cosmos_sdtm:sdtmigStartVersion "3-2" ;
    cosmos_sdtm:shortName "Daycare Indicator" ;
    cosmos_sdtm:source "SC.SCTESTCD" ;
    cosmos_sdtm:variables <https://w3id.org/cdisc/cosmos/dss/SC/DAYCRIND/SCCAT>,
        <https://w3id.org/cdisc/cosmos/dss/SC/DAYCRIND/SCDTC>,
        <https://w3id.org/cdisc/cosmos/dss/SC/DAYCRIND/SCORRES>,
        <https://w3id.org/cdisc/cosmos/dss/SC/DAYCRIND/SCSTRESC>,
        <https://w3id.org/cdisc/cosmos/dss/SC/DAYCRIND/SCTEST>,
        <https://w3id.org/cdisc/cosmos/dss/SC/DAYCRIND/SCTESTCD> .

<https://w3id.org/cdisc/cosmos/dss/SC/DDDTYPE> a cosmos_sdtm:SDTMGroup ;
    dcterms:identifier "DDDTYPE" ;
    rdf:_1 <https://w3id.org/cdisc/cosmos/dss/SC/DDDTYPE/SCTESTCD> ;
    rdf:_2 <https://w3id.org/cdisc/cosmos/dss/SC/DDDTYPE/SCTEST> ;
    rdf:_3 <https://w3id.org/cdisc/cosmos/dss/SC/DDDTYPE/SCCAT> ;
    rdf:_4 <https://w3id.org/cdisc/cosmos/dss/SC/DDDTYPE/SCORRES> ;
    rdf:_5 <https://w3id.org/cdisc/cosmos/dss/SC/DDDTYPE/SCDTC> ;
    rdf:_6 <https://w3id.org/cdisc/cosmos/dss/SC/DDDTYPE/SCSTRESC> ;
    cosmos_sdtm:biomedicalConceptId NCIT:C139270 ;
    cosmos_sdtm:domain "SC" ;
    cosmos_sdtm:packageDate "2026-07-14"^^xsd:date ;
    cosmos_sdtm:packageType <https://www.cdisc.org/cosmos/sdtm_v1.0/PackageTypeEnum#sdtm> ;
    cosmos_sdtm:sdtmigStartVersion "3-2" ;
    cosmos_sdtm:shortName "Deceased Donor Donation Type" ;
    cosmos_sdtm:source "SC.SCTESTCD" ;
    cosmos_sdtm:variables <https://w3id.org/cdisc/cosmos/dss/SC/DDDTYPE/SCCAT>,
        <https://w3id.org/cdisc/cosmos/dss/SC/DDDTYPE/SCDTC>,
        <https://w3id.org/cdisc/cosmos/dss/SC/DDDTYPE/SCORRES>,
        <https://w3id.org/cdisc/cosmos/dss/SC/DDDTYPE/SCSTRESC>,
        <https://w3id.org/cdisc/cosmos/dss/SC/DDDTYPE/SCTEST>,
        <https://w3id.org/cdisc/cosmos/dss/SC/DDDTYPE/SCTESTCD> .

<https://w3id.org/cdisc/cosmos/dss/SC/DISTDEXP> a cosmos_sdtm:SDTMGroup ;
    dcterms:identifier "DISTDEXP" ;
    rdf:_1 <https://w3id.org/cdisc/cosmos/dss/SC/DISTDEXP/SCTESTCD> ;
    rdf:_2 <https://w3id.org/cdisc/cosmos/dss/SC/DISTDEXP/SCTEST> ;
    rdf:_3 <https://w3id.org/cdisc/cosmos/dss/SC/DISTDEXP/SCCAT> ;
    rdf:_4 <https://w3id.org/cdisc/cosmos/dss/SC/DISTDEXP/SCORRES> ;
    rdf:_5 <https://w3id.org/cdisc/cosmos/dss/SC/DISTDEXP/SCDTC> ;
    rdf:_6 <https://w3id.org/cdisc/cosmos/dss/SC/DISTDEXP/SCSTRESC> ;
    cosmos_sdtm:biomedicalConceptId NCIT:C174364 ;
    cosmos_sdtm:domain "SC" ;
    cosmos_sdtm:packageDate "2026-07-14"^^xsd:date ;
    cosmos_sdtm:packageType <https://www.cdisc.org/cosmos/sdtm_v1.0/PackageTypeEnum#sdtm> ;
    cosmos_sdtm:sdtmigStartVersion "3-2" ;
    cosmos_sdtm:shortName "District of Potential Disease Exposure" ;
    cosmos_sdtm:source "SC.SCTESTCD" ;
    cosmos_sdtm:variables <https://w3id.org/cdisc/cosmos/dss/SC/DISTDEXP/SCCAT>,
        <https://w3id.org/cdisc/cosmos/dss/SC/DISTDEXP/SCDTC>,
        <https://w3id.org/cdisc/cosmos/dss/SC/DISTDEXP/SCORRES>,
        <https://w3id.org/cdisc/cosmos/dss/SC/DISTDEXP/SCSTRESC>,
        <https://w3id.org/cdisc/cosmos/dss/SC/DISTDEXP/SCTEST>,
        <https://w3id.org/cdisc/cosmos/dss/SC/DISTDEXP/SCTESTCD> .

<https://w3id.org/cdisc/cosmos/dss/SC/DISTPAD> a cosmos_sdtm:SDTMGroup ;
    dcterms:identifier "DISTPAD" ;
    rdf:_1 <https://w3id.org/cdisc/cosmos/dss/SC/DISTPAD/SCTESTCD> ;
    rdf:_2 <https://w3id.org/cdisc/cosmos/dss/SC/DISTPAD/SCTEST> ;
    rdf:_3 <https://w3id.org/cdisc/cosmos/dss/SC/DISTPAD/SCCAT> ;
    rdf:_4 <https://w3id.org/cdisc/cosmos/dss/SC/DISTPAD/SCORRES> ;
    rdf:_5 <https://w3id.org/cdisc/cosmos/dss/SC/DISTPAD/SCDTC> ;
    rdf:_6 <https://w3id.org/cdisc/cosmos/dss/SC/DISTPAD/SCSTRESC> ;
    cosmos_sdtm:biomedicalConceptId NCIT:C176363 ;
    cosmos_sdtm:domain "SC" ;
    cosmos_sdtm:packageDate "2026-07-14"^^xsd:date ;
    cosmos_sdtm:packageType <https://www.cdisc.org/cosmos/sdtm_v1.0/PackageTypeEnum#sdtm> ;
    cosmos_sdtm:sdtmigStartVersion "3-2" ;
    cosmos_sdtm:shortName "District of Permanent Address" ;
    cosmos_sdtm:source "SC.SCTESTCD" ;
    cosmos_sdtm:variables <https://w3id.org/cdisc/cosmos/dss/SC/DISTPAD/SCCAT>,
        <https://w3id.org/cdisc/cosmos/dss/SC/DISTPAD/SCDTC>,
        <https://w3id.org/cdisc/cosmos/dss/SC/DISTPAD/SCORRES>,
        <https://w3id.org/cdisc/cosmos/dss/SC/DISTPAD/SCSTRESC>,
        <https://w3id.org/cdisc/cosmos/dss/SC/DISTPAD/SCTEST>,
        <https://w3id.org/cdisc/cosmos/dss/SC/DISTPAD/SCTESTCD> .

<https://w3id.org/cdisc/cosmos/dss/SC/DSTATTOD> a cosmos_sdtm:SDTMGroup ;
    dcterms:identifier "DSTATTOD" ;
    rdf:_1 <https://w3id.org/cdisc/cosmos/dss/SC/DSTATTOD/SCTESTCD> ;
    rdf:_2 <https://w3id.org/cdisc/cosmos/dss/SC/DSTATTOD/SCTEST> ;
    rdf:_3 <https://w3id.org/cdisc/cosmos/dss/SC/DSTATTOD/SCCAT> ;
    rdf:_4 <https://w3id.org/cdisc/cosmos/dss/SC/DSTATTOD/SCORRES> ;
    rdf:_5 <https://w3id.org/cdisc/cosmos/dss/SC/DSTATTOD/SCDTC> ;
    rdf:_6 <https://w3id.org/cdisc/cosmos/dss/SC/DSTATTOD/SCSTRESC> ;
    cosmos_sdtm:biomedicalConceptId NCIT:C139269 ;
    cosmos_sdtm:domain "SC" ;
    cosmos_sdtm:packageDate "2026-07-14"^^xsd:date ;
    cosmos_sdtm:packageType <https://www.cdisc.org/cosmos/sdtm_v1.0/PackageTypeEnum#sdtm> ;
    cosmos_sdtm:sdtmigStartVersion "3-2" ;
    cosmos_sdtm:shortName "Donor Status at Time of Organ Donation" ;
    cosmos_sdtm:source "SC.SCTESTCD" ;
    cosmos_sdtm:variables <https://w3id.org/cdisc/cosmos/dss/SC/DSTATTOD/SCCAT>,
        <https://w3id.org/cdisc/cosmos/dss/SC/DSTATTOD/SCDTC>,
        <https://w3id.org/cdisc/cosmos/dss/SC/DSTATTOD/SCORRES>,
        <https://w3id.org/cdisc/cosmos/dss/SC/DSTATTOD/SCSTRESC>,
        <https://w3id.org/cdisc/cosmos/dss/SC/DSTATTOD/SCTEST>,
        <https://w3id.org/cdisc/cosmos/dss/SC/DSTATTOD/SCTESTCD> .

<https://w3id.org/cdisc/cosmos/dss/SC/DWELLTYP> a cosmos_sdtm:SDTMGroup ;
    dcterms:identifier "DWELLTYP" ;
    rdf:_1 <https://w3id.org/cdisc/cosmos/dss/SC/DWELLTYP/SCTESTCD> ;
    rdf:_2 <https://w3id.org/cdisc/cosmos/dss/SC/DWELLTYP/SCTEST> ;
    rdf:_3 <https://w3id.org/cdisc/cosmos/dss/SC/DWELLTYP/SCCAT> ;
    rdf:_4 <https://w3id.org/cdisc/cosmos/dss/SC/DWELLTYP/SCORRES> ;
    rdf:_5 <https://w3id.org/cdisc/cosmos/dss/SC/DWELLTYP/SCDTC> ;
    rdf:_6 <https://w3id.org/cdisc/cosmos/dss/SC/DWELLTYP/SCSTRESC> ;
    cosmos_sdtm:biomedicalConceptId NCIT:C86029 ;
    cosmos_sdtm:domain "SC" ;
    cosmos_sdtm:packageDate "2026-07-14"^^xsd:date ;
    cosmos_sdtm:packageType <https://www.cdisc.org/cosmos/sdtm_v1.0/PackageTypeEnum#sdtm> ;
    cosmos_sdtm:sdtmigStartVersion "3-2" ;
    cosmos_sdtm:shortName "Dwelling Type" ;
    cosmos_sdtm:source "SC.SCTESTCD" ;
    cosmos_sdtm:variables <https://w3id.org/cdisc/cosmos/dss/SC/DWELLTYP/SCCAT>,
        <https://w3id.org/cdisc/cosmos/dss/SC/DWELLTYP/SCDTC>,
        <https://w3id.org/cdisc/cosmos/dss/SC/DWELLTYP/SCORRES>,
        <https://w3id.org/cdisc/cosmos/dss/SC/DWELLTYP/SCSTRESC>,
        <https://w3id.org/cdisc/cosmos/dss/SC/DWELLTYP/SCTEST>,
        <https://w3id.org/cdisc/cosmos/dss/SC/DWELLTYP/SCTESTCD> .

<https://w3id.org/cdisc/cosmos/dss/SC/EDLVRDTC> a cosmos_sdtm:SDTMGroup ;
    dcterms:identifier "EDLVRDTC" ;
    rdf:_1 <https://w3id.org/cdisc/cosmos/dss/SC/EDLVRDTC/SCTESTCD> ;
    rdf:_2 <https://w3id.org/cdisc/cosmos/dss/SC/EDLVRDTC/SCTEST> ;
    rdf:_3 <https://w3id.org/cdisc/cosmos/dss/SC/EDLVRDTC/SCCAT> ;
    rdf:_4 <https://w3id.org/cdisc/cosmos/dss/SC/EDLVRDTC/SCORRES> ;
    rdf:_5 <https://w3id.org/cdisc/cosmos/dss/SC/EDLVRDTC/SCDTC> ;
    rdf:_6 <https://w3id.org/cdisc/cosmos/dss/SC/EDLVRDTC/SCSTRESC> ;
    cosmos_sdtm:biomedicalConceptId NCIT:C81247 ;
    cosmos_sdtm:domain "SC" ;
    cosmos_sdtm:packageDate "2026-07-14"^^xsd:date ;
    cosmos_sdtm:packageType <https://www.cdisc.org/cosmos/sdtm_v1.0/PackageTypeEnum#sdtm> ;
    cosmos_sdtm:sdtmigStartVersion "3-2" ;
    cosmos_sdtm:shortName "Estimated Date of Delivery" ;
    cosmos_sdtm:source "SC.SCTESTCD" ;
    cosmos_sdtm:variables <https://w3id.org/cdisc/cosmos/dss/SC/EDLVRDTC/SCCAT>,
        <https://w3id.org/cdisc/cosmos/dss/SC/EDLVRDTC/SCDTC>,
        <https://w3id.org/cdisc/cosmos/dss/SC/EDLVRDTC/SCORRES>,
        <https://w3id.org/cdisc/cosmos/dss/SC/EDLVRDTC/SCSTRESC>,
        <https://w3id.org/cdisc/cosmos/dss/SC/EDLVRDTC/SCTEST>,
        <https://w3id.org/cdisc/cosmos/dss/SC/EDLVRDTC/SCTESTCD> .

<https://w3id.org/cdisc/cosmos/dss/SC/EDULEVEL> a cosmos_sdtm:SDTMGroup ;
    dcterms:identifier "EDULEVEL" ;
    rdf:_1 <https://w3id.org/cdisc/cosmos/dss/SC/EDULEVEL/SCTESTCD> ;
    rdf:_2 <https://w3id.org/cdisc/cosmos/dss/SC/EDULEVEL/SCTEST> ;
    rdf:_3 <https://w3id.org/cdisc/cosmos/dss/SC/EDULEVEL/SCCAT> ;
    rdf:_4 <https://w3id.org/cdisc/cosmos/dss/SC/EDULEVEL/SCORRES> ;
    rdf:_5 <https://w3id.org/cdisc/cosmos/dss/SC/EDULEVEL/SCDTC> ;
    rdf:_6 <https://w3id.org/cdisc/cosmos/dss/SC/EDULEVEL/SCSTRESC> ;
    cosmos_sdtm:biomedicalConceptId NCIT:C17953 ;
    cosmos_sdtm:domain "SC" ;
    cosmos_sdtm:packageDate "2026-07-14"^^xsd:date ;
    cosmos_sdtm:packageType <https://www.cdisc.org/cosmos/sdtm_v1.0/PackageTypeEnum#sdtm> ;
    cosmos_sdtm:sdtmigStartVersion "3-2" ;
    cosmos_sdtm:shortName "Level of Education Attained" ;
    cosmos_sdtm:source "SC.SCTESTCD" ;
    cosmos_sdtm:variables <https://w3id.org/cdisc/cosmos/dss/SC/EDULEVEL/SCCAT>,
        <https://w3id.org/cdisc/cosmos/dss/SC/EDULEVEL/SCDTC>,
        <https://w3id.org/cdisc/cosmos/dss/SC/EDULEVEL/SCORRES>,
        <https://w3id.org/cdisc/cosmos/dss/SC/EDULEVEL/SCSTRESC>,
        <https://w3id.org/cdisc/cosmos/dss/SC/EDULEVEL/SCTEST>,
        <https://w3id.org/cdisc/cosmos/dss/SC/EDULEVEL/SCTESTCD> .

<https://w3id.org/cdisc/cosmos/dss/SC/EDUYRNUM> a cosmos_sdtm:SDTMGroup ;
    dcterms:identifier "EDUYRNUM" ;
    rdf:_1 <https://w3id.org/cdisc/cosmos/dss/SC/EDUYRNUM/SCTESTCD> ;
    rdf:_2 <https://w3id.org/cdisc/cosmos/dss/SC/EDUYRNUM/SCTEST> ;
    rdf:_3 <https://w3id.org/cdisc/cosmos/dss/SC/EDUYRNUM/SCCAT> ;
    rdf:_4 <https://w3id.org/cdisc/cosmos/dss/SC/EDUYRNUM/SCORRES> ;
    rdf:_5 <https://w3id.org/cdisc/cosmos/dss/SC/EDUYRNUM/SCDTC> ;
    rdf:_6 <https://w3id.org/cdisc/cosmos/dss/SC/EDUYRNUM/SCSTRESC> ;
    rdf:_7 <https://w3id.org/cdisc/cosmos/dss/SC/EDUYRNUM/SCSTRESN> ;
    cosmos_sdtm:biomedicalConceptId NCIT:C122393 ;
    cosmos_sdtm:domain "SC" ;
    cosmos_sdtm:packageDate "2026-07-14"^^xsd:date ;
    cosmos_sdtm:packageType <https://www.cdisc.org/cosmos/sdtm_v1.0/PackageTypeEnum#sdtm> ;
    cosmos_sdtm:sdtmigStartVersion "3-2" ;
    cosmos_sdtm:shortName "Number of Years of Education" ;
    cosmos_sdtm:source "SC.SCTESTCD" ;
    cosmos_sdtm:variables <https://w3id.org/cdisc/cosmos/dss/SC/EDUYRNUM/SCCAT>,
        <https://w3id.org/cdisc/cosmos/dss/SC/EDUYRNUM/SCDTC>,
        <https://w3id.org/cdisc/cosmos/dss/SC/EDUYRNUM/SCORRES>,
        <https://w3id.org/cdisc/cosmos/dss/SC/EDUYRNUM/SCSTRESC>,
        <https://w3id.org/cdisc/cosmos/dss/SC/EDUYRNUM/SCSTRESN>,
        <https://w3id.org/cdisc/cosmos/dss/SC/EDUYRNUM/SCTEST>,
        <https://w3id.org/cdisc/cosmos/dss/SC/EDUYRNUM/SCTESTCD> .

<https://w3id.org/cdisc/cosmos/dss/SC/EGESTAGE> a cosmos_sdtm:SDTMGroup ;
    dcterms:identifier "EGESTAGE" ;
    rdf:_1 <https://w3id.org/cdisc/cosmos/dss/SC/EGESTAGE/SCTESTCD> ;
    rdf:_2 <https://w3id.org/cdisc/cosmos/dss/SC/EGESTAGE/SCTEST> ;
    rdf:_3 <https://w3id.org/cdisc/cosmos/dss/SC/EGESTAGE/SCCAT> ;
    rdf:_4 <https://w3id.org/cdisc/cosmos/dss/SC/EGESTAGE/SCORRES> ;
    rdf:_5 <https://w3id.org/cdisc/cosmos/dss/SC/EGESTAGE/SCORRESU> ;
    rdf:_6 <https://w3id.org/cdisc/cosmos/dss/SC/EGESTAGE/SCDTC> ;
    rdf:_7 <https://w3id.org/cdisc/cosmos/dss/SC/EGESTAGE/SCSTRESC> ;
    rdf:_8 <https://w3id.org/cdisc/cosmos/dss/SC/EGESTAGE/SCSTRESN> ;
    rdf:_9 <https://w3id.org/cdisc/cosmos/dss/SC/EGESTAGE/SCSTRESU> ;
    cosmos_sdtm:biomedicalConceptId NCIT:C122188 ;
    cosmos_sdtm:domain "SC" ;
    cosmos_sdtm:packageDate "2026-07-14"^^xsd:date ;
    cosmos_sdtm:packageType <https://www.cdisc.org/cosmos/sdtm_v1.0/PackageTypeEnum#sdtm> ;
    cosmos_sdtm:sdtmigStartVersion "3-2" ;
    cosmos_sdtm:shortName "Estimated Gestational Age" ;
    cosmos_sdtm:source "SC.SCTESTCD" ;
    cosmos_sdtm:variables <https://w3id.org/cdisc/cosmos/dss/SC/EGESTAGE/SCCAT>,
        <https://w3id.org/cdisc/cosmos/dss/SC/EGESTAGE/SCDTC>,
        <https://w3id.org/cdisc/cosmos/dss/SC/EGESTAGE/SCORRES>,
        <https://w3id.org/cdisc/cosmos/dss/SC/EGESTAGE/SCORRESU>,
        <https://w3id.org/cdisc/cosmos/dss/SC/EGESTAGE/SCSTRESC>,
        <https://w3id.org/cdisc/cosmos/dss/SC/EGESTAGE/SCSTRESN>,
        <https://w3id.org/cdisc/cosmos/dss/SC/EGESTAGE/SCSTRESU>,
        <https://w3id.org/cdisc/cosmos/dss/SC/EGESTAGE/SCTEST>,
        <https://w3id.org/cdisc/cosmos/dss/SC/EGESTAGE/SCTESTCD> .

<https://w3id.org/cdisc/cosmos/dss/SC/EMPJOB> a cosmos_sdtm:SDTMGroup ;
    dcterms:identifier "EMPJOB" ;
    rdf:_1 <https://w3id.org/cdisc/cosmos/dss/SC/EMPJOB/SCTESTCD> ;
    rdf:_2 <https://w3id.org/cdisc/cosmos/dss/SC/EMPJOB/SCTEST> ;
    rdf:_3 <https://w3id.org/cdisc/cosmos/dss/SC/EMPJOB/SCCAT> ;
    rdf:_4 <https://w3id.org/cdisc/cosmos/dss/SC/EMPJOB/SCORRES> ;
    rdf:_5 <https://w3id.org/cdisc/cosmos/dss/SC/EMPJOB/SCDTC> ;
    rdf:_6 <https://w3id.org/cdisc/cosmos/dss/SC/EMPJOB/SCSTRESC> ;
    cosmos_sdtm:biomedicalConceptId NCIT:C25193 ;
    cosmos_sdtm:domain "SC" ;
    cosmos_sdtm:packageDate "2026-07-14"^^xsd:date ;
    cosmos_sdtm:packageType <https://www.cdisc.org/cosmos/sdtm_v1.0/PackageTypeEnum#sdtm> ;
    cosmos_sdtm:sdtmigStartVersion "3-2" ;
    cosmos_sdtm:shortName "Employee Job" ;
    cosmos_sdtm:source "SC.SCTESTCD" ;
    cosmos_sdtm:variables <https://w3id.org/cdisc/cosmos/dss/SC/EMPJOB/SCCAT>,
        <https://w3id.org/cdisc/cosmos/dss/SC/EMPJOB/SCDTC>,
        <https://w3id.org/cdisc/cosmos/dss/SC/EMPJOB/SCORRES>,
        <https://w3id.org/cdisc/cosmos/dss/SC/EMPJOB/SCSTRESC>,
        <https://w3id.org/cdisc/cosmos/dss/SC/EMPJOB/SCTEST>,
        <https://w3id.org/cdisc/cosmos/dss/SC/EMPJOB/SCTESTCD> .

<https://w3id.org/cdisc/cosmos/dss/SC/EMPSTAT> a cosmos_sdtm:SDTMGroup ;
    dcterms:identifier "EMPSTAT" ;
    rdf:_1 <https://w3id.org/cdisc/cosmos/dss/SC/EMPSTAT/SCTESTCD> ;
    rdf:_2 <https://w3id.org/cdisc/cosmos/dss/SC/EMPSTAT/SCTEST> ;
    rdf:_3 <https://w3id.org/cdisc/cosmos/dss/SC/EMPSTAT/SCCAT> ;
    rdf:_4 <https://w3id.org/cdisc/cosmos/dss/SC/EMPSTAT/SCORRES> ;
    rdf:_5 <https://w3id.org/cdisc/cosmos/dss/SC/EMPSTAT/SCDTC> ;
    rdf:_6 <https://w3id.org/cdisc/cosmos/dss/SC/EMPSTAT/SCSTRESC> ;
    cosmos_sdtm:biomedicalConceptId NCIT:C179143 ;
    cosmos_sdtm:domain "SC" ;
    cosmos_sdtm:packageDate "2026-07-14"^^xsd:date ;
    cosmos_sdtm:packageType <https://www.cdisc.org/cosmos/sdtm_v1.0/PackageTypeEnum#sdtm> ;
    cosmos_sdtm:sdtmigStartVersion "3-2" ;
    cosmos_sdtm:shortName "Employment Status" ;
    cosmos_sdtm:source "SC.SCTESTCD" ;
    cosmos_sdtm:variables <https://w3id.org/cdisc/cosmos/dss/SC/EMPSTAT/SCCAT>,
        <https://w3id.org/cdisc/cosmos/dss/SC/EMPSTAT/SCDTC>,
        <https://w3id.org/cdisc/cosmos/dss/SC/EMPSTAT/SCORRES>,
        <https://w3id.org/cdisc/cosmos/dss/SC/EMPSTAT/SCSTRESC>,
        <https://w3id.org/cdisc/cosmos/dss/SC/EMPSTAT/SCTEST>,
        <https://w3id.org/cdisc/cosmos/dss/SC/EMPSTAT/SCTESTCD> .

<https://w3id.org/cdisc/cosmos/dss/SC/FRTLSTAT> a cosmos_sdtm:SDTMGroup ;
    dcterms:identifier "FRTLSTAT" ;
    rdf:_1 <https://w3id.org/cdisc/cosmos/dss/SC/FRTLSTAT/SCTESTCD> ;
    rdf:_2 <https://w3id.org/cdisc/cosmos/dss/SC/FRTLSTAT/SCTEST> ;
    rdf:_3 <https://w3id.org/cdisc/cosmos/dss/SC/FRTLSTAT/SCCAT> ;
    rdf:_4 <https://w3id.org/cdisc/cosmos/dss/SC/FRTLSTAT/SCORRES> ;
    rdf:_5 <https://w3id.org/cdisc/cosmos/dss/SC/FRTLSTAT/SCDTC> ;
    rdf:_6 <https://w3id.org/cdisc/cosmos/dss/SC/FRTLSTAT/SCSTRESC> ;
    cosmos_sdtm:biomedicalConceptId NCIT:C186214 ;
    cosmos_sdtm:domain "SC" ;
    cosmos_sdtm:packageDate "2026-07-14"^^xsd:date ;
    cosmos_sdtm:packageType <https://www.cdisc.org/cosmos/sdtm_v1.0/PackageTypeEnum#sdtm> ;
    cosmos_sdtm:sdtmigStartVersion "3-2" ;
    cosmos_sdtm:shortName "Fertility Status" ;
    cosmos_sdtm:source "SC.SCTESTCD" ;
    cosmos_sdtm:variables <https://w3id.org/cdisc/cosmos/dss/SC/FRTLSTAT/SCCAT>,
        <https://w3id.org/cdisc/cosmos/dss/SC/FRTLSTAT/SCDTC>,
        <https://w3id.org/cdisc/cosmos/dss/SC/FRTLSTAT/SCORRES>,
        <https://w3id.org/cdisc/cosmos/dss/SC/FRTLSTAT/SCSTRESC>,
        <https://w3id.org/cdisc/cosmos/dss/SC/FRTLSTAT/SCTEST>,
        <https://w3id.org/cdisc/cosmos/dss/SC/FRTLSTAT/SCTESTCD> .

<https://w3id.org/cdisc/cosmos/dss/SC/FTSTUIND> a cosmos_sdtm:SDTMGroup ;
    dcterms:identifier "FTSTUIND" ;
    rdf:_1 <https://w3id.org/cdisc/cosmos/dss/SC/FTSTUIND/SCTESTCD> ;
    rdf:_2 <https://w3id.org/cdisc/cosmos/dss/SC/FTSTUIND/SCTEST> ;
    rdf:_3 <https://w3id.org/cdisc/cosmos/dss/SC/FTSTUIND/SCCAT> ;
    rdf:_4 <https://w3id.org/cdisc/cosmos/dss/SC/FTSTUIND/SCORRES> ;
    rdf:_5 <https://w3id.org/cdisc/cosmos/dss/SC/FTSTUIND/SCDTC> ;
    rdf:_6 <https://w3id.org/cdisc/cosmos/dss/SC/FTSTUIND/SCSTRESC> ;
    cosmos_sdtm:biomedicalConceptId NCIT:C209682 ;
    cosmos_sdtm:domain "SC" ;
    cosmos_sdtm:packageDate "2026-07-14"^^xsd:date ;
    cosmos_sdtm:packageType <https://www.cdisc.org/cosmos/sdtm_v1.0/PackageTypeEnum#sdtm> ;
    cosmos_sdtm:sdtmigStartVersion "3-2" ;
    cosmos_sdtm:shortName "Full-Time Student Indicator" ;
    cosmos_sdtm:source "SC.SCTESTCD" ;
    cosmos_sdtm:variables <https://w3id.org/cdisc/cosmos/dss/SC/FTSTUIND/SCCAT>,
        <https://w3id.org/cdisc/cosmos/dss/SC/FTSTUIND/SCDTC>,
        <https://w3id.org/cdisc/cosmos/dss/SC/FTSTUIND/SCORRES>,
        <https://w3id.org/cdisc/cosmos/dss/SC/FTSTUIND/SCSTRESC>,
        <https://w3id.org/cdisc/cosmos/dss/SC/FTSTUIND/SCTEST>,
        <https://w3id.org/cdisc/cosmos/dss/SC/FTSTUIND/SCTESTCD> .

<https://w3id.org/cdisc/cosmos/dss/SC/GENIDENT> a cosmos_sdtm:SDTMGroup ;
    dcterms:identifier "GENIDENT" ;
    rdf:_1 <https://w3id.org/cdisc/cosmos/dss/SC/GENIDENT/SCTESTCD> ;
    rdf:_2 <https://w3id.org/cdisc/cosmos/dss/SC/GENIDENT/SCTEST> ;
    rdf:_3 <https://w3id.org/cdisc/cosmos/dss/SC/GENIDENT/SCCAT> ;
    rdf:_4 <https://w3id.org/cdisc/cosmos/dss/SC/GENIDENT/SCORRES> ;
    rdf:_5 <https://w3id.org/cdisc/cosmos/dss/SC/GENIDENT/SCDTC> ;
    rdf:_6 <https://w3id.org/cdisc/cosmos/dss/SC/GENIDENT/SCSTRESC> ;
    cosmos_sdtm:biomedicalConceptId NCIT:C158277 ;
    cosmos_sdtm:domain "SC" ;
    cosmos_sdtm:packageDate "2026-07-14"^^xsd:date ;
    cosmos_sdtm:packageType <https://www.cdisc.org/cosmos/sdtm_v1.0/PackageTypeEnum#sdtm> ;
    cosmos_sdtm:sdtmigStartVersion "3-2" ;
    cosmos_sdtm:shortName "Gender Identity" ;
    cosmos_sdtm:source "SC.SCTESTCD" ;
    cosmos_sdtm:variables <https://w3id.org/cdisc/cosmos/dss/SC/GENIDENT/SCCAT>,
        <https://w3id.org/cdisc/cosmos/dss/SC/GENIDENT/SCDTC>,
        <https://w3id.org/cdisc/cosmos/dss/SC/GENIDENT/SCORRES>,
        <https://w3id.org/cdisc/cosmos/dss/SC/GENIDENT/SCSTRESC>,
        <https://w3id.org/cdisc/cosmos/dss/SC/GENIDENT/SCTEST>,
        <https://w3id.org/cdisc/cosmos/dss/SC/GENIDENT/SCTESTCD> .

<https://w3id.org/cdisc/cosmos/dss/SC/GPSDEXP> a cosmos_sdtm:SDTMGroup ;
    dcterms:identifier "GPSDEXP" ;
    rdf:_1 <https://w3id.org/cdisc/cosmos/dss/SC/GPSDEXP/SCTESTCD> ;
    rdf:_2 <https://w3id.org/cdisc/cosmos/dss/SC/GPSDEXP/SCTEST> ;
    rdf:_3 <https://w3id.org/cdisc/cosmos/dss/SC/GPSDEXP/SCCAT> ;
    rdf:_4 <https://w3id.org/cdisc/cosmos/dss/SC/GPSDEXP/SCORRES> ;
    rdf:_5 <https://w3id.org/cdisc/cosmos/dss/SC/GPSDEXP/SCDTC> ;
    rdf:_6 <https://w3id.org/cdisc/cosmos/dss/SC/GPSDEXP/SCSTRESC> ;
    cosmos_sdtm:biomedicalConceptId NCIT:C174365 ;
    cosmos_sdtm:domain "SC" ;
    cosmos_sdtm:packageDate "2026-07-14"^^xsd:date ;
    cosmos_sdtm:packageType <https://www.cdisc.org/cosmos/sdtm_v1.0/PackageTypeEnum#sdtm> ;
    cosmos_sdtm:sdtmigStartVersion "3-2" ;
    cosmos_sdtm:shortName "GPS Coord of Potential Disease Exposure" ;
    cosmos_sdtm:source "SC.SCTESTCD" ;
    cosmos_sdtm:variables <https://w3id.org/cdisc/cosmos/dss/SC/GPSDEXP/SCCAT>,
        <https://w3id.org/cdisc/cosmos/dss/SC/GPSDEXP/SCDTC>,
        <https://w3id.org/cdisc/cosmos/dss/SC/GPSDEXP/SCORRES>,
        <https://w3id.org/cdisc/cosmos/dss/SC/GPSDEXP/SCSTRESC>,
        <https://w3id.org/cdisc/cosmos/dss/SC/GPSDEXP/SCTEST>,
        <https://w3id.org/cdisc/cosmos/dss/SC/GPSDEXP/SCTESTCD> .

<https://w3id.org/cdisc/cosmos/dss/SC/GSTABRTH> a cosmos_sdtm:SDTMGroup ;
    dcterms:identifier "GSTABRTH" ;
    rdf:_1 <https://w3id.org/cdisc/cosmos/dss/SC/GSTABRTH/SCTESTCD> ;
    rdf:_2 <https://w3id.org/cdisc/cosmos/dss/SC/GSTABRTH/SCTEST> ;
    rdf:_3 <https://w3id.org/cdisc/cosmos/dss/SC/GSTABRTH/SCCAT> ;
    rdf:_4 <https://w3id.org/cdisc/cosmos/dss/SC/GSTABRTH/SCORRES> ;
    rdf:_5 <https://w3id.org/cdisc/cosmos/dss/SC/GSTABRTH/SCORRESU> ;
    rdf:_6 <https://w3id.org/cdisc/cosmos/dss/SC/GSTABRTH/SCDTC> ;
    rdf:_7 <https://w3id.org/cdisc/cosmos/dss/SC/GSTABRTH/SCSTRESC> ;
    rdf:_8 <https://w3id.org/cdisc/cosmos/dss/SC/GSTABRTH/SCSTRESN> ;
    rdf:_9 <https://w3id.org/cdisc/cosmos/dss/SC/GSTABRTH/SCSTRESU> ;
    cosmos_sdtm:biomedicalConceptId NCIT:C124435 ;
    cosmos_sdtm:domain "SC" ;
    cosmos_sdtm:packageDate "2026-07-14"^^xsd:date ;
    cosmos_sdtm:packageType <https://www.cdisc.org/cosmos/sdtm_v1.0/PackageTypeEnum#sdtm> ;
    cosmos_sdtm:sdtmigStartVersion "3-2" ;
    cosmos_sdtm:shortName "Gestational Age at Birth" ;
    cosmos_sdtm:source "SC.SCTESTCD" ;
    cosmos_sdtm:variables <https://w3id.org/cdisc/cosmos/dss/SC/GSTABRTH/SCCAT>,
        <https://w3id.org/cdisc/cosmos/dss/SC/GSTABRTH/SCDTC>,
        <https://w3id.org/cdisc/cosmos/dss/SC/GSTABRTH/SCORRES>,
        <https://w3id.org/cdisc/cosmos/dss/SC/GSTABRTH/SCORRESU>,
        <https://w3id.org/cdisc/cosmos/dss/SC/GSTABRTH/SCSTRESC>,
        <https://w3id.org/cdisc/cosmos/dss/SC/GSTABRTH/SCSTRESN>,
        <https://w3id.org/cdisc/cosmos/dss/SC/GSTABRTH/SCSTRESU>,
        <https://w3id.org/cdisc/cosmos/dss/SC/GSTABRTH/SCTEST>,
        <https://w3id.org/cdisc/cosmos/dss/SC/GSTABRTH/SCTESTCD> .

<https://w3id.org/cdisc/cosmos/dss/SC/HANDDOM> a cosmos_sdtm:SDTMGroup ;
    dcterms:identifier "HANDDOM" ;
    rdf:_1 <https://w3id.org/cdisc/cosmos/dss/SC/HANDDOM/SCTESTCD> ;
    rdf:_2 <https://w3id.org/cdisc/cosmos/dss/SC/HANDDOM/SCTEST> ;
    rdf:_3 <https://w3id.org/cdisc/cosmos/dss/SC/HANDDOM/SCCAT> ;
    rdf:_4 <https://w3id.org/cdisc/cosmos/dss/SC/HANDDOM/SCORRES> ;
    rdf:_5 <https://w3id.org/cdisc/cosmos/dss/SC/HANDDOM/SCDTC> ;
    rdf:_6 <https://w3id.org/cdisc/cosmos/dss/SC/HANDDOM/SCSTRESC> ;
    cosmos_sdtm:biomedicalConceptId NCIT:C114182 ;
    cosmos_sdtm:domain "SC" ;
    cosmos_sdtm:packageDate "2026-07-14"^^xsd:date ;
    cosmos_sdtm:packageType <https://www.cdisc.org/cosmos/sdtm_v1.0/PackageTypeEnum#sdtm> ;
    cosmos_sdtm:sdtmigStartVersion "3-2" ;
    cosmos_sdtm:shortName "Dominant Hand" ;
    cosmos_sdtm:source "SC.SCTESTCD" ;
    cosmos_sdtm:variables <https://w3id.org/cdisc/cosmos/dss/SC/HANDDOM/SCCAT>,
        <https://w3id.org/cdisc/cosmos/dss/SC/HANDDOM/SCDTC>,
        <https://w3id.org/cdisc/cosmos/dss/SC/HANDDOM/SCORRES>,
        <https://w3id.org/cdisc/cosmos/dss/SC/HANDDOM/SCSTRESC>,
        <https://w3id.org/cdisc/cosmos/dss/SC/HANDDOM/SCTEST>,
        <https://w3id.org/cdisc/cosmos/dss/SC/HANDDOM/SCTESTCD> .

<https://w3id.org/cdisc/cosmos/dss/SC/HIEMPIND> a cosmos_sdtm:SDTMGroup ;
    dcterms:identifier "HIEMPIND" ;
    rdf:_1 <https://w3id.org/cdisc/cosmos/dss/SC/HIEMPIND/SCTESTCD> ;
    rdf:_2 <https://w3id.org/cdisc/cosmos/dss/SC/HIEMPIND/SCTEST> ;
    rdf:_3 <https://w3id.org/cdisc/cosmos/dss/SC/HIEMPIND/SCCAT> ;
    rdf:_4 <https://w3id.org/cdisc/cosmos/dss/SC/HIEMPIND/SCORRES> ;
    rdf:_5 <https://w3id.org/cdisc/cosmos/dss/SC/HIEMPIND/SCDTC> ;
    rdf:_6 <https://w3id.org/cdisc/cosmos/dss/SC/HIEMPIND/SCSTRESC> ;
    cosmos_sdtm:biomedicalConceptId NCIT:C209683 ;
    cosmos_sdtm:domain "SC" ;
    cosmos_sdtm:packageDate "2026-07-14"^^xsd:date ;
    cosmos_sdtm:packageType <https://www.cdisc.org/cosmos/sdtm_v1.0/PackageTypeEnum#sdtm> ;
    cosmos_sdtm:sdtmigStartVersion "3-2" ;
    cosmos_sdtm:shortName "Employer Based Health Insurance Ind" ;
    cosmos_sdtm:source "SC.SCTESTCD" ;
    cosmos_sdtm:variables <https://w3id.org/cdisc/cosmos/dss/SC/HIEMPIND/SCCAT>,
        <https://w3id.org/cdisc/cosmos/dss/SC/HIEMPIND/SCDTC>,
        <https://w3id.org/cdisc/cosmos/dss/SC/HIEMPIND/SCORRES>,
        <https://w3id.org/cdisc/cosmos/dss/SC/HIEMPIND/SCSTRESC>,
        <https://w3id.org/cdisc/cosmos/dss/SC/HIEMPIND/SCTEST>,
        <https://w3id.org/cdisc/cosmos/dss/SC/HIEMPIND/SCTESTCD> .

<https://w3id.org/cdisc/cosmos/dss/SC/HIIHSIND> a cosmos_sdtm:SDTMGroup ;
    dcterms:identifier "HIIHSIND" ;
    rdf:_1 <https://w3id.org/cdisc/cosmos/dss/SC/HIIHSIND/SCTESTCD> ;
    rdf:_2 <https://w3id.org/cdisc/cosmos/dss/SC/HIIHSIND/SCTEST> ;
    rdf:_3 <https://w3id.org/cdisc/cosmos/dss/SC/HIIHSIND/SCCAT> ;
    rdf:_4 <https://w3id.org/cdisc/cosmos/dss/SC/HIIHSIND/SCORRES> ;
    rdf:_5 <https://w3id.org/cdisc/cosmos/dss/SC/HIIHSIND/SCDTC> ;
    rdf:_6 <https://w3id.org/cdisc/cosmos/dss/SC/HIIHSIND/SCSTRESC> ;
    cosmos_sdtm:biomedicalConceptId NCIT:C209684 ;
    cosmos_sdtm:domain "SC" ;
    cosmos_sdtm:packageDate "2026-07-14"^^xsd:date ;
    cosmos_sdtm:packageType <https://www.cdisc.org/cosmos/sdtm_v1.0/PackageTypeEnum#sdtm> ;
    cosmos_sdtm:sdtmigStartVersion "3-2" ;
    cosmos_sdtm:shortName "Indian Health Service Insurance Ind" ;
    cosmos_sdtm:source "SC.SCTESTCD" ;
    cosmos_sdtm:variables <https://w3id.org/cdisc/cosmos/dss/SC/HIIHSIND/SCCAT>,
        <https://w3id.org/cdisc/cosmos/dss/SC/HIIHSIND/SCDTC>,
        <https://w3id.org/cdisc/cosmos/dss/SC/HIIHSIND/SCORRES>,
        <https://w3id.org/cdisc/cosmos/dss/SC/HIIHSIND/SCSTRESC>,
        <https://w3id.org/cdisc/cosmos/dss/SC/HIIHSIND/SCTEST>,
        <https://w3id.org/cdisc/cosmos/dss/SC/HIIHSIND/SCTESTCD> .

<https://w3id.org/cdisc/cosmos/dss/SC/HIIND> a cosmos_sdtm:SDTMGroup ;
    dcterms:identifier "HIIND" ;
    rdf:_1 <https://w3id.org/cdisc/cosmos/dss/SC/HIIND/SCTESTCD> ;
    rdf:_2 <https://w3id.org/cdisc/cosmos/dss/SC/HIIND/SCTEST> ;
    rdf:_3 <https://w3id.org/cdisc/cosmos/dss/SC/HIIND/SCCAT> ;
    rdf:_4 <https://w3id.org/cdisc/cosmos/dss/SC/HIIND/SCORRES> ;
    rdf:_5 <https://w3id.org/cdisc/cosmos/dss/SC/HIIND/SCDTC> ;
    rdf:_6 <https://w3id.org/cdisc/cosmos/dss/SC/HIIND/SCSTRESC> ;
    cosmos_sdtm:biomedicalConceptId NCIT:C209446 ;
    cosmos_sdtm:domain "SC" ;
    cosmos_sdtm:packageDate "2026-07-14"^^xsd:date ;
    cosmos_sdtm:packageType <https://www.cdisc.org/cosmos/sdtm_v1.0/PackageTypeEnum#sdtm> ;
    cosmos_sdtm:sdtmigStartVersion "3-2" ;
    cosmos_sdtm:shortName "Health Insurance Indicator" ;
    cosmos_sdtm:source "SC.SCTESTCD" ;
    cosmos_sdtm:variables <https://w3id.org/cdisc/cosmos/dss/SC/HIIND/SCCAT>,
        <https://w3id.org/cdisc/cosmos/dss/SC/HIIND/SCDTC>,
        <https://w3id.org/cdisc/cosmos/dss/SC/HIIND/SCORRES>,
        <https://w3id.org/cdisc/cosmos/dss/SC/HIIND/SCSTRESC>,
        <https://w3id.org/cdisc/cosmos/dss/SC/HIIND/SCTEST>,
        <https://w3id.org/cdisc/cosmos/dss/SC/HIIND/SCTESTCD> .

<https://w3id.org/cdisc/cosmos/dss/SC/HIMILIND> a cosmos_sdtm:SDTMGroup ;
    dcterms:identifier "HIMILIND" ;
    rdf:_1 <https://w3id.org/cdisc/cosmos/dss/SC/HIMILIND/SCTESTCD> ;
    rdf:_2 <https://w3id.org/cdisc/cosmos/dss/SC/HIMILIND/SCTEST> ;
    rdf:_3 <https://w3id.org/cdisc/cosmos/dss/SC/HIMILIND/SCCAT> ;
    rdf:_4 <https://w3id.org/cdisc/cosmos/dss/SC/HIMILIND/SCORRES> ;
    rdf:_5 <https://w3id.org/cdisc/cosmos/dss/SC/HIMILIND/SCDTC> ;
    rdf:_6 <https://w3id.org/cdisc/cosmos/dss/SC/HIMILIND/SCSTRESC> ;
    cosmos_sdtm:biomedicalConceptId NCIT:C209685 ;
    cosmos_sdtm:domain "SC" ;
    cosmos_sdtm:packageDate "2026-07-14"^^xsd:date ;
    cosmos_sdtm:packageType <https://www.cdisc.org/cosmos/sdtm_v1.0/PackageTypeEnum#sdtm> ;
    cosmos_sdtm:sdtmigStartVersion "3-2" ;
    cosmos_sdtm:shortName "Military Health Insurance Indicator" ;
    cosmos_sdtm:source "SC.SCTESTCD" ;
    cosmos_sdtm:variables <https://w3id.org/cdisc/cosmos/dss/SC/HIMILIND/SCCAT>,
        <https://w3id.org/cdisc/cosmos/dss/SC/HIMILIND/SCDTC>,
        <https://w3id.org/cdisc/cosmos/dss/SC/HIMILIND/SCORRES>,
        <https://w3id.org/cdisc/cosmos/dss/SC/HIMILIND/SCSTRESC>,
        <https://w3id.org/cdisc/cosmos/dss/SC/HIMILIND/SCTEST>,
        <https://w3id.org/cdisc/cosmos/dss/SC/HIMILIND/SCTESTCD> .

<https://w3id.org/cdisc/cosmos/dss/SC/HIPRVIND> a cosmos_sdtm:SDTMGroup ;
    dcterms:identifier "HIPRVIND" ;
    rdf:_1 <https://w3id.org/cdisc/cosmos/dss/SC/HIPRVIND/SCTESTCD> ;
    rdf:_2 <https://w3id.org/cdisc/cosmos/dss/SC/HIPRVIND/SCTEST> ;
    rdf:_3 <https://w3id.org/cdisc/cosmos/dss/SC/HIPRVIND/SCCAT> ;
    rdf:_4 <https://w3id.org/cdisc/cosmos/dss/SC/HIPRVIND/SCORRES> ;
    rdf:_5 <https://w3id.org/cdisc/cosmos/dss/SC/HIPRVIND/SCDTC> ;
    rdf:_6 <https://w3id.org/cdisc/cosmos/dss/SC/HIPRVIND/SCSTRESC> ;
    cosmos_sdtm:biomedicalConceptId NCIT:C209686 ;
    cosmos_sdtm:domain "SC" ;
    cosmos_sdtm:packageDate "2026-07-14"^^xsd:date ;
    cosmos_sdtm:packageType <https://www.cdisc.org/cosmos/sdtm_v1.0/PackageTypeEnum#sdtm> ;
    cosmos_sdtm:sdtmigStartVersion "3-2" ;
    cosmos_sdtm:shortName "Private Health Insurance Indicator" ;
    cosmos_sdtm:source "SC.SCTESTCD" ;
    cosmos_sdtm:variables <https://w3id.org/cdisc/cosmos/dss/SC/HIPRVIND/SCCAT>,
        <https://w3id.org/cdisc/cosmos/dss/SC/HIPRVIND/SCDTC>,
        <https://w3id.org/cdisc/cosmos/dss/SC/HIPRVIND/SCORRES>,
        <https://w3id.org/cdisc/cosmos/dss/SC/HIPRVIND/SCSTRESC>,
        <https://w3id.org/cdisc/cosmos/dss/SC/HIPRVIND/SCTEST>,
        <https://w3id.org/cdisc/cosmos/dss/SC/HIPRVIND/SCTESTCD> .

<https://w3id.org/cdisc/cosmos/dss/SC/HIVHRIND> a cosmos_sdtm:SDTMGroup ;
    dcterms:identifier "HIVHRIND" ;
    rdf:_1 <https://w3id.org/cdisc/cosmos/dss/SC/HIVHRIND/SCTESTCD> ;
    rdf:_2 <https://w3id.org/cdisc/cosmos/dss/SC/HIVHRIND/SCTEST> ;
    rdf:_3 <https://w3id.org/cdisc/cosmos/dss/SC/HIVHRIND/SCCAT> ;
    rdf:_4 <https://w3id.org/cdisc/cosmos/dss/SC/HIVHRIND/SCORRES> ;
    rdf:_5 <https://w3id.org/cdisc/cosmos/dss/SC/HIVHRIND/SCDTC> ;
    rdf:_6 <https://w3id.org/cdisc/cosmos/dss/SC/HIVHRIND/SCSTRESC> ;
    cosmos_sdtm:biomedicalConceptId NCIT:C139271 ;
    cosmos_sdtm:domain "SC" ;
    cosmos_sdtm:packageDate "2026-07-14"^^xsd:date ;
    cosmos_sdtm:packageType <https://www.cdisc.org/cosmos/sdtm_v1.0/PackageTypeEnum#sdtm> ;
    cosmos_sdtm:sdtmigStartVersion "3-2" ;
    cosmos_sdtm:shortName "CDC HIV High Risk Donor Indicator" ;
    cosmos_sdtm:source "SC.SCTESTCD" ;
    cosmos_sdtm:variables <https://w3id.org/cdisc/cosmos/dss/SC/HIVHRIND/SCCAT>,
        <https://w3id.org/cdisc/cosmos/dss/SC/HIVHRIND/SCDTC>,
        <https://w3id.org/cdisc/cosmos/dss/SC/HIVHRIND/SCORRES>,
        <https://w3id.org/cdisc/cosmos/dss/SC/HIVHRIND/SCSTRESC>,
        <https://w3id.org/cdisc/cosmos/dss/SC/HIVHRIND/SCTEST>,
        <https://w3id.org/cdisc/cosmos/dss/SC/HIVHRIND/SCTESTCD> .

<https://w3id.org/cdisc/cosmos/dss/SC/INCMLVL> a cosmos_sdtm:SDTMGroup ;
    dcterms:identifier "INCMLVL" ;
    rdf:_1 <https://w3id.org/cdisc/cosmos/dss/SC/INCMLVL/SCTESTCD> ;
    rdf:_2 <https://w3id.org/cdisc/cosmos/dss/SC/INCMLVL/SCTEST> ;
    rdf:_3 <https://w3id.org/cdisc/cosmos/dss/SC/INCMLVL/SCCAT> ;
    rdf:_4 <https://w3id.org/cdisc/cosmos/dss/SC/INCMLVL/SCORRES> ;
    rdf:_5 <https://w3id.org/cdisc/cosmos/dss/SC/INCMLVL/SCDTC> ;
    rdf:_6 <https://w3id.org/cdisc/cosmos/dss/SC/INCMLVL/SCSTRESC> ;
    cosmos_sdtm:biomedicalConceptId NCIT:C154890 ;
    cosmos_sdtm:domain "SC" ;
    cosmos_sdtm:packageDate "2026-07-14"^^xsd:date ;
    cosmos_sdtm:packageType <https://www.cdisc.org/cosmos/sdtm_v1.0/PackageTypeEnum#sdtm> ;
    cosmos_sdtm:sdtmigStartVersion "3-2" ;
    cosmos_sdtm:shortName "Income Level" ;
    cosmos_sdtm:source "SC.SCTESTCD" ;
    cosmos_sdtm:variables <https://w3id.org/cdisc/cosmos/dss/SC/INCMLVL/SCCAT>,
        <https://w3id.org/cdisc/cosmos/dss/SC/INCMLVL/SCDTC>,
        <https://w3id.org/cdisc/cosmos/dss/SC/INCMLVL/SCORRES>,
        <https://w3id.org/cdisc/cosmos/dss/SC/INCMLVL/SCSTRESC>,
        <https://w3id.org/cdisc/cosmos/dss/SC/INCMLVL/SCTEST>,
        <https://w3id.org/cdisc/cosmos/dss/SC/INCMLVL/SCTESTCD> .

<https://w3id.org/cdisc/cosmos/dss/SC/INL1YIND> a cosmos_sdtm:SDTMGroup ;
    dcterms:identifier "INL1YIND" ;
    rdf:_1 <https://w3id.org/cdisc/cosmos/dss/SC/INL1YIND/SCTESTCD> ;
    rdf:_2 <https://w3id.org/cdisc/cosmos/dss/SC/INL1YIND/SCTEST> ;
    rdf:_3 <https://w3id.org/cdisc/cosmos/dss/SC/INL1YIND/SCCAT> ;
    rdf:_4 <https://w3id.org/cdisc/cosmos/dss/SC/INL1YIND/SCORRES> ;
    rdf:_5 <https://w3id.org/cdisc/cosmos/dss/SC/INL1YIND/SCDTC> ;
    rdf:_6 <https://w3id.org/cdisc/cosmos/dss/SC/INL1YIND/SCSTRESC> ;
    cosmos_sdtm:biomedicalConceptId NCIT:C171513 ;
    cosmos_sdtm:domain "SC" ;
    cosmos_sdtm:packageDate "2026-07-14"^^xsd:date ;
    cosmos_sdtm:packageType <https://www.cdisc.org/cosmos/sdtm_v1.0/PackageTypeEnum#sdtm> ;
    cosmos_sdtm:sdtmigStartVersion "3-2" ;
    cosmos_sdtm:shortName "Infant Less Than One Year Indicator" ;
    cosmos_sdtm:source "SC.SCTESTCD" ;
    cosmos_sdtm:variables <https://w3id.org/cdisc/cosmos/dss/SC/INL1YIND/SCCAT>,
        <https://w3id.org/cdisc/cosmos/dss/SC/INL1YIND/SCDTC>,
        <https://w3id.org/cdisc/cosmos/dss/SC/INL1YIND/SCORRES>,
        <https://w3id.org/cdisc/cosmos/dss/SC/INL1YIND/SCSTRESC>,
        <https://w3id.org/cdisc/cosmos/dss/SC/INL1YIND/SCTEST>,
        <https://w3id.org/cdisc/cosmos/dss/SC/INL1YIND/SCTESTCD> .

<https://w3id.org/cdisc/cosmos/dss/SC/ISXDXIND> a cosmos_sdtm:SDTMGroup ;
    dcterms:identifier "ISXDXIND" ;
    rdf:_1 <https://w3id.org/cdisc/cosmos/dss/SC/ISXDXIND/SCTESTCD> ;
    rdf:_2 <https://w3id.org/cdisc/cosmos/dss/SC/ISXDXIND/SCTEST> ;
    rdf:_3 <https://w3id.org/cdisc/cosmos/dss/SC/ISXDXIND/SCCAT> ;
    rdf:_4 <https://w3id.org/cdisc/cosmos/dss/SC/ISXDXIND/SCORRES> ;
    rdf:_5 <https://w3id.org/cdisc/cosmos/dss/SC/ISXDXIND/SCDTC> ;
    rdf:_6 <https://w3id.org/cdisc/cosmos/dss/SC/ISXDXIND/SCSTRESC> ;
    cosmos_sdtm:biomedicalConceptId NCIT:C209687 ;
    cosmos_sdtm:domain "SC" ;
    cosmos_sdtm:packageDate "2026-07-14"^^xsd:date ;
    cosmos_sdtm:packageType <https://www.cdisc.org/cosmos/sdtm_v1.0/PackageTypeEnum#sdtm> ;
    cosmos_sdtm:sdtmigStartVersion "3-2" ;
    cosmos_sdtm:shortName "Intersex Diagnosis Indicator" ;
    cosmos_sdtm:source "SC.SCTESTCD" ;
    cosmos_sdtm:variables <https://w3id.org/cdisc/cosmos/dss/SC/ISXDXIND/SCCAT>,
        <https://w3id.org/cdisc/cosmos/dss/SC/ISXDXIND/SCDTC>,
        <https://w3id.org/cdisc/cosmos/dss/SC/ISXDXIND/SCORRES>,
        <https://w3id.org/cdisc/cosmos/dss/SC/ISXDXIND/SCSTRESC>,
        <https://w3id.org/cdisc/cosmos/dss/SC/ISXDXIND/SCTEST>,
        <https://w3id.org/cdisc/cosmos/dss/SC/ISXDXIND/SCTESTCD> .

<https://w3id.org/cdisc/cosmos/dss/SC/LNGSPP> a cosmos_sdtm:SDTMGroup ;
    dcterms:identifier "LNGSPP" ;
    rdf:_1 <https://w3id.org/cdisc/cosmos/dss/SC/LNGSPP/SCTESTCD> ;
    rdf:_2 <https://w3id.org/cdisc/cosmos/dss/SC/LNGSPP/SCTEST> ;
    rdf:_3 <https://w3id.org/cdisc/cosmos/dss/SC/LNGSPP/SCCAT> ;
    rdf:_4 <https://w3id.org/cdisc/cosmos/dss/SC/LNGSPP/SCORRES> ;
    rdf:_5 <https://w3id.org/cdisc/cosmos/dss/SC/LNGSPP/SCDTC> ;
    rdf:_6 <https://w3id.org/cdisc/cosmos/dss/SC/LNGSPP/SCSTRESC> ;
    cosmos_sdtm:biomedicalConceptId NCIT:C132459 ;
    cosmos_sdtm:domain "SC" ;
    cosmos_sdtm:packageDate "2026-07-14"^^xsd:date ;
    cosmos_sdtm:packageType <https://www.cdisc.org/cosmos/sdtm_v1.0/PackageTypeEnum#sdtm> ;
    cosmos_sdtm:sdtmigStartVersion "3-2" ;
    cosmos_sdtm:shortName "Primary Language Spoken" ;
    cosmos_sdtm:source "SC.SCTESTCD" ;
    cosmos_sdtm:variables <https://w3id.org/cdisc/cosmos/dss/SC/LNGSPP/SCCAT>,
        <https://w3id.org/cdisc/cosmos/dss/SC/LNGSPP/SCDTC>,
        <https://w3id.org/cdisc/cosmos/dss/SC/LNGSPP/SCORRES>,
        <https://w3id.org/cdisc/cosmos/dss/SC/LNGSPP/SCSTRESC>,
        <https://w3id.org/cdisc/cosmos/dss/SC/LNGSPP/SCTEST>,
        <https://w3id.org/cdisc/cosmos/dss/SC/LNGSPP/SCTESTCD> .

<https://w3id.org/cdisc/cosmos/dss/SC/LNGSPS> a cosmos_sdtm:SDTMGroup ;
    dcterms:identifier "LNGSPS" ;
    rdf:_1 <https://w3id.org/cdisc/cosmos/dss/SC/LNGSPS/SCTESTCD> ;
    rdf:_2 <https://w3id.org/cdisc/cosmos/dss/SC/LNGSPS/SCTEST> ;
    rdf:_3 <https://w3id.org/cdisc/cosmos/dss/SC/LNGSPS/SCCAT> ;
    rdf:_4 <https://w3id.org/cdisc/cosmos/dss/SC/LNGSPS/SCORRES> ;
    rdf:_5 <https://w3id.org/cdisc/cosmos/dss/SC/LNGSPS/SCDTC> ;
    rdf:_6 <https://w3id.org/cdisc/cosmos/dss/SC/LNGSPS/SCSTRESC> ;
    cosmos_sdtm:biomedicalConceptId NCIT:C132460 ;
    cosmos_sdtm:domain "SC" ;
    cosmos_sdtm:packageDate "2026-07-14"^^xsd:date ;
    cosmos_sdtm:packageType <https://www.cdisc.org/cosmos/sdtm_v1.0/PackageTypeEnum#sdtm> ;
    cosmos_sdtm:sdtmigStartVersion "3-2" ;
    cosmos_sdtm:shortName "Secondary Language Spoken" ;
    cosmos_sdtm:source "SC.SCTESTCD" ;
    cosmos_sdtm:variables <https://w3id.org/cdisc/cosmos/dss/SC/LNGSPS/SCCAT>,
        <https://w3id.org/cdisc/cosmos/dss/SC/LNGSPS/SCDTC>,
        <https://w3id.org/cdisc/cosmos/dss/SC/LNGSPS/SCORRES>,
        <https://w3id.org/cdisc/cosmos/dss/SC/LNGSPS/SCSTRESC>,
        <https://w3id.org/cdisc/cosmos/dss/SC/LNGSPS/SCTEST>,
        <https://w3id.org/cdisc/cosmos/dss/SC/LNGSPS/SCTESTCD> .

<https://w3id.org/cdisc/cosmos/dss/SC/LVSBJIND> a cosmos_sdtm:SDTMGroup ;
    dcterms:identifier "LVSBJIND" ;
    rdf:_1 <https://w3id.org/cdisc/cosmos/dss/SC/LVSBJIND/SCTESTCD> ;
    rdf:_2 <https://w3id.org/cdisc/cosmos/dss/SC/LVSBJIND/SCTEST> ;
    rdf:_3 <https://w3id.org/cdisc/cosmos/dss/SC/LVSBJIND/SCCAT> ;
    rdf:_4 <https://w3id.org/cdisc/cosmos/dss/SC/LVSBJIND/SCORRES> ;
    rdf:_5 <https://w3id.org/cdisc/cosmos/dss/SC/LVSBJIND/SCDTC> ;
    rdf:_6 <https://w3id.org/cdisc/cosmos/dss/SC/LVSBJIND/SCSTRESC> ;
    cosmos_sdtm:biomedicalConceptId NCIT:C135502 ;
    cosmos_sdtm:domain "SC" ;
    cosmos_sdtm:packageDate "2026-07-14"^^xsd:date ;
    cosmos_sdtm:packageType <https://www.cdisc.org/cosmos/sdtm_v1.0/PackageTypeEnum#sdtm> ;
    cosmos_sdtm:sdtmigStartVersion "3-2" ;
    cosmos_sdtm:shortName "Living with Subject Indicator" ;
    cosmos_sdtm:source "SC.SCTESTCD" ;
    cosmos_sdtm:variables <https://w3id.org/cdisc/cosmos/dss/SC/LVSBJIND/SCCAT>,
        <https://w3id.org/cdisc/cosmos/dss/SC/LVSBJIND/SCDTC>,
        <https://w3id.org/cdisc/cosmos/dss/SC/LVSBJIND/SCORRES>,
        <https://w3id.org/cdisc/cosmos/dss/SC/LVSBJIND/SCSTRESC>,
        <https://w3id.org/cdisc/cosmos/dss/SC/LVSBJIND/SCTEST>,
        <https://w3id.org/cdisc/cosmos/dss/SC/LVSBJIND/SCTESTCD> .

<https://w3id.org/cdisc/cosmos/dss/SC/MARISTAT> a cosmos_sdtm:SDTMGroup ;
    dcterms:identifier "MARISTAT" ;
    rdf:_1 <https://w3id.org/cdisc/cosmos/dss/SC/MARISTAT/SCTESTCD> ;
    rdf:_2 <https://w3id.org/cdisc/cosmos/dss/SC/MARISTAT/SCTEST> ;
    rdf:_3 <https://w3id.org/cdisc/cosmos/dss/SC/MARISTAT/SCCAT> ;
    rdf:_4 <https://w3id.org/cdisc/cosmos/dss/SC/MARISTAT/SCORRES> ;
    rdf:_5 <https://w3id.org/cdisc/cosmos/dss/SC/MARISTAT/SCDTC> ;
    rdf:_6 <https://w3id.org/cdisc/cosmos/dss/SC/MARISTAT/SCSTRESC> ;
    cosmos_sdtm:biomedicalConceptId NCIT:C25188 ;
    cosmos_sdtm:domain "SC" ;
    cosmos_sdtm:packageDate "2026-07-14"^^xsd:date ;
    cosmos_sdtm:packageType <https://www.cdisc.org/cosmos/sdtm_v1.0/PackageTypeEnum#sdtm> ;
    cosmos_sdtm:sdtmigStartVersion "3-2" ;
    cosmos_sdtm:shortName "Marital Status" ;
    cosmos_sdtm:source "SC.SCTESTCD" ;
    cosmos_sdtm:variables <https://w3id.org/cdisc/cosmos/dss/SC/MARISTAT/SCCAT>,
        <https://w3id.org/cdisc/cosmos/dss/SC/MARISTAT/SCDTC>,
        <https://w3id.org/cdisc/cosmos/dss/SC/MARISTAT/SCORRES>,
        <https://w3id.org/cdisc/cosmos/dss/SC/MARISTAT/SCSTRESC>,
        <https://w3id.org/cdisc/cosmos/dss/SC/MARISTAT/SCTEST>,
        <https://w3id.org/cdisc/cosmos/dss/SC/MARISTAT/SCTESTCD> .

<https://w3id.org/cdisc/cosmos/dss/SC/MDCDIND> a cosmos_sdtm:SDTMGroup ;
    dcterms:identifier "MDCDIND" ;
    rdf:_1 <https://w3id.org/cdisc/cosmos/dss/SC/MDCDIND/SCTESTCD> ;
    rdf:_2 <https://w3id.org/cdisc/cosmos/dss/SC/MDCDIND/SCTEST> ;
    rdf:_3 <https://w3id.org/cdisc/cosmos/dss/SC/MDCDIND/SCCAT> ;
    rdf:_4 <https://w3id.org/cdisc/cosmos/dss/SC/MDCDIND/SCORRES> ;
    rdf:_5 <https://w3id.org/cdisc/cosmos/dss/SC/MDCDIND/SCDTC> ;
    rdf:_6 <https://w3id.org/cdisc/cosmos/dss/SC/MDCDIND/SCSTRESC> ;
    cosmos_sdtm:biomedicalConceptId NCIT:C209688 ;
    cosmos_sdtm:domain "SC" ;
    cosmos_sdtm:packageDate "2026-07-14"^^xsd:date ;
    cosmos_sdtm:packageType <https://www.cdisc.org/cosmos/sdtm_v1.0/PackageTypeEnum#sdtm> ;
    cosmos_sdtm:sdtmigStartVersion "3-2" ;
    cosmos_sdtm:shortName "Medicaid Indicator" ;
    cosmos_sdtm:source "SC.SCTESTCD" ;
    cosmos_sdtm:variables <https://w3id.org/cdisc/cosmos/dss/SC/MDCDIND/SCCAT>,
        <https://w3id.org/cdisc/cosmos/dss/SC/MDCDIND/SCDTC>,
        <https://w3id.org/cdisc/cosmos/dss/SC/MDCDIND/SCORRES>,
        <https://w3id.org/cdisc/cosmos/dss/SC/MDCDIND/SCSTRESC>,
        <https://w3id.org/cdisc/cosmos/dss/SC/MDCDIND/SCTEST>,
        <https://w3id.org/cdisc/cosmos/dss/SC/MDCDIND/SCTESTCD> .

<https://w3id.org/cdisc/cosmos/dss/SC/MDCRIND> a cosmos_sdtm:SDTMGroup ;
    dcterms:identifier "MDCRIND" ;
    rdf:_1 <https://w3id.org/cdisc/cosmos/dss/SC/MDCRIND/SCTESTCD> ;
    rdf:_2 <https://w3id.org/cdisc/cosmos/dss/SC/MDCRIND/SCTEST> ;
    rdf:_3 <https://w3id.org/cdisc/cosmos/dss/SC/MDCRIND/SCCAT> ;
    rdf:_4 <https://w3id.org/cdisc/cosmos/dss/SC/MDCRIND/SCORRES> ;
    rdf:_5 <https://w3id.org/cdisc/cosmos/dss/SC/MDCRIND/SCDTC> ;
    rdf:_6 <https://w3id.org/cdisc/cosmos/dss/SC/MDCRIND/SCSTRESC> ;
    cosmos_sdtm:biomedicalConceptId NCIT:C209689 ;
    cosmos_sdtm:domain "SC" ;
    cosmos_sdtm:packageDate "2026-07-14"^^xsd:date ;
    cosmos_sdtm:packageType <https://www.cdisc.org/cosmos/sdtm_v1.0/PackageTypeEnum#sdtm> ;
    cosmos_sdtm:sdtmigStartVersion "3-2" ;
    cosmos_sdtm:shortName "Medicare Indicator" ;
    cosmos_sdtm:source "SC.SCTESTCD" ;
    cosmos_sdtm:variables <https://w3id.org/cdisc/cosmos/dss/SC/MDCRIND/SCCAT>,
        <https://w3id.org/cdisc/cosmos/dss/SC/MDCRIND/SCDTC>,
        <https://w3id.org/cdisc/cosmos/dss/SC/MDCRIND/SCORRES>,
        <https://w3id.org/cdisc/cosmos/dss/SC/MDCRIND/SCSTRESC>,
        <https://w3id.org/cdisc/cosmos/dss/SC/MDCRIND/SCTEST>,
        <https://w3id.org/cdisc/cosmos/dss/SC/MDCRIND/SCTESTCD> .

<https://w3id.org/cdisc/cosmos/dss/SC/MILTSTAT> a cosmos_sdtm:SDTMGroup ;
    dcterms:identifier "MILTSTAT" ;
    rdf:_1 <https://w3id.org/cdisc/cosmos/dss/SC/MILTSTAT/SCTESTCD> ;
    rdf:_2 <https://w3id.org/cdisc/cosmos/dss/SC/MILTSTAT/SCTEST> ;
    rdf:_3 <https://w3id.org/cdisc/cosmos/dss/SC/MILTSTAT/SCCAT> ;
    rdf:_4 <https://w3id.org/cdisc/cosmos/dss/SC/MILTSTAT/SCORRES> ;
    rdf:_5 <https://w3id.org/cdisc/cosmos/dss/SC/MILTSTAT/SCDTC> ;
    rdf:_6 <https://w3id.org/cdisc/cosmos/dss/SC/MILTSTAT/SCSTRESC> ;
    cosmos_sdtm:biomedicalConceptId NCIT:C171085 ;
    cosmos_sdtm:domain "SC" ;
    cosmos_sdtm:packageDate "2026-07-14"^^xsd:date ;
    cosmos_sdtm:packageType <https://www.cdisc.org/cosmos/sdtm_v1.0/PackageTypeEnum#sdtm> ;
    cosmos_sdtm:sdtmigStartVersion "3-2" ;
    cosmos_sdtm:shortName "Military Status" ;
    cosmos_sdtm:source "SC.SCTESTCD" ;
    cosmos_sdtm:variables <https://w3id.org/cdisc/cosmos/dss/SC/MILTSTAT/SCCAT>,
        <https://w3id.org/cdisc/cosmos/dss/SC/MILTSTAT/SCDTC>,
        <https://w3id.org/cdisc/cosmos/dss/SC/MILTSTAT/SCORRES>,
        <https://w3id.org/cdisc/cosmos/dss/SC/MILTSTAT/SCSTRESC>,
        <https://w3id.org/cdisc/cosmos/dss/SC/MILTSTAT/SCTEST>,
        <https://w3id.org/cdisc/cosmos/dss/SC/MILTSTAT/SCTESTCD> .

<https://w3id.org/cdisc/cosmos/dss/SC/NATORIG> a cosmos_sdtm:SDTMGroup ;
    dcterms:identifier "NATORIG" ;
    rdf:_1 <https://w3id.org/cdisc/cosmos/dss/SC/NATORIG/SCTESTCD> ;
    rdf:_2 <https://w3id.org/cdisc/cosmos/dss/SC/NATORIG/SCTEST> ;
    rdf:_3 <https://w3id.org/cdisc/cosmos/dss/SC/NATORIG/SCCAT> ;
    rdf:_4 <https://w3id.org/cdisc/cosmos/dss/SC/NATORIG/SCORRES> ;
    rdf:_5 <https://w3id.org/cdisc/cosmos/dss/SC/NATORIG/SCDTC> ;
    rdf:_6 <https://w3id.org/cdisc/cosmos/dss/SC/NATORIG/SCSTRESC> ;
    cosmos_sdtm:biomedicalConceptId NCIT:C28407 ;
    cosmos_sdtm:domain "SC" ;
    cosmos_sdtm:packageDate "2026-07-14"^^xsd:date ;
    cosmos_sdtm:packageType <https://www.cdisc.org/cosmos/sdtm_v1.0/PackageTypeEnum#sdtm> ;
    cosmos_sdtm:sdtmigStartVersion "3-2" ;
    cosmos_sdtm:shortName "National Origin" ;
    cosmos_sdtm:source "SC.SCTESTCD" ;
    cosmos_sdtm:variables <https://w3id.org/cdisc/cosmos/dss/SC/NATORIG/SCCAT>,
        <https://w3id.org/cdisc/cosmos/dss/SC/NATORIG/SCDTC>,
        <https://w3id.org/cdisc/cosmos/dss/SC/NATORIG/SCORRES>,
        <https://w3id.org/cdisc/cosmos/dss/SC/NATORIG/SCSTRESC>,
        <https://w3id.org/cdisc/cosmos/dss/SC/NATORIG/SCTEST>,
        <https://w3id.org/cdisc/cosmos/dss/SC/NATORIG/SCTESTCD> .

<https://w3id.org/cdisc/cosmos/dss/SC/OCUPINDS> a cosmos_sdtm:SDTMGroup ;
    dcterms:identifier "OCUPINDS" ;
    rdf:_1 <https://w3id.org/cdisc/cosmos/dss/SC/OCUPINDS/SCTESTCD> ;
    rdf:_2 <https://w3id.org/cdisc/cosmos/dss/SC/OCUPINDS/SCTEST> ;
    rdf:_3 <https://w3id.org/cdisc/cosmos/dss/SC/OCUPINDS/SCCAT> ;
    rdf:_4 <https://w3id.org/cdisc/cosmos/dss/SC/OCUPINDS/SCORRES> ;
    rdf:_5 <https://w3id.org/cdisc/cosmos/dss/SC/OCUPINDS/SCDTC> ;
    rdf:_6 <https://w3id.org/cdisc/cosmos/dss/SC/OCUPINDS/SCSTRESC> ;
    cosmos_sdtm:biomedicalConceptId NCIT:C209690 ;
    cosmos_sdtm:domain "SC" ;
    cosmos_sdtm:packageDate "2026-07-14"^^xsd:date ;
    cosmos_sdtm:packageType <https://www.cdisc.org/cosmos/sdtm_v1.0/PackageTypeEnum#sdtm> ;
    cosmos_sdtm:sdtmigStartVersion "3-2" ;
    cosmos_sdtm:shortName "Occupational Industry" ;
    cosmos_sdtm:source "SC.SCTESTCD" ;
    cosmos_sdtm:variables <https://w3id.org/cdisc/cosmos/dss/SC/OCUPINDS/SCCAT>,
        <https://w3id.org/cdisc/cosmos/dss/SC/OCUPINDS/SCDTC>,
        <https://w3id.org/cdisc/cosmos/dss/SC/OCUPINDS/SCORRES>,
        <https://w3id.org/cdisc/cosmos/dss/SC/OCUPINDS/SCSTRESC>,
        <https://w3id.org/cdisc/cosmos/dss/SC/OCUPINDS/SCTEST>,
        <https://w3id.org/cdisc/cosmos/dss/SC/OCUPINDS/SCTESTCD> .

<https://w3id.org/cdisc/cosmos/dss/SC/PHYACLFS> a cosmos_sdtm:SDTMGroup ;
    dcterms:identifier "PHYACLFS" ;
    rdf:_1 <https://w3id.org/cdisc/cosmos/dss/SC/PHYACLFS/SCTESTCD> ;
    rdf:_2 <https://w3id.org/cdisc/cosmos/dss/SC/PHYACLFS/SCTEST> ;
    rdf:_3 <https://w3id.org/cdisc/cosmos/dss/SC/PHYACLFS/SCCAT> ;
    rdf:_4 <https://w3id.org/cdisc/cosmos/dss/SC/PHYACLFS/SCORRES> ;
    rdf:_5 <https://w3id.org/cdisc/cosmos/dss/SC/PHYACLFS/SCDTC> ;
    rdf:_6 <https://w3id.org/cdisc/cosmos/dss/SC/PHYACLFS/SCSTRESC> ;
    cosmos_sdtm:biomedicalConceptId NCIT:C179818 ;
    cosmos_sdtm:domain "SC" ;
    cosmos_sdtm:packageDate "2026-07-14"^^xsd:date ;
    cosmos_sdtm:packageType <https://www.cdisc.org/cosmos/sdtm_v1.0/PackageTypeEnum#sdtm> ;
    cosmos_sdtm:sdtmigStartVersion "3-2" ;
    cosmos_sdtm:shortName "Physical Activity Lifestyle" ;
    cosmos_sdtm:source "SC.SCTESTCD" ;
    cosmos_sdtm:variables <https://w3id.org/cdisc/cosmos/dss/SC/PHYACLFS/SCCAT>,
        <https://w3id.org/cdisc/cosmos/dss/SC/PHYACLFS/SCDTC>,
        <https://w3id.org/cdisc/cosmos/dss/SC/PHYACLFS/SCORRES>,
        <https://w3id.org/cdisc/cosmos/dss/SC/PHYACLFS/SCSTRESC>,
        <https://w3id.org/cdisc/cosmos/dss/SC/PHYACLFS/SCTEST>,
        <https://w3id.org/cdisc/cosmos/dss/SC/PHYACLFS/SCTESTCD> .

<https://w3id.org/cdisc/cosmos/dss/SC/PPLHSHN> a cosmos_sdtm:SDTMGroup ;
    dcterms:identifier "PPLHSHN" ;
    rdf:_1 <https://w3id.org/cdisc/cosmos/dss/SC/PPLHSHN/SCTESTCD> ;
    rdf:_2 <https://w3id.org/cdisc/cosmos/dss/SC/PPLHSHN/SCTEST> ;
    rdf:_3 <https://w3id.org/cdisc/cosmos/dss/SC/PPLHSHN/SCCAT> ;
    rdf:_4 <https://w3id.org/cdisc/cosmos/dss/SC/PPLHSHN/SCORRES> ;
    rdf:_5 <https://w3id.org/cdisc/cosmos/dss/SC/PPLHSHN/SCDTC> ;
    rdf:_6 <https://w3id.org/cdisc/cosmos/dss/SC/PPLHSHN/SCSTRESC> ;
    rdf:_7 <https://w3id.org/cdisc/cosmos/dss/SC/PPLHSHN/SCSTRESN> ;
    cosmos_sdtm:biomedicalConceptId NCIT:C198363 ;
    cosmos_sdtm:domain "SC" ;
    cosmos_sdtm:packageDate "2026-07-14"^^xsd:date ;
    cosmos_sdtm:packageType <https://www.cdisc.org/cosmos/sdtm_v1.0/PackageTypeEnum#sdtm> ;
    cosmos_sdtm:sdtmigStartVersion "3-2" ;
    cosmos_sdtm:shortName "Number of People in Household" ;
    cosmos_sdtm:source "SC.SCTESTCD" ;
    cosmos_sdtm:variables <https://w3id.org/cdisc/cosmos/dss/SC/PPLHSHN/SCCAT>,
        <https://w3id.org/cdisc/cosmos/dss/SC/PPLHSHN/SCDTC>,
        <https://w3id.org/cdisc/cosmos/dss/SC/PPLHSHN/SCORRES>,
        <https://w3id.org/cdisc/cosmos/dss/SC/PPLHSHN/SCSTRESC>,
        <https://w3id.org/cdisc/cosmos/dss/SC/PPLHSHN/SCSTRESN>,
        <https://w3id.org/cdisc/cosmos/dss/SC/PPLHSHN/SCTEST>,
        <https://w3id.org/cdisc/cosmos/dss/SC/PPLHSHN/SCTESTCD> .

<https://w3id.org/cdisc/cosmos/dss/SC/PREMBRTH> a cosmos_sdtm:SDTMGroup ;
    dcterms:identifier "PREMBRTH" ;
    rdf:_1 <https://w3id.org/cdisc/cosmos/dss/SC/PREMBRTH/SCTESTCD> ;
    rdf:_2 <https://w3id.org/cdisc/cosmos/dss/SC/PREMBRTH/SCTEST> ;
    rdf:_3 <https://w3id.org/cdisc/cosmos/dss/SC/PREMBRTH/SCCAT> ;
    rdf:_4 <https://w3id.org/cdisc/cosmos/dss/SC/PREMBRTH/SCORRES> ;
    rdf:_5 <https://w3id.org/cdisc/cosmos/dss/SC/PREMBRTH/SCDTC> ;
    rdf:_6 <https://w3id.org/cdisc/cosmos/dss/SC/PREMBRTH/SCSTRESC> ;
    cosmos_sdtm:biomedicalConceptId NCIT:C112400 ;
    cosmos_sdtm:domain "SC" ;
    cosmos_sdtm:packageDate "2026-07-14"^^xsd:date ;
    cosmos_sdtm:packageType <https://www.cdisc.org/cosmos/sdtm_v1.0/PackageTypeEnum#sdtm> ;
    cosmos_sdtm:sdtmigStartVersion "3-2" ;
    cosmos_sdtm:shortName "Premature Birth Indicator" ;
    cosmos_sdtm:source "SC.SCTESTCD" ;
    cosmos_sdtm:variables <https://w3id.org/cdisc/cosmos/dss/SC/PREMBRTH/SCCAT>,
        <https://w3id.org/cdisc/cosmos/dss/SC/PREMBRTH/SCDTC>,
        <https://w3id.org/cdisc/cosmos/dss/SC/PREMBRTH/SCORRES>,
        <https://w3id.org/cdisc/cosmos/dss/SC/PREMBRTH/SCSTRESC>,
        <https://w3id.org/cdisc/cosmos/dss/SC/PREMBRTH/SCTEST>,
        <https://w3id.org/cdisc/cosmos/dss/SC/PREMBRTH/SCTESTCD> .

<https://w3id.org/cdisc/cosmos/dss/SC/PRICON> a cosmos_sdtm:SDTMGroup ;
    dcterms:identifier "PRICON" ;
    rdf:_1 <https://w3id.org/cdisc/cosmos/dss/SC/PRICON/SCTESTCD> ;
    rdf:_2 <https://w3id.org/cdisc/cosmos/dss/SC/PRICON/SCTEST> ;
    rdf:_3 <https://w3id.org/cdisc/cosmos/dss/SC/PRICON/SCCAT> ;
    rdf:_4 <https://w3id.org/cdisc/cosmos/dss/SC/PRICON/SCORRES> ;
    rdf:_5 <https://w3id.org/cdisc/cosmos/dss/SC/PRICON/SCDTC> ;
    rdf:_6 <https://w3id.org/cdisc/cosmos/dss/SC/PRICON/SCSTRESC> ;
    cosmos_sdtm:biomedicalConceptId NCIT:C102699 ;
    cosmos_sdtm:domain "SC" ;
    cosmos_sdtm:packageDate "2026-07-14"^^xsd:date ;
    cosmos_sdtm:packageType <https://www.cdisc.org/cosmos/sdtm_v1.0/PackageTypeEnum#sdtm> ;
    cosmos_sdtm:sdtmigStartVersion "3-2" ;
    cosmos_sdtm:shortName "Priority of Disease Contact" ;
    cosmos_sdtm:source "SC.SCTESTCD" ;
    cosmos_sdtm:variables <https://w3id.org/cdisc/cosmos/dss/SC/PRICON/SCCAT>,
        <https://w3id.org/cdisc/cosmos/dss/SC/PRICON/SCDTC>,
        <https://w3id.org/cdisc/cosmos/dss/SC/PRICON/SCORRES>,
        <https://w3id.org/cdisc/cosmos/dss/SC/PRICON/SCSTRESC>,
        <https://w3id.org/cdisc/cosmos/dss/SC/PRICON/SCTEST>,
        <https://w3id.org/cdisc/cosmos/dss/SC/PRICON/SCTESTCD> .

<https://w3id.org/cdisc/cosmos/dss/SC/RISKPOP> a cosmos_sdtm:SDTMGroup ;
    dcterms:identifier "RISKPOP" ;
    rdf:_1 <https://w3id.org/cdisc/cosmos/dss/SC/RISKPOP/SCTESTCD> ;
    rdf:_2 <https://w3id.org/cdisc/cosmos/dss/SC/RISKPOP/SCTEST> ;
    rdf:_3 <https://w3id.org/cdisc/cosmos/dss/SC/RISKPOP/SCCAT> ;
    rdf:_4 <https://w3id.org/cdisc/cosmos/dss/SC/RISKPOP/SCORRES> ;
    rdf:_5 <https://w3id.org/cdisc/cosmos/dss/SC/RISKPOP/SCDTC> ;
    rdf:_6 <https://w3id.org/cdisc/cosmos/dss/SC/RISKPOP/SCSTRESC> ;
    cosmos_sdtm:biomedicalConceptId NCIT:C102666 ;
    cosmos_sdtm:domain "SC" ;
    cosmos_sdtm:packageDate "2026-07-14"^^xsd:date ;
    cosmos_sdtm:packageType <https://www.cdisc.org/cosmos/sdtm_v1.0/PackageTypeEnum#sdtm> ;
    cosmos_sdtm:sdtmigStartVersion "3-2" ;
    cosmos_sdtm:shortName "Member of High Risk Population" ;
    cosmos_sdtm:source "SC.SCTESTCD" ;
    cosmos_sdtm:variables <https://w3id.org/cdisc/cosmos/dss/SC/RISKPOP/SCCAT>,
        <https://w3id.org/cdisc/cosmos/dss/SC/RISKPOP/SCDTC>,
        <https://w3id.org/cdisc/cosmos/dss/SC/RISKPOP/SCORRES>,
        <https://w3id.org/cdisc/cosmos/dss/SC/RISKPOP/SCSTRESC>,
        <https://w3id.org/cdisc/cosmos/dss/SC/RISKPOP/SCTEST>,
        <https://w3id.org/cdisc/cosmos/dss/SC/RISKPOP/SCTESTCD> .

<https://w3id.org/cdisc/cosmos/dss/SC/RISKSOC> a cosmos_sdtm:SDTMGroup ;
    dcterms:identifier "RISKSOC" ;
    rdf:_1 <https://w3id.org/cdisc/cosmos/dss/SC/RISKSOC/SCTESTCD> ;
    rdf:_2 <https://w3id.org/cdisc/cosmos/dss/SC/RISKSOC/SCTEST> ;
    rdf:_3 <https://w3id.org/cdisc/cosmos/dss/SC/RISKSOC/SCCAT> ;
    rdf:_4 <https://w3id.org/cdisc/cosmos/dss/SC/RISKSOC/SCORRES> ;
    rdf:_5 <https://w3id.org/cdisc/cosmos/dss/SC/RISKSOC/SCDTC> ;
    rdf:_6 <https://w3id.org/cdisc/cosmos/dss/SC/RISKSOC/SCSTRESC> ;
    cosmos_sdtm:biomedicalConceptId NCIT:C102711 ;
    cosmos_sdtm:domain "SC" ;
    cosmos_sdtm:packageDate "2026-07-14"^^xsd:date ;
    cosmos_sdtm:packageType <https://www.cdisc.org/cosmos/sdtm_v1.0/PackageTypeEnum#sdtm> ;
    cosmos_sdtm:sdtmigStartVersion "3-2" ;
    cosmos_sdtm:shortName "Social Risk Factor" ;
    cosmos_sdtm:source "SC.SCTESTCD" ;
    cosmos_sdtm:variables <https://w3id.org/cdisc/cosmos/dss/SC/RISKSOC/SCCAT>,
        <https://w3id.org/cdisc/cosmos/dss/SC/RISKSOC/SCDTC>,
        <https://w3id.org/cdisc/cosmos/dss/SC/RISKSOC/SCORRES>,
        <https://w3id.org/cdisc/cosmos/dss/SC/RISKSOC/SCSTRESC>,
        <https://w3id.org/cdisc/cosmos/dss/SC/RISKSOC/SCTEST>,
        <https://w3id.org/cdisc/cosmos/dss/SC/RISKSOC/SCTESTCD> .

<https://w3id.org/cdisc/cosmos/dss/SC/SALTYP> a cosmos_sdtm:SDTMGroup ;
    dcterms:identifier "SALTYP" ;
    rdf:_1 <https://w3id.org/cdisc/cosmos/dss/SC/SALTYP/SCTESTCD> ;
    rdf:_2 <https://w3id.org/cdisc/cosmos/dss/SC/SALTYP/SCTEST> ;
    rdf:_3 <https://w3id.org/cdisc/cosmos/dss/SC/SALTYP/SCCAT> ;
    rdf:_4 <https://w3id.org/cdisc/cosmos/dss/SC/SALTYP/SCORRES> ;
    rdf:_5 <https://w3id.org/cdisc/cosmos/dss/SC/SALTYP/SCDTC> ;
    rdf:_6 <https://w3id.org/cdisc/cosmos/dss/SC/SALTYP/SCSTRESC> ;
    cosmos_sdtm:biomedicalConceptId NCIT:C74566 ;
    cosmos_sdtm:domain "SC" ;
    cosmos_sdtm:packageDate "2026-07-14"^^xsd:date ;
    cosmos_sdtm:packageType <https://www.cdisc.org/cosmos/sdtm_v1.0/PackageTypeEnum#sdtm> ;
    cosmos_sdtm:sdtmigStartVersion "3-2" ;
    cosmos_sdtm:shortName "Employee Salary Type" ;
    cosmos_sdtm:source "SC.SCTESTCD" ;
    cosmos_sdtm:variables <https://w3id.org/cdisc/cosmos/dss/SC/SALTYP/SCCAT>,
        <https://w3id.org/cdisc/cosmos/dss/SC/SALTYP/SCDTC>,
        <https://w3id.org/cdisc/cosmos/dss/SC/SALTYP/SCORRES>,
        <https://w3id.org/cdisc/cosmos/dss/SC/SALTYP/SCSTRESC>,
        <https://w3id.org/cdisc/cosmos/dss/SC/SALTYP/SCTEST>,
        <https://w3id.org/cdisc/cosmos/dss/SC/SALTYP/SCTESTCD> .

<https://w3id.org/cdisc/cosmos/dss/SC/SETCON> a cosmos_sdtm:SDTMGroup ;
    dcterms:identifier "SETCON" ;
    rdf:_1 <https://w3id.org/cdisc/cosmos/dss/SC/SETCON/SCTESTCD> ;
    rdf:_2 <https://w3id.org/cdisc/cosmos/dss/SC/SETCON/SCTEST> ;
    rdf:_3 <https://w3id.org/cdisc/cosmos/dss/SC/SETCON/SCCAT> ;
    rdf:_4 <https://w3id.org/cdisc/cosmos/dss/SC/SETCON/SCORRES> ;
    rdf:_5 <https://w3id.org/cdisc/cosmos/dss/SC/SETCON/SCDTC> ;
    rdf:_6 <https://w3id.org/cdisc/cosmos/dss/SC/SETCON/SCSTRESC> ;
    cosmos_sdtm:biomedicalConceptId NCIT:C102708 ;
    cosmos_sdtm:domain "SC" ;
    cosmos_sdtm:packageDate "2026-07-14"^^xsd:date ;
    cosmos_sdtm:packageType <https://www.cdisc.org/cosmos/sdtm_v1.0/PackageTypeEnum#sdtm> ;
    cosmos_sdtm:sdtmigStartVersion "3-2" ;
    cosmos_sdtm:shortName "Setting of Contact" ;
    cosmos_sdtm:source "SC.SCTESTCD" ;
    cosmos_sdtm:variables <https://w3id.org/cdisc/cosmos/dss/SC/SETCON/SCCAT>,
        <https://w3id.org/cdisc/cosmos/dss/SC/SETCON/SCDTC>,
        <https://w3id.org/cdisc/cosmos/dss/SC/SETCON/SCORRES>,
        <https://w3id.org/cdisc/cosmos/dss/SC/SETCON/SCSTRESC>,
        <https://w3id.org/cdisc/cosmos/dss/SC/SETCON/SCTEST>,
        <https://w3id.org/cdisc/cosmos/dss/SC/SETCON/SCTESTCD> .

<https://w3id.org/cdisc/cosmos/dss/SC/SEXABRTH> a cosmos_sdtm:SDTMGroup ;
    dcterms:identifier "SEXABRTH" ;
    rdf:_1 <https://w3id.org/cdisc/cosmos/dss/SC/SEXABRTH/SCTESTCD> ;
    rdf:_2 <https://w3id.org/cdisc/cosmos/dss/SC/SEXABRTH/SCTEST> ;
    rdf:_3 <https://w3id.org/cdisc/cosmos/dss/SC/SEXABRTH/SCCAT> ;
    rdf:_4 <https://w3id.org/cdisc/cosmos/dss/SC/SEXABRTH/SCORRES> ;
    rdf:_5 <https://w3id.org/cdisc/cosmos/dss/SC/SEXABRTH/SCDTC> ;
    rdf:_6 <https://w3id.org/cdisc/cosmos/dss/SC/SEXABRTH/SCSTRESC> ;
    cosmos_sdtm:biomedicalConceptId NCIT:C205472 ;
    cosmos_sdtm:domain "SC" ;
    cosmos_sdtm:packageDate "2026-07-14"^^xsd:date ;
    cosmos_sdtm:packageType <https://www.cdisc.org/cosmos/sdtm_v1.0/PackageTypeEnum#sdtm> ;
    cosmos_sdtm:sdtmigStartVersion "3-2" ;
    cosmos_sdtm:shortName "Sex Assigned at Birth" ;
    cosmos_sdtm:source "SC.SCTESTCD" ;
    cosmos_sdtm:variables <https://w3id.org/cdisc/cosmos/dss/SC/SEXABRTH/SCCAT>,
        <https://w3id.org/cdisc/cosmos/dss/SC/SEXABRTH/SCDTC>,
        <https://w3id.org/cdisc/cosmos/dss/SC/SEXABRTH/SCORRES>,
        <https://w3id.org/cdisc/cosmos/dss/SC/SEXABRTH/SCSTRESC>,
        <https://w3id.org/cdisc/cosmos/dss/SC/SEXABRTH/SCTEST>,
        <https://w3id.org/cdisc/cosmos/dss/SC/SEXABRTH/SCTESTCD> .

<https://w3id.org/cdisc/cosmos/dss/SC/SEXORIE> a cosmos_sdtm:SDTMGroup ;
    dcterms:identifier "SEXORIE" ;
    rdf:_1 <https://w3id.org/cdisc/cosmos/dss/SC/SEXORIE/SCTESTCD> ;
    rdf:_2 <https://w3id.org/cdisc/cosmos/dss/SC/SEXORIE/SCTEST> ;
    rdf:_3 <https://w3id.org/cdisc/cosmos/dss/SC/SEXORIE/SCCAT> ;
    rdf:_4 <https://w3id.org/cdisc/cosmos/dss/SC/SEXORIE/SCORRES> ;
    rdf:_5 <https://w3id.org/cdisc/cosmos/dss/SC/SEXORIE/SCDTC> ;
    rdf:_6 <https://w3id.org/cdisc/cosmos/dss/SC/SEXORIE/SCSTRESC> ;
    cosmos_sdtm:biomedicalConceptId NCIT:C84361 ;
    cosmos_sdtm:domain "SC" ;
    cosmos_sdtm:packageDate "2026-07-14"^^xsd:date ;
    cosmos_sdtm:packageType <https://www.cdisc.org/cosmos/sdtm_v1.0/PackageTypeEnum#sdtm> ;
    cosmos_sdtm:sdtmigStartVersion "3-2" ;
    cosmos_sdtm:shortName "Sexual Orientation" ;
    cosmos_sdtm:source "SC.SCTESTCD" ;
    cosmos_sdtm:variables <https://w3id.org/cdisc/cosmos/dss/SC/SEXORIE/SCCAT>,
        <https://w3id.org/cdisc/cosmos/dss/SC/SEXORIE/SCDTC>,
        <https://w3id.org/cdisc/cosmos/dss/SC/SEXORIE/SCORRES>,
        <https://w3id.org/cdisc/cosmos/dss/SC/SEXORIE/SCSTRESC>,
        <https://w3id.org/cdisc/cosmos/dss/SC/SEXORIE/SCTEST>,
        <https://w3id.org/cdisc/cosmos/dss/SC/SEXORIE/SCTESTCD> .

<https://w3id.org/cdisc/cosmos/dss/SC/SKINCLAS> a cosmos_sdtm:SDTMGroup ;
    dcterms:identifier "SKINCLAS" ;
    rdf:_1 <https://w3id.org/cdisc/cosmos/dss/SC/SKINCLAS/SCTESTCD> ;
    rdf:_2 <https://w3id.org/cdisc/cosmos/dss/SC/SKINCLAS/SCTEST> ;
    rdf:_3 <https://w3id.org/cdisc/cosmos/dss/SC/SKINCLAS/SCCAT> ;
    rdf:_4 <https://w3id.org/cdisc/cosmos/dss/SC/SKINCLAS/SCORRES> ;
    rdf:_5 <https://w3id.org/cdisc/cosmos/dss/SC/SKINCLAS/SCDTC> ;
    rdf:_6 <https://w3id.org/cdisc/cosmos/dss/SC/SKINCLAS/SCSTRESC> ;
    cosmos_sdtm:biomedicalConceptId NCIT:C74563 ;
    cosmos_sdtm:domain "SC" ;
    cosmos_sdtm:packageDate "2026-07-14"^^xsd:date ;
    cosmos_sdtm:packageType <https://www.cdisc.org/cosmos/sdtm_v1.0/PackageTypeEnum#sdtm> ;
    cosmos_sdtm:sdtmigStartVersion "3-2" ;
    cosmos_sdtm:shortName "Skin Classification" ;
    cosmos_sdtm:source "SC.SCTESTCD" ;
    cosmos_sdtm:variables <https://w3id.org/cdisc/cosmos/dss/SC/SKINCLAS/SCCAT>,
        <https://w3id.org/cdisc/cosmos/dss/SC/SKINCLAS/SCDTC>,
        <https://w3id.org/cdisc/cosmos/dss/SC/SKINCLAS/SCORRES>,
        <https://w3id.org/cdisc/cosmos/dss/SC/SKINCLAS/SCSTRESC>,
        <https://w3id.org/cdisc/cosmos/dss/SC/SKINCLAS/SCTEST>,
        <https://w3id.org/cdisc/cosmos/dss/SC/SKINCLAS/SCTESTCD> .

<https://w3id.org/cdisc/cosmos/dss/SC/SMGAIND> a cosmos_sdtm:SDTMGroup ;
    dcterms:identifier "SMGAIND" ;
    rdf:_1 <https://w3id.org/cdisc/cosmos/dss/SC/SMGAIND/SCTESTCD> ;
    rdf:_2 <https://w3id.org/cdisc/cosmos/dss/SC/SMGAIND/SCTEST> ;
    rdf:_3 <https://w3id.org/cdisc/cosmos/dss/SC/SMGAIND/SCCAT> ;
    rdf:_4 <https://w3id.org/cdisc/cosmos/dss/SC/SMGAIND/SCORRES> ;
    rdf:_5 <https://w3id.org/cdisc/cosmos/dss/SC/SMGAIND/SCDTC> ;
    rdf:_6 <https://w3id.org/cdisc/cosmos/dss/SC/SMGAIND/SCSTRESC> ;
    cosmos_sdtm:biomedicalConceptId NCIT:C156662 ;
    cosmos_sdtm:domain "SC" ;
    cosmos_sdtm:packageDate "2026-07-14"^^xsd:date ;
    cosmos_sdtm:packageType <https://www.cdisc.org/cosmos/sdtm_v1.0/PackageTypeEnum#sdtm> ;
    cosmos_sdtm:sdtmigStartVersion "3-2" ;
    cosmos_sdtm:shortName "Small for Gestational Age Indicator" ;
    cosmos_sdtm:source "SC.SCTESTCD" ;
    cosmos_sdtm:variables <https://w3id.org/cdisc/cosmos/dss/SC/SMGAIND/SCCAT>,
        <https://w3id.org/cdisc/cosmos/dss/SC/SMGAIND/SCDTC>,
        <https://w3id.org/cdisc/cosmos/dss/SC/SMGAIND/SCORRES>,
        <https://w3id.org/cdisc/cosmos/dss/SC/SMGAIND/SCSTRESC>,
        <https://w3id.org/cdisc/cosmos/dss/SC/SMGAIND/SCTEST>,
        <https://w3id.org/cdisc/cosmos/dss/SC/SMGAIND/SCTESTCD> .

<https://w3id.org/cdisc/cosmos/dss/SC/SOCECCLS> a cosmos_sdtm:SDTMGroup ;
    dcterms:identifier "SOCECCLS" ;
    rdf:_1 <https://w3id.org/cdisc/cosmos/dss/SC/SOCECCLS/SCTESTCD> ;
    rdf:_2 <https://w3id.org/cdisc/cosmos/dss/SC/SOCECCLS/SCTEST> ;
    rdf:_3 <https://w3id.org/cdisc/cosmos/dss/SC/SOCECCLS/SCCAT> ;
    rdf:_4 <https://w3id.org/cdisc/cosmos/dss/SC/SOCECCLS/SCORRES> ;
    rdf:_5 <https://w3id.org/cdisc/cosmos/dss/SC/SOCECCLS/SCDTC> ;
    rdf:_6 <https://w3id.org/cdisc/cosmos/dss/SC/SOCECCLS/SCSTRESC> ;
    cosmos_sdtm:biomedicalConceptId NCIT:C198364 ;
    cosmos_sdtm:domain "SC" ;
    cosmos_sdtm:packageDate "2026-07-14"^^xsd:date ;
    cosmos_sdtm:packageType <https://www.cdisc.org/cosmos/sdtm_v1.0/PackageTypeEnum#sdtm> ;
    cosmos_sdtm:sdtmigStartVersion "3-2" ;
    cosmos_sdtm:shortName "Socioeconomic Classification" ;
    cosmos_sdtm:source "SC.SCTESTCD" ;
    cosmos_sdtm:variables <https://w3id.org/cdisc/cosmos/dss/SC/SOCECCLS/SCCAT>,
        <https://w3id.org/cdisc/cosmos/dss/SC/SOCECCLS/SCDTC>,
        <https://w3id.org/cdisc/cosmos/dss/SC/SOCECCLS/SCORRES>,
        <https://w3id.org/cdisc/cosmos/dss/SC/SOCECCLS/SCSTRESC>,
        <https://w3id.org/cdisc/cosmos/dss/SC/SOCECCLS/SCTEST>,
        <https://w3id.org/cdisc/cosmos/dss/SC/SOCECCLS/SCTESTCD> .

<https://w3id.org/cdisc/cosmos/dss/SC/SSHIPNAM> a cosmos_sdtm:SDTMGroup ;
    dcterms:identifier "SSHIPNAM" ;
    rdf:_1 <https://w3id.org/cdisc/cosmos/dss/SC/SSHIPNAM/SCTESTCD> ;
    rdf:_2 <https://w3id.org/cdisc/cosmos/dss/SC/SSHIPNAM/SCTEST> ;
    rdf:_3 <https://w3id.org/cdisc/cosmos/dss/SC/SSHIPNAM/SCCAT> ;
    rdf:_4 <https://w3id.org/cdisc/cosmos/dss/SC/SSHIPNAM/SCORRES> ;
    rdf:_5 <https://w3id.org/cdisc/cosmos/dss/SC/SSHIPNAM/SCDTC> ;
    rdf:_6 <https://w3id.org/cdisc/cosmos/dss/SC/SSHIPNAM/SCSTRESC> ;
    cosmos_sdtm:biomedicalConceptId NCIT:C209447 ;
    cosmos_sdtm:domain "SC" ;
    cosmos_sdtm:packageDate "2026-07-14"^^xsd:date ;
    cosmos_sdtm:packageType <https://www.cdisc.org/cosmos/sdtm_v1.0/PackageTypeEnum#sdtm> ;
    cosmos_sdtm:sdtmigStartVersion "3-2" ;
    cosmos_sdtm:shortName "State-Specific Health Ins Program Name" ;
    cosmos_sdtm:source "SC.SCTESTCD" ;
    cosmos_sdtm:variables <https://w3id.org/cdisc/cosmos/dss/SC/SSHIPNAM/SCCAT>,
        <https://w3id.org/cdisc/cosmos/dss/SC/SSHIPNAM/SCDTC>,
        <https://w3id.org/cdisc/cosmos/dss/SC/SSHIPNAM/SCORRES>,
        <https://w3id.org/cdisc/cosmos/dss/SC/SSHIPNAM/SCSTRESC>,
        <https://w3id.org/cdisc/cosmos/dss/SC/SSHIPNAM/SCTEST>,
        <https://w3id.org/cdisc/cosmos/dss/SC/SSHIPNAM/SCTESTCD> .

<https://w3id.org/cdisc/cosmos/dss/SC/SSMCDNAM> a cosmos_sdtm:SDTMGroup ;
    dcterms:identifier "SSMCDNAM" ;
    rdf:_1 <https://w3id.org/cdisc/cosmos/dss/SC/SSMCDNAM/SCTESTCD> ;
    rdf:_2 <https://w3id.org/cdisc/cosmos/dss/SC/SSMCDNAM/SCTEST> ;
    rdf:_3 <https://w3id.org/cdisc/cosmos/dss/SC/SSMCDNAM/SCCAT> ;
    rdf:_4 <https://w3id.org/cdisc/cosmos/dss/SC/SSMCDNAM/SCORRES> ;
    rdf:_5 <https://w3id.org/cdisc/cosmos/dss/SC/SSMCDNAM/SCDTC> ;
    rdf:_6 <https://w3id.org/cdisc/cosmos/dss/SC/SSMCDNAM/SCSTRESC> ;
    cosmos_sdtm:biomedicalConceptId NCIT:C209691 ;
    cosmos_sdtm:domain "SC" ;
    cosmos_sdtm:packageDate "2026-07-14"^^xsd:date ;
    cosmos_sdtm:packageType <https://www.cdisc.org/cosmos/sdtm_v1.0/PackageTypeEnum#sdtm> ;
    cosmos_sdtm:sdtmigStartVersion "3-2" ;
    cosmos_sdtm:shortName "State-Specific Medicaid Program Name" ;
    cosmos_sdtm:source "SC.SCTESTCD" ;
    cosmos_sdtm:variables <https://w3id.org/cdisc/cosmos/dss/SC/SSMCDNAM/SCCAT>,
        <https://w3id.org/cdisc/cosmos/dss/SC/SSMCDNAM/SCDTC>,
        <https://w3id.org/cdisc/cosmos/dss/SC/SSMCDNAM/SCORRES>,
        <https://w3id.org/cdisc/cosmos/dss/SC/SSMCDNAM/SCSTRESC>,
        <https://w3id.org/cdisc/cosmos/dss/SC/SSMCDNAM/SCTEST>,
        <https://w3id.org/cdisc/cosmos/dss/SC/SSMCDNAM/SCTESTCD> .

<https://w3id.org/cdisc/cosmos/dss/SC/SSMCRNAM> a cosmos_sdtm:SDTMGroup ;
    dcterms:identifier "SSMCRNAM" ;
    rdf:_1 <https://w3id.org/cdisc/cosmos/dss/SC/SSMCRNAM/SCTESTCD> ;
    rdf:_2 <https://w3id.org/cdisc/cosmos/dss/SC/SSMCRNAM/SCTEST> ;
    rdf:_3 <https://w3id.org/cdisc/cosmos/dss/SC/SSMCRNAM/SCCAT> ;
    rdf:_4 <https://w3id.org/cdisc/cosmos/dss/SC/SSMCRNAM/SCORRES> ;
    rdf:_5 <https://w3id.org/cdisc/cosmos/dss/SC/SSMCRNAM/SCDTC> ;
    rdf:_6 <https://w3id.org/cdisc/cosmos/dss/SC/SSMCRNAM/SCSTRESC> ;
    cosmos_sdtm:biomedicalConceptId NCIT:C209692 ;
    cosmos_sdtm:domain "SC" ;
    cosmos_sdtm:packageDate "2026-07-14"^^xsd:date ;
    cosmos_sdtm:packageType <https://www.cdisc.org/cosmos/sdtm_v1.0/PackageTypeEnum#sdtm> ;
    cosmos_sdtm:sdtmigStartVersion "3-2" ;
    cosmos_sdtm:shortName "State-Specific Medicare Program Name" ;
    cosmos_sdtm:source "SC.SCTESTCD" ;
    cosmos_sdtm:variables <https://w3id.org/cdisc/cosmos/dss/SC/SSMCRNAM/SCCAT>,
        <https://w3id.org/cdisc/cosmos/dss/SC/SSMCRNAM/SCDTC>,
        <https://w3id.org/cdisc/cosmos/dss/SC/SSMCRNAM/SCORRES>,
        <https://w3id.org/cdisc/cosmos/dss/SC/SSMCRNAM/SCSTRESC>,
        <https://w3id.org/cdisc/cosmos/dss/SC/SSMCRNAM/SCTEST>,
        <https://w3id.org/cdisc/cosmos/dss/SC/SSMCRNAM/SCTESTCD> .

<https://w3id.org/cdisc/cosmos/dss/SC/STDNTIND> a cosmos_sdtm:SDTMGroup ;
    dcterms:identifier "STDNTIND" ;
    rdf:_1 <https://w3id.org/cdisc/cosmos/dss/SC/STDNTIND/SCTESTCD> ;
    rdf:_2 <https://w3id.org/cdisc/cosmos/dss/SC/STDNTIND/SCTEST> ;
    rdf:_3 <https://w3id.org/cdisc/cosmos/dss/SC/STDNTIND/SCCAT> ;
    rdf:_4 <https://w3id.org/cdisc/cosmos/dss/SC/STDNTIND/SCORRES> ;
    rdf:_5 <https://w3id.org/cdisc/cosmos/dss/SC/STDNTIND/SCDTC> ;
    rdf:_6 <https://w3id.org/cdisc/cosmos/dss/SC/STDNTIND/SCSTRESC> ;
    cosmos_sdtm:biomedicalConceptId NCIT:C147485 ;
    cosmos_sdtm:domain "SC" ;
    cosmos_sdtm:packageDate "2026-07-14"^^xsd:date ;
    cosmos_sdtm:packageType <https://www.cdisc.org/cosmos/sdtm_v1.0/PackageTypeEnum#sdtm> ;
    cosmos_sdtm:sdtmigStartVersion "3-2" ;
    cosmos_sdtm:shortName "Student Indicator" ;
    cosmos_sdtm:source "SC.SCTESTCD" ;
    cosmos_sdtm:variables <https://w3id.org/cdisc/cosmos/dss/SC/STDNTIND/SCCAT>,
        <https://w3id.org/cdisc/cosmos/dss/SC/STDNTIND/SCDTC>,
        <https://w3id.org/cdisc/cosmos/dss/SC/STDNTIND/SCORRES>,
        <https://w3id.org/cdisc/cosmos/dss/SC/STDNTIND/SCSTRESC>,
        <https://w3id.org/cdisc/cosmos/dss/SC/STDNTIND/SCTEST>,
        <https://w3id.org/cdisc/cosmos/dss/SC/STDNTIND/SCTESTCD> .

<https://w3id.org/cdisc/cosmos/dss/SC/SXCLUSE> a cosmos_sdtm:SDTMGroup ;
    dcterms:identifier "SXCLUSE" ;
    rdf:_1 <https://w3id.org/cdisc/cosmos/dss/SC/SXCLUSE/SCTESTCD> ;
    rdf:_2 <https://w3id.org/cdisc/cosmos/dss/SC/SXCLUSE/SCTEST> ;
    rdf:_3 <https://w3id.org/cdisc/cosmos/dss/SC/SXCLUSE/SCCAT> ;
    rdf:_4 <https://w3id.org/cdisc/cosmos/dss/SC/SXCLUSE/SCORRES> ;
    rdf:_5 <https://w3id.org/cdisc/cosmos/dss/SC/SXCLUSE/SCDTC> ;
    rdf:_6 <https://w3id.org/cdisc/cosmos/dss/SC/SXCLUSE/SCSTRESC> ;
    cosmos_sdtm:biomedicalConceptId NCIT:C209693 ;
    cosmos_sdtm:domain "SC" ;
    cosmos_sdtm:packageDate "2026-07-14"^^xsd:date ;
    cosmos_sdtm:packageType <https://www.cdisc.org/cosmos/sdtm_v1.0/PackageTypeEnum#sdtm> ;
    cosmos_sdtm:sdtmigStartVersion "3-2" ;
    cosmos_sdtm:shortName "Sex for Clinical Use" ;
    cosmos_sdtm:source "SC.SCTESTCD" ;
    cosmos_sdtm:variables <https://w3id.org/cdisc/cosmos/dss/SC/SXCLUSE/SCCAT>,
        <https://w3id.org/cdisc/cosmos/dss/SC/SXCLUSE/SCDTC>,
        <https://w3id.org/cdisc/cosmos/dss/SC/SXCLUSE/SCORRES>,
        <https://w3id.org/cdisc/cosmos/dss/SC/SXCLUSE/SCSTRESC>,
        <https://w3id.org/cdisc/cosmos/dss/SC/SXCLUSE/SCTEST>,
        <https://w3id.org/cdisc/cosmos/dss/SC/SXCLUSE/SCTESTCD> .

<https://w3id.org/cdisc/cosmos/dss/SC/SYMPTOM> a cosmos_sdtm:SDTMGroup ;
    dcterms:identifier "SYMPTOM" ;
    rdf:_1 <https://w3id.org/cdisc/cosmos/dss/SC/SYMPTOM/SCTESTCD> ;
    rdf:_2 <https://w3id.org/cdisc/cosmos/dss/SC/SYMPTOM/SCTEST> ;
    rdf:_3 <https://w3id.org/cdisc/cosmos/dss/SC/SYMPTOM/SCCAT> ;
    rdf:_4 <https://w3id.org/cdisc/cosmos/dss/SC/SYMPTOM/SCORRES> ;
    rdf:_5 <https://w3id.org/cdisc/cosmos/dss/SC/SYMPTOM/SCDTC> ;
    rdf:_6 <https://w3id.org/cdisc/cosmos/dss/SC/SYMPTOM/SCSTRESC> ;
    cosmos_sdtm:biomedicalConceptId NCIT:C4876 ;
    cosmos_sdtm:domain "SC" ;
    cosmos_sdtm:packageDate "2026-07-14"^^xsd:date ;
    cosmos_sdtm:packageType <https://www.cdisc.org/cosmos/sdtm_v1.0/PackageTypeEnum#sdtm> ;
    cosmos_sdtm:sdtmigStartVersion "3-2" ;
    cosmos_sdtm:shortName "Symptom" ;
    cosmos_sdtm:source "SC.SCTESTCD" ;
    cosmos_sdtm:variables <https://w3id.org/cdisc/cosmos/dss/SC/SYMPTOM/SCCAT>,
        <https://w3id.org/cdisc/cosmos/dss/SC/SYMPTOM/SCDTC>,
        <https://w3id.org/cdisc/cosmos/dss/SC/SYMPTOM/SCORRES>,
        <https://w3id.org/cdisc/cosmos/dss/SC/SYMPTOM/SCSTRESC>,
        <https://w3id.org/cdisc/cosmos/dss/SC/SYMPTOM/SCTEST>,
        <https://w3id.org/cdisc/cosmos/dss/SC/SYMPTOM/SCTESTCD> .

<https://w3id.org/cdisc/cosmos/dss/SC/TRIBAFIL> a cosmos_sdtm:SDTMGroup ;
    dcterms:identifier "TRIBAFIL" ;
    rdf:_1 <https://w3id.org/cdisc/cosmos/dss/SC/TRIBAFIL/SCTESTCD> ;
    rdf:_2 <https://w3id.org/cdisc/cosmos/dss/SC/TRIBAFIL/SCTEST> ;
    rdf:_3 <https://w3id.org/cdisc/cosmos/dss/SC/TRIBAFIL/SCCAT> ;
    rdf:_4 <https://w3id.org/cdisc/cosmos/dss/SC/TRIBAFIL/SCORRES> ;
    rdf:_5 <https://w3id.org/cdisc/cosmos/dss/SC/TRIBAFIL/SCDTC> ;
    rdf:_6 <https://w3id.org/cdisc/cosmos/dss/SC/TRIBAFIL/SCSTRESC> ;
    cosmos_sdtm:biomedicalConceptId NCIT:C205754 ;
    cosmos_sdtm:domain "SC" ;
    cosmos_sdtm:packageDate "2026-07-14"^^xsd:date ;
    cosmos_sdtm:packageType <https://www.cdisc.org/cosmos/sdtm_v1.0/PackageTypeEnum#sdtm> ;
    cosmos_sdtm:sdtmigStartVersion "3-2" ;
    cosmos_sdtm:shortName "Tribal Affiliation" ;
    cosmos_sdtm:source "SC.SCTESTCD" ;
    cosmos_sdtm:variables <https://w3id.org/cdisc/cosmos/dss/SC/TRIBAFIL/SCCAT>,
        <https://w3id.org/cdisc/cosmos/dss/SC/TRIBAFIL/SCDTC>,
        <https://w3id.org/cdisc/cosmos/dss/SC/TRIBAFIL/SCORRES>,
        <https://w3id.org/cdisc/cosmos/dss/SC/TRIBAFIL/SCSTRESC>,
        <https://w3id.org/cdisc/cosmos/dss/SC/TRIBAFIL/SCTEST>,
        <https://w3id.org/cdisc/cosmos/dss/SC/TRIBAFIL/SCTESTCD> .

<https://w3id.org/cdisc/cosmos/dss/SC/TWINTYP> a cosmos_sdtm:SDTMGroup ;
    dcterms:identifier "TWINTYP" ;
    rdf:_1 <https://w3id.org/cdisc/cosmos/dss/SC/TWINTYP/SCTESTCD> ;
    rdf:_2 <https://w3id.org/cdisc/cosmos/dss/SC/TWINTYP/SCTEST> ;
    rdf:_3 <https://w3id.org/cdisc/cosmos/dss/SC/TWINTYP/SCCAT> ;
    rdf:_4 <https://w3id.org/cdisc/cosmos/dss/SC/TWINTYP/SCORRES> ;
    rdf:_5 <https://w3id.org/cdisc/cosmos/dss/SC/TWINTYP/SCDTC> ;
    rdf:_6 <https://w3id.org/cdisc/cosmos/dss/SC/TWINTYP/SCSTRESC> ;
    cosmos_sdtm:biomedicalConceptId NCIT:C112424 ;
    cosmos_sdtm:domain "SC" ;
    cosmos_sdtm:packageDate "2026-07-14"^^xsd:date ;
    cosmos_sdtm:packageType <https://www.cdisc.org/cosmos/sdtm_v1.0/PackageTypeEnum#sdtm> ;
    cosmos_sdtm:sdtmigStartVersion "3-2" ;
    cosmos_sdtm:shortName "Twin Type" ;
    cosmos_sdtm:source "SC.SCTESTCD" ;
    cosmos_sdtm:variables <https://w3id.org/cdisc/cosmos/dss/SC/TWINTYP/SCCAT>,
        <https://w3id.org/cdisc/cosmos/dss/SC/TWINTYP/SCDTC>,
        <https://w3id.org/cdisc/cosmos/dss/SC/TWINTYP/SCORRES>,
        <https://w3id.org/cdisc/cosmos/dss/SC/TWINTYP/SCSTRESC>,
        <https://w3id.org/cdisc/cosmos/dss/SC/TWINTYP/SCTEST>,
        <https://w3id.org/cdisc/cosmos/dss/SC/TWINTYP/SCTESTCD> .

<https://w3id.org/cdisc/cosmos/dss/SC/TYPCON> a cosmos_sdtm:SDTMGroup ;
    dcterms:identifier "TYPCON" ;
    rdf:_1 <https://w3id.org/cdisc/cosmos/dss/SC/TYPCON/SCTESTCD> ;
    rdf:_2 <https://w3id.org/cdisc/cosmos/dss/SC/TYPCON/SCTEST> ;
    rdf:_3 <https://w3id.org/cdisc/cosmos/dss/SC/TYPCON/SCCAT> ;
    rdf:_4 <https://w3id.org/cdisc/cosmos/dss/SC/TYPCON/SCORRES> ;
    rdf:_5 <https://w3id.org/cdisc/cosmos/dss/SC/TYPCON/SCDTC> ;
    rdf:_6 <https://w3id.org/cdisc/cosmos/dss/SC/TYPCON/SCSTRESC> ;
    cosmos_sdtm:biomedicalConceptId NCIT:C102723 ;
    cosmos_sdtm:domain "SC" ;
    cosmos_sdtm:packageDate "2026-07-14"^^xsd:date ;
    cosmos_sdtm:packageType <https://www.cdisc.org/cosmos/sdtm_v1.0/PackageTypeEnum#sdtm> ;
    cosmos_sdtm:sdtmigStartVersion "3-2" ;
    cosmos_sdtm:shortName "Type of Contact" ;
    cosmos_sdtm:source "SC.SCTESTCD" ;
    cosmos_sdtm:variables <https://w3id.org/cdisc/cosmos/dss/SC/TYPCON/SCCAT>,
        <https://w3id.org/cdisc/cosmos/dss/SC/TYPCON/SCDTC>,
        <https://w3id.org/cdisc/cosmos/dss/SC/TYPCON/SCORRES>,
        <https://w3id.org/cdisc/cosmos/dss/SC/TYPCON/SCSTRESC>,
        <https://w3id.org/cdisc/cosmos/dss/SC/TYPCON/SCTEST>,
        <https://w3id.org/cdisc/cosmos/dss/SC/TYPCON/SCTESTCD> .

<https://w3id.org/cdisc/cosmos/dss/SC/UHOUSIND> a cosmos_sdtm:SDTMGroup ;
    dcterms:identifier "UHOUSIND" ;
    rdf:_1 <https://w3id.org/cdisc/cosmos/dss/SC/UHOUSIND/SCTESTCD> ;
    rdf:_2 <https://w3id.org/cdisc/cosmos/dss/SC/UHOUSIND/SCTEST> ;
    rdf:_3 <https://w3id.org/cdisc/cosmos/dss/SC/UHOUSIND/SCCAT> ;
    rdf:_4 <https://w3id.org/cdisc/cosmos/dss/SC/UHOUSIND/SCORRES> ;
    rdf:_5 <https://w3id.org/cdisc/cosmos/dss/SC/UHOUSIND/SCDTC> ;
    rdf:_6 <https://w3id.org/cdisc/cosmos/dss/SC/UHOUSIND/SCSTRESC> ;
    cosmos_sdtm:biomedicalConceptId NCIT:C209694 ;
    cosmos_sdtm:domain "SC" ;
    cosmos_sdtm:packageDate "2026-07-14"^^xsd:date ;
    cosmos_sdtm:packageType <https://www.cdisc.org/cosmos/sdtm_v1.0/PackageTypeEnum#sdtm> ;
    cosmos_sdtm:sdtmigStartVersion "3-2" ;
    cosmos_sdtm:shortName "Unhoused Indicator" ;
    cosmos_sdtm:source "SC.SCTESTCD" ;
    cosmos_sdtm:variables <https://w3id.org/cdisc/cosmos/dss/SC/UHOUSIND/SCCAT>,
        <https://w3id.org/cdisc/cosmos/dss/SC/UHOUSIND/SCDTC>,
        <https://w3id.org/cdisc/cosmos/dss/SC/UHOUSIND/SCORRES>,
        <https://w3id.org/cdisc/cosmos/dss/SC/UHOUSIND/SCSTRESC>,
        <https://w3id.org/cdisc/cosmos/dss/SC/UHOUSIND/SCTEST>,
        <https://w3id.org/cdisc/cosmos/dss/SC/UHOUSIND/SCTESTCD> .

<https://w3id.org/cdisc/cosmos/dss/SC/VILLPAD> a cosmos_sdtm:SDTMGroup ;
    dcterms:identifier "VILLPAD" ;
    rdf:_1 <https://w3id.org/cdisc/cosmos/dss/SC/VILLPAD/SCTESTCD> ;
    rdf:_2 <https://w3id.org/cdisc/cosmos/dss/SC/VILLPAD/SCTEST> ;
    rdf:_3 <https://w3id.org/cdisc/cosmos/dss/SC/VILLPAD/SCCAT> ;
    rdf:_4 <https://w3id.org/cdisc/cosmos/dss/SC/VILLPAD/SCORRES> ;
    rdf:_5 <https://w3id.org/cdisc/cosmos/dss/SC/VILLPAD/SCDTC> ;
    rdf:_6 <https://w3id.org/cdisc/cosmos/dss/SC/VILLPAD/SCSTRESC> ;
    cosmos_sdtm:biomedicalConceptId NCIT:C176364 ;
    cosmos_sdtm:domain "SC" ;
    cosmos_sdtm:packageDate "2026-07-14"^^xsd:date ;
    cosmos_sdtm:packageType <https://www.cdisc.org/cosmos/sdtm_v1.0/PackageTypeEnum#sdtm> ;
    cosmos_sdtm:sdtmigStartVersion "3-2" ;
    cosmos_sdtm:shortName "Village of Permanent Address" ;
    cosmos_sdtm:source "SC.SCTESTCD" ;
    cosmos_sdtm:variables <https://w3id.org/cdisc/cosmos/dss/SC/VILLPAD/SCCAT>,
        <https://w3id.org/cdisc/cosmos/dss/SC/VILLPAD/SCDTC>,
        <https://w3id.org/cdisc/cosmos/dss/SC/VILLPAD/SCORRES>,
        <https://w3id.org/cdisc/cosmos/dss/SC/VILLPAD/SCSTRESC>,
        <https://w3id.org/cdisc/cosmos/dss/SC/VILLPAD/SCTEST>,
        <https://w3id.org/cdisc/cosmos/dss/SC/VILLPAD/SCTESTCD> .

<https://w3id.org/cdisc/cosmos/dss/SC/WRKDYWKN> a cosmos_sdtm:SDTMGroup ;
    dcterms:identifier "WRKDYWKN" ;
    rdf:_1 <https://w3id.org/cdisc/cosmos/dss/SC/WRKDYWKN/SCTESTCD> ;
    rdf:_2 <https://w3id.org/cdisc/cosmos/dss/SC/WRKDYWKN/SCTEST> ;
    rdf:_3 <https://w3id.org/cdisc/cosmos/dss/SC/WRKDYWKN/SCCAT> ;
    rdf:_4 <https://w3id.org/cdisc/cosmos/dss/SC/WRKDYWKN/SCORRES> ;
    rdf:_5 <https://w3id.org/cdisc/cosmos/dss/SC/WRKDYWKN/SCDTC> ;
    rdf:_6 <https://w3id.org/cdisc/cosmos/dss/SC/WRKDYWKN/SCSTRESC> ;
    rdf:_7 <https://w3id.org/cdisc/cosmos/dss/SC/WRKDYWKN/SCSTRESN> ;
    cosmos_sdtm:biomedicalConceptId NCIT:C209695 ;
    cosmos_sdtm:domain "SC" ;
    cosmos_sdtm:packageDate "2026-07-14"^^xsd:date ;
    cosmos_sdtm:packageType <https://www.cdisc.org/cosmos/sdtm_v1.0/PackageTypeEnum#sdtm> ;
    cosmos_sdtm:sdtmigStartVersion "3-2" ;
    cosmos_sdtm:shortName "Number of Work Days Per Week" ;
    cosmos_sdtm:source "SC.SCTESTCD" ;
    cosmos_sdtm:variables <https://w3id.org/cdisc/cosmos/dss/SC/WRKDYWKN/SCCAT>,
        <https://w3id.org/cdisc/cosmos/dss/SC/WRKDYWKN/SCDTC>,
        <https://w3id.org/cdisc/cosmos/dss/SC/WRKDYWKN/SCORRES>,
        <https://w3id.org/cdisc/cosmos/dss/SC/WRKDYWKN/SCSTRESC>,
        <https://w3id.org/cdisc/cosmos/dss/SC/WRKDYWKN/SCSTRESN>,
        <https://w3id.org/cdisc/cosmos/dss/SC/WRKDYWKN/SCTEST>,
        <https://w3id.org/cdisc/cosmos/dss/SC/WRKDYWKN/SCTESTCD> .

<https://w3id.org/cdisc/cosmos/dss/SC/ADEVAIND/SCCAT/relationship> a cosmos_sdtm:RelationShip ;
    cosmos_sdtm:linkingPhrase <https://www.cdisc.org/cosmos/sdtm_v1.0/LinkingPhraseEnum#groups%20values%20in> ;
    cosmos_sdtm:object "SCTESTCD" ;
    cosmos_sdtm:predicateTerm <https://www.cdisc.org/cosmos/sdtm_v1.0/PredicateTermEnum#GROUPS> ;
    cosmos_sdtm:subject "SCCAT" .

<https://w3id.org/cdisc/cosmos/dss/SC/ADEVAIND/SCDTC/relationship> a cosmos_sdtm:RelationShip ;
    cosmos_sdtm:linkingPhrase <https://www.cdisc.org/cosmos/sdtm_v1.0/LinkingPhraseEnum#is%20the%20date%20of%20occurrence%20for> ;
    cosmos_sdtm:object "SCTESTCD" ;
    cosmos_sdtm:predicateTerm <https://www.cdisc.org/cosmos/sdtm_v1.0/PredicateTermEnum#IS_TIMING_FOR> ;
    cosmos_sdtm:subject "SCDTC" .

<https://w3id.org/cdisc/cosmos/dss/SC/ADEVAIND/SCORRES/relationship> a cosmos_sdtm:RelationShip ;
    cosmos_sdtm:linkingPhrase <https://www.cdisc.org/cosmos/sdtm_v1.0/LinkingPhraseEnum#is%20the%20result%20of%20the%20test%20in> ;
    cosmos_sdtm:object "SCTESTCD" ;
    cosmos_sdtm:predicateTerm <https://www.cdisc.org/cosmos/sdtm_v1.0/PredicateTermEnum#IS_RESULT_OF> ;
    cosmos_sdtm:subject "SCORRES" .

<https://w3id.org/cdisc/cosmos/dss/SC/ADEVAIND/SCSTRESC/relationship> a cosmos_sdtm:RelationShip ;
    cosmos_sdtm:linkingPhrase <https://www.cdisc.org/cosmos/sdtm_v1.0/LinkingPhraseEnum#is%20the%20result%20of%20the%20test%20in> ;
    cosmos_sdtm:object "SCTESTCD" ;
    cosmos_sdtm:predicateTerm <https://www.cdisc.org/cosmos/sdtm_v1.0/PredicateTermEnum#IS_RESULT_OF> ;
    cosmos_sdtm:subject "SCSTRESC" .

<https://w3id.org/cdisc/cosmos/dss/SC/ADEVAIND/SCTEST/assignedTerm> a cosmos_sdtm:AssignedTerm ;
    cosmos_sdtm:conceptId NCIT:C171499 ;
    cosmos_sdtm:value "Appropriate Developmental Age Indicator" .

<https://w3id.org/cdisc/cosmos/dss/SC/ADEVAIND/SCTEST/relationship> a cosmos_sdtm:RelationShip ;
    cosmos_sdtm:linkingPhrase <https://www.cdisc.org/cosmos/sdtm_v1.0/LinkingPhraseEnum#decodes%20the%20value%20in> ;
    cosmos_sdtm:object "SCTESTCD" ;
    cosmos_sdtm:predicateTerm <https://www.cdisc.org/cosmos/sdtm_v1.0/PredicateTermEnum#DECODES> ;
    cosmos_sdtm:subject "SCTEST" .

<https://w3id.org/cdisc/cosmos/dss/SC/ADEVAIND/SCTESTCD/assignedTerm> a cosmos_sdtm:AssignedTerm ;
    cosmos_sdtm:conceptId NCIT:C171499 ;
    cosmos_sdtm:value "ADEVAIND" .

<https://w3id.org/cdisc/cosmos/dss/SC/ADEVAIND/SCTESTCD/relationship> a cosmos_sdtm:RelationShip ;
    cosmos_sdtm:linkingPhrase <https://www.cdisc.org/cosmos/sdtm_v1.0/LinkingPhraseEnum#is%20the%20code%20for%20the%20value%20in> ;
    cosmos_sdtm:object "SCTEST" ;
    cosmos_sdtm:predicateTerm <https://www.cdisc.org/cosmos/sdtm_v1.0/PredicateTermEnum#IS_DECODED_BY> ;
    cosmos_sdtm:subject "SCTESTCD" .

<https://w3id.org/cdisc/cosmos/dss/SC/BIO1DRN/SCCAT/relationship> a cosmos_sdtm:RelationShip ;
    cosmos_sdtm:linkingPhrase <https://www.cdisc.org/cosmos/sdtm_v1.0/LinkingPhraseEnum#groups%20values%20in> ;
    cosmos_sdtm:object "SCTESTCD" ;
    cosmos_sdtm:predicateTerm <https://www.cdisc.org/cosmos/sdtm_v1.0/PredicateTermEnum#GROUPS> ;
    cosmos_sdtm:subject "SCCAT" .

<https://w3id.org/cdisc/cosmos/dss/SC/BIO1DRN/SCDTC/relationship> a cosmos_sdtm:RelationShip ;
    cosmos_sdtm:linkingPhrase <https://www.cdisc.org/cosmos/sdtm_v1.0/LinkingPhraseEnum#is%20the%20date%20of%20occurrence%20for> ;
    cosmos_sdtm:object "SCTESTCD" ;
    cosmos_sdtm:predicateTerm <https://www.cdisc.org/cosmos/sdtm_v1.0/PredicateTermEnum#IS_TIMING_FOR> ;
    cosmos_sdtm:subject "SCDTC" .

<https://w3id.org/cdisc/cosmos/dss/SC/BIO1DRN/SCORRES/relationship> a cosmos_sdtm:RelationShip ;
    cosmos_sdtm:linkingPhrase <https://www.cdisc.org/cosmos/sdtm_v1.0/LinkingPhraseEnum#is%20the%20result%20of%20the%20test%20in> ;
    cosmos_sdtm:object "SCTESTCD" ;
    cosmos_sdtm:predicateTerm <https://www.cdisc.org/cosmos/sdtm_v1.0/PredicateTermEnum#IS_RESULT_OF> ;
    cosmos_sdtm:subject "SCORRES" .

<https://w3id.org/cdisc/cosmos/dss/SC/BIO1DRN/SCSTRESC/relationship> a cosmos_sdtm:RelationShip ;
    cosmos_sdtm:linkingPhrase <https://www.cdisc.org/cosmos/sdtm_v1.0/LinkingPhraseEnum#is%20the%20result%20of%20the%20test%20in> ;
    cosmos_sdtm:object "SCTESTCD" ;
    cosmos_sdtm:predicateTerm <https://www.cdisc.org/cosmos/sdtm_v1.0/PredicateTermEnum#IS_RESULT_OF> ;
    cosmos_sdtm:subject "SCSTRESC" .

<https://w3id.org/cdisc/cosmos/dss/SC/BIO1DRN/SCSTRESN/relationship> a cosmos_sdtm:RelationShip ;
    cosmos_sdtm:linkingPhrase <https://www.cdisc.org/cosmos/sdtm_v1.0/LinkingPhraseEnum#is%20the%20result%20of%20the%20test%20in> ;
    cosmos_sdtm:object "SCTESTCD" ;
    cosmos_sdtm:predicateTerm <https://www.cdisc.org/cosmos/sdtm_v1.0/PredicateTermEnum#IS_RESULT_OF> ;
    cosmos_sdtm:subject "SCSTRESN" .

<https://w3id.org/cdisc/cosmos/dss/SC/BIO1DRN/SCTEST/assignedTerm> a cosmos_sdtm:AssignedTerm ;
    cosmos_sdtm:conceptId NCIT:C198360 ;
    cosmos_sdtm:value "Num 1st Degree Relatives, Biological" .

<https://w3id.org/cdisc/cosmos/dss/SC/BIO1DRN/SCTEST/relationship> a cosmos_sdtm:RelationShip ;
    cosmos_sdtm:linkingPhrase <https://www.cdisc.org/cosmos/sdtm_v1.0/LinkingPhraseEnum#decodes%20the%20value%20in> ;
    cosmos_sdtm:object "SCTESTCD" ;
    cosmos_sdtm:predicateTerm <https://www.cdisc.org/cosmos/sdtm_v1.0/PredicateTermEnum#DECODES> ;
    cosmos_sdtm:subject "SCTEST" .

<https://w3id.org/cdisc/cosmos/dss/SC/BIO1DRN/SCTESTCD/assignedTerm> a cosmos_sdtm:AssignedTerm ;
    cosmos_sdtm:conceptId NCIT:C198360 ;
    cosmos_sdtm:value "BIO1DRN" .

<https://w3id.org/cdisc/cosmos/dss/SC/BIO1DRN/SCTESTCD/relationship> a cosmos_sdtm:RelationShip ;
    cosmos_sdtm:linkingPhrase <https://www.cdisc.org/cosmos/sdtm_v1.0/LinkingPhraseEnum#is%20the%20code%20for%20the%20value%20in> ;
    cosmos_sdtm:object "SCTEST" ;
    cosmos_sdtm:predicateTerm <https://www.cdisc.org/cosmos/sdtm_v1.0/PredicateTermEnum#IS_DECODED_BY> ;
    cosmos_sdtm:subject "SCTESTCD" .

<https://w3id.org/cdisc/cosmos/dss/SC/BIOBRON/SCCAT/relationship> a cosmos_sdtm:RelationShip ;
    cosmos_sdtm:linkingPhrase <https://www.cdisc.org/cosmos/sdtm_v1.0/LinkingPhraseEnum#groups%20values%20in> ;
    cosmos_sdtm:object "SCTESTCD" ;
    cosmos_sdtm:predicateTerm <https://www.cdisc.org/cosmos/sdtm_v1.0/PredicateTermEnum#GROUPS> ;
    cosmos_sdtm:subject "SCCAT" .

<https://w3id.org/cdisc/cosmos/dss/SC/BIOBRON/SCDTC/relationship> a cosmos_sdtm:RelationShip ;
    cosmos_sdtm:linkingPhrase <https://www.cdisc.org/cosmos/sdtm_v1.0/LinkingPhraseEnum#is%20the%20date%20of%20occurrence%20for> ;
    cosmos_sdtm:object "SCTESTCD" ;
    cosmos_sdtm:predicateTerm <https://www.cdisc.org/cosmos/sdtm_v1.0/PredicateTermEnum#IS_TIMING_FOR> ;
    cosmos_sdtm:subject "SCDTC" .

<https://w3id.org/cdisc/cosmos/dss/SC/BIOBRON/SCORRES/relationship> a cosmos_sdtm:RelationShip ;
    cosmos_sdtm:linkingPhrase <https://www.cdisc.org/cosmos/sdtm_v1.0/LinkingPhraseEnum#is%20the%20result%20of%20the%20test%20in> ;
    cosmos_sdtm:object "SCTESTCD" ;
    cosmos_sdtm:predicateTerm <https://www.cdisc.org/cosmos/sdtm_v1.0/PredicateTermEnum#IS_RESULT_OF> ;
    cosmos_sdtm:subject "SCORRES" .

<https://w3id.org/cdisc/cosmos/dss/SC/BIOBRON/SCSTRESC/relationship> a cosmos_sdtm:RelationShip ;
    cosmos_sdtm:linkingPhrase <https://www.cdisc.org/cosmos/sdtm_v1.0/LinkingPhraseEnum#is%20the%20result%20of%20the%20test%20in> ;
    cosmos_sdtm:object "SCTESTCD" ;
    cosmos_sdtm:predicateTerm <https://www.cdisc.org/cosmos/sdtm_v1.0/PredicateTermEnum#IS_RESULT_OF> ;
    cosmos_sdtm:subject "SCSTRESC" .

<https://w3id.org/cdisc/cosmos/dss/SC/BIOBRON/SCSTRESN/relationship> a cosmos_sdtm:RelationShip ;
    cosmos_sdtm:linkingPhrase <https://www.cdisc.org/cosmos/sdtm_v1.0/LinkingPhraseEnum#is%20the%20result%20of%20the%20test%20in> ;
    cosmos_sdtm:object "SCTESTCD" ;
    cosmos_sdtm:predicateTerm <https://www.cdisc.org/cosmos/sdtm_v1.0/PredicateTermEnum#IS_RESULT_OF> ;
    cosmos_sdtm:subject "SCSTRESN" .

<https://w3id.org/cdisc/cosmos/dss/SC/BIOBRON/SCTEST/assignedTerm> a cosmos_sdtm:AssignedTerm ;
    cosmos_sdtm:conceptId NCIT:C135500 ;
    cosmos_sdtm:value "Number of Brothers, Biological" .

<https://w3id.org/cdisc/cosmos/dss/SC/BIOBRON/SCTEST/relationship> a cosmos_sdtm:RelationShip ;
    cosmos_sdtm:linkingPhrase <https://www.cdisc.org/cosmos/sdtm_v1.0/LinkingPhraseEnum#decodes%20the%20value%20in> ;
    cosmos_sdtm:object "SCTESTCD" ;
    cosmos_sdtm:predicateTerm <https://www.cdisc.org/cosmos/sdtm_v1.0/PredicateTermEnum#DECODES> ;
    cosmos_sdtm:subject "SCTEST" .

<https://w3id.org/cdisc/cosmos/dss/SC/BIOBRON/SCTESTCD/assignedTerm> a cosmos_sdtm:AssignedTerm ;
    cosmos_sdtm:conceptId NCIT:C135500 ;
    cosmos_sdtm:value "BIOBRON" .

<https://w3id.org/cdisc/cosmos/dss/SC/BIOBRON/SCTESTCD/relationship> a cosmos_sdtm:RelationShip ;
    cosmos_sdtm:linkingPhrase <https://www.cdisc.org/cosmos/sdtm_v1.0/LinkingPhraseEnum#is%20the%20code%20for%20the%20value%20in> ;
    cosmos_sdtm:object "SCTEST" ;
    cosmos_sdtm:predicateTerm <https://www.cdisc.org/cosmos/sdtm_v1.0/PredicateTermEnum#IS_DECODED_BY> ;
    cosmos_sdtm:subject "SCTESTCD" .

<https://w3id.org/cdisc/cosmos/dss/SC/BIOSISN/SCCAT/relationship> a cosmos_sdtm:RelationShip ;
    cosmos_sdtm:linkingPhrase <https://www.cdisc.org/cosmos/sdtm_v1.0/LinkingPhraseEnum#groups%20values%20in> ;
    cosmos_sdtm:object "SCTESTCD" ;
    cosmos_sdtm:predicateTerm <https://www.cdisc.org/cosmos/sdtm_v1.0/PredicateTermEnum#GROUPS> ;
    cosmos_sdtm:subject "SCCAT" .

<https://w3id.org/cdisc/cosmos/dss/SC/BIOSISN/SCDTC/relationship> a cosmos_sdtm:RelationShip ;
    cosmos_sdtm:linkingPhrase <https://www.cdisc.org/cosmos/sdtm_v1.0/LinkingPhraseEnum#is%20the%20date%20of%20occurrence%20for> ;
    cosmos_sdtm:object "SCTESTCD" ;
    cosmos_sdtm:predicateTerm <https://www.cdisc.org/cosmos/sdtm_v1.0/PredicateTermEnum#IS_TIMING_FOR> ;
    cosmos_sdtm:subject "SCDTC" .

<https://w3id.org/cdisc/cosmos/dss/SC/BIOSISN/SCORRES/relationship> a cosmos_sdtm:RelationShip ;
    cosmos_sdtm:linkingPhrase <https://www.cdisc.org/cosmos/sdtm_v1.0/LinkingPhraseEnum#is%20the%20result%20of%20the%20test%20in> ;
    cosmos_sdtm:object "SCTESTCD" ;
    cosmos_sdtm:predicateTerm <https://www.cdisc.org/cosmos/sdtm_v1.0/PredicateTermEnum#IS_RESULT_OF> ;
    cosmos_sdtm:subject "SCORRES" .

<https://w3id.org/cdisc/cosmos/dss/SC/BIOSISN/SCSTRESC/relationship> a cosmos_sdtm:RelationShip ;
    cosmos_sdtm:linkingPhrase <https://www.cdisc.org/cosmos/sdtm_v1.0/LinkingPhraseEnum#is%20the%20result%20of%20the%20test%20in> ;
    cosmos_sdtm:object "SCTESTCD" ;
    cosmos_sdtm:predicateTerm <https://www.cdisc.org/cosmos/sdtm_v1.0/PredicateTermEnum#IS_RESULT_OF> ;
    cosmos_sdtm:subject "SCSTRESC" .

<https://w3id.org/cdisc/cosmos/dss/SC/BIOSISN/SCSTRESN/relationship> a cosmos_sdtm:RelationShip ;
    cosmos_sdtm:linkingPhrase <https://www.cdisc.org/cosmos/sdtm_v1.0/LinkingPhraseEnum#is%20the%20result%20of%20the%20test%20in> ;
    cosmos_sdtm:object "SCTESTCD" ;
    cosmos_sdtm:predicateTerm <https://www.cdisc.org/cosmos/sdtm_v1.0/PredicateTermEnum#IS_RESULT_OF> ;
    cosmos_sdtm:subject "SCSTRESN" .

<https://w3id.org/cdisc/cosmos/dss/SC/BIOSISN/SCTEST/assignedTerm> a cosmos_sdtm:AssignedTerm ;
    cosmos_sdtm:conceptId NCIT:C135501 ;
    cosmos_sdtm:value "Number of Sisters, Biological" .

<https://w3id.org/cdisc/cosmos/dss/SC/BIOSISN/SCTEST/relationship> a cosmos_sdtm:RelationShip ;
    cosmos_sdtm:linkingPhrase <https://www.cdisc.org/cosmos/sdtm_v1.0/LinkingPhraseEnum#decodes%20the%20value%20in> ;
    cosmos_sdtm:object "SCTESTCD" ;
    cosmos_sdtm:predicateTerm <https://www.cdisc.org/cosmos/sdtm_v1.0/PredicateTermEnum#DECODES> ;
    cosmos_sdtm:subject "SCTEST" .

<https://w3id.org/cdisc/cosmos/dss/SC/BIOSISN/SCTESTCD/assignedTerm> a cosmos_sdtm:AssignedTerm ;
    cosmos_sdtm:conceptId NCIT:C135501 ;
    cosmos_sdtm:value "BIOSISN" .

<https://w3id.org/cdisc/cosmos/dss/SC/BIOSISN/SCTESTCD/relationship> a cosmos_sdtm:RelationShip ;
    cosmos_sdtm:linkingPhrase <https://www.cdisc.org/cosmos/sdtm_v1.0/LinkingPhraseEnum#is%20the%20code%20for%20the%20value%20in> ;
    cosmos_sdtm:object "SCTEST" ;
    cosmos_sdtm:predicateTerm <https://www.cdisc.org/cosmos/sdtm_v1.0/PredicateTermEnum#IS_DECODED_BY> ;
    cosmos_sdtm:subject "SCTESTCD" .

<https://w3id.org/cdisc/cosmos/dss/SC/BRCTRY/SCCAT/relationship> a cosmos_sdtm:RelationShip ;
    cosmos_sdtm:linkingPhrase <https://www.cdisc.org/cosmos/sdtm_v1.0/LinkingPhraseEnum#groups%20values%20in> ;
    cosmos_sdtm:object "SCTESTCD" ;
    cosmos_sdtm:predicateTerm <https://www.cdisc.org/cosmos/sdtm_v1.0/PredicateTermEnum#GROUPS> ;
    cosmos_sdtm:subject "SCCAT" .

<https://w3id.org/cdisc/cosmos/dss/SC/BRCTRY/SCDTC/relationship> a cosmos_sdtm:RelationShip ;
    cosmos_sdtm:linkingPhrase <https://www.cdisc.org/cosmos/sdtm_v1.0/LinkingPhraseEnum#is%20the%20date%20of%20occurrence%20for> ;
    cosmos_sdtm:object "SCTESTCD" ;
    cosmos_sdtm:predicateTerm <https://www.cdisc.org/cosmos/sdtm_v1.0/PredicateTermEnum#IS_TIMING_FOR> ;
    cosmos_sdtm:subject "SCDTC" .

<https://w3id.org/cdisc/cosmos/dss/SC/BRCTRY/SCORRES/relationship> a cosmos_sdtm:RelationShip ;
    cosmos_sdtm:linkingPhrase <https://www.cdisc.org/cosmos/sdtm_v1.0/LinkingPhraseEnum#is%20the%20result%20of%20the%20test%20in> ;
    cosmos_sdtm:object "SCTESTCD" ;
    cosmos_sdtm:predicateTerm <https://www.cdisc.org/cosmos/sdtm_v1.0/PredicateTermEnum#IS_RESULT_OF> ;
    cosmos_sdtm:subject "SCORRES" .

<https://w3id.org/cdisc/cosmos/dss/SC/BRCTRY/SCSTRESC/relationship> a cosmos_sdtm:RelationShip ;
    cosmos_sdtm:linkingPhrase <https://www.cdisc.org/cosmos/sdtm_v1.0/LinkingPhraseEnum#is%20the%20result%20of%20the%20test%20in> ;
    cosmos_sdtm:object "SCTESTCD" ;
    cosmos_sdtm:predicateTerm <https://www.cdisc.org/cosmos/sdtm_v1.0/PredicateTermEnum#IS_RESULT_OF> ;
    cosmos_sdtm:subject "SCSTRESC" .

<https://w3id.org/cdisc/cosmos/dss/SC/BRCTRY/SCTEST/assignedTerm> a cosmos_sdtm:AssignedTerm ;
    cosmos_sdtm:conceptId NCIT:C200441 ;
    cosmos_sdtm:value "Birth Country" .

<https://w3id.org/cdisc/cosmos/dss/SC/BRCTRY/SCTEST/relationship> a cosmos_sdtm:RelationShip ;
    cosmos_sdtm:linkingPhrase <https://www.cdisc.org/cosmos/sdtm_v1.0/LinkingPhraseEnum#decodes%20the%20value%20in> ;
    cosmos_sdtm:object "SCTESTCD" ;
    cosmos_sdtm:predicateTerm <https://www.cdisc.org/cosmos/sdtm_v1.0/PredicateTermEnum#DECODES> ;
    cosmos_sdtm:subject "SCTEST" .

<https://w3id.org/cdisc/cosmos/dss/SC/BRCTRY/SCTESTCD/assignedTerm> a cosmos_sdtm:AssignedTerm ;
    cosmos_sdtm:conceptId NCIT:C200441 ;
    cosmos_sdtm:value "BRCTRY" .

<https://w3id.org/cdisc/cosmos/dss/SC/BRCTRY/SCTESTCD/relationship> a cosmos_sdtm:RelationShip ;
    cosmos_sdtm:linkingPhrase <https://www.cdisc.org/cosmos/sdtm_v1.0/LinkingPhraseEnum#is%20the%20code%20for%20the%20value%20in> ;
    cosmos_sdtm:object "SCTEST" ;
    cosmos_sdtm:predicateTerm <https://www.cdisc.org/cosmos/sdtm_v1.0/PredicateTermEnum#IS_DECODED_BY> ;
    cosmos_sdtm:subject "SCTESTCD" .

<https://w3id.org/cdisc/cosmos/dss/SC/BRCTRYCD/SCCAT/relationship> a cosmos_sdtm:RelationShip ;
    cosmos_sdtm:linkingPhrase <https://www.cdisc.org/cosmos/sdtm_v1.0/LinkingPhraseEnum#groups%20values%20in> ;
    cosmos_sdtm:object "SCTESTCD" ;
    cosmos_sdtm:predicateTerm <https://www.cdisc.org/cosmos/sdtm_v1.0/PredicateTermEnum#GROUPS> ;
    cosmos_sdtm:subject "SCCAT" .

<https://w3id.org/cdisc/cosmos/dss/SC/BRCTRYCD/SCDTC/relationship> a cosmos_sdtm:RelationShip ;
    cosmos_sdtm:linkingPhrase <https://www.cdisc.org/cosmos/sdtm_v1.0/LinkingPhraseEnum#is%20the%20date%20of%20occurrence%20for> ;
    cosmos_sdtm:object "SCTESTCD" ;
    cosmos_sdtm:predicateTerm <https://www.cdisc.org/cosmos/sdtm_v1.0/PredicateTermEnum#IS_TIMING_FOR> ;
    cosmos_sdtm:subject "SCDTC" .

<https://w3id.org/cdisc/cosmos/dss/SC/BRCTRYCD/SCORRES/relationship> a cosmos_sdtm:RelationShip ;
    cosmos_sdtm:linkingPhrase <https://www.cdisc.org/cosmos/sdtm_v1.0/LinkingPhraseEnum#is%20the%20result%20of%20the%20test%20in> ;
    cosmos_sdtm:object "SCTESTCD" ;
    cosmos_sdtm:predicateTerm <https://www.cdisc.org/cosmos/sdtm_v1.0/PredicateTermEnum#IS_RESULT_OF> ;
    cosmos_sdtm:subject "SCORRES" .

<https://w3id.org/cdisc/cosmos/dss/SC/BRCTRYCD/SCSTRESC/relationship> a cosmos_sdtm:RelationShip ;
    cosmos_sdtm:linkingPhrase <https://www.cdisc.org/cosmos/sdtm_v1.0/LinkingPhraseEnum#is%20the%20result%20of%20the%20test%20in> ;
    cosmos_sdtm:object "SCTESTCD" ;
    cosmos_sdtm:predicateTerm <https://www.cdisc.org/cosmos/sdtm_v1.0/PredicateTermEnum#IS_RESULT_OF> ;
    cosmos_sdtm:subject "SCSTRESC" .

<https://w3id.org/cdisc/cosmos/dss/SC/BRCTRYCD/SCTEST/assignedTerm> a cosmos_sdtm:AssignedTerm ;
    cosmos_sdtm:conceptId NCIT:C93516 ;
    cosmos_sdtm:value "Birth Country Code" .

<https://w3id.org/cdisc/cosmos/dss/SC/BRCTRYCD/SCTEST/relationship> a cosmos_sdtm:RelationShip ;
    cosmos_sdtm:linkingPhrase <https://www.cdisc.org/cosmos/sdtm_v1.0/LinkingPhraseEnum#decodes%20the%20value%20in> ;
    cosmos_sdtm:object "SCTESTCD" ;
    cosmos_sdtm:predicateTerm <https://www.cdisc.org/cosmos/sdtm_v1.0/PredicateTermEnum#DECODES> ;
    cosmos_sdtm:subject "SCTEST" .

<https://w3id.org/cdisc/cosmos/dss/SC/BRCTRYCD/SCTESTCD/assignedTerm> a cosmos_sdtm:AssignedTerm ;
    cosmos_sdtm:conceptId NCIT:C93516 ;
    cosmos_sdtm:value "BRCTRYCD" .

<https://w3id.org/cdisc/cosmos/dss/SC/BRCTRYCD/SCTESTCD/relationship> a cosmos_sdtm:RelationShip ;
    cosmos_sdtm:linkingPhrase <https://www.cdisc.org/cosmos/sdtm_v1.0/LinkingPhraseEnum#is%20the%20code%20for%20the%20value%20in> ;
    cosmos_sdtm:object "SCTEST" ;
    cosmos_sdtm:predicateTerm <https://www.cdisc.org/cosmos/sdtm_v1.0/PredicateTermEnum#IS_DECODED_BY> ;
    cosmos_sdtm:subject "SCTESTCD" .

<https://w3id.org/cdisc/cosmos/dss/SC/BRFEDIND/SCCAT/relationship> a cosmos_sdtm:RelationShip ;
    cosmos_sdtm:linkingPhrase <https://www.cdisc.org/cosmos/sdtm_v1.0/LinkingPhraseEnum#groups%20values%20in> ;
    cosmos_sdtm:object "SCTESTCD" ;
    cosmos_sdtm:predicateTerm <https://www.cdisc.org/cosmos/sdtm_v1.0/PredicateTermEnum#GROUPS> ;
    cosmos_sdtm:subject "SCCAT" .

<https://w3id.org/cdisc/cosmos/dss/SC/BRFEDIND/SCDTC/relationship> a cosmos_sdtm:RelationShip ;
    cosmos_sdtm:linkingPhrase <https://www.cdisc.org/cosmos/sdtm_v1.0/LinkingPhraseEnum#is%20the%20date%20of%20occurrence%20for> ;
    cosmos_sdtm:object "SCTESTCD" ;
    cosmos_sdtm:predicateTerm <https://www.cdisc.org/cosmos/sdtm_v1.0/PredicateTermEnum#IS_TIMING_FOR> ;
    cosmos_sdtm:subject "SCDTC" .

<https://w3id.org/cdisc/cosmos/dss/SC/BRFEDIND/SCORRES/relationship> a cosmos_sdtm:RelationShip ;
    cosmos_sdtm:linkingPhrase <https://www.cdisc.org/cosmos/sdtm_v1.0/LinkingPhraseEnum#is%20the%20result%20of%20the%20test%20in> ;
    cosmos_sdtm:object "SCTESTCD" ;
    cosmos_sdtm:predicateTerm <https://www.cdisc.org/cosmos/sdtm_v1.0/PredicateTermEnum#IS_RESULT_OF> ;
    cosmos_sdtm:subject "SCORRES" .

<https://w3id.org/cdisc/cosmos/dss/SC/BRFEDIND/SCSTRESC/relationship> a cosmos_sdtm:RelationShip ;
    cosmos_sdtm:linkingPhrase <https://www.cdisc.org/cosmos/sdtm_v1.0/LinkingPhraseEnum#is%20the%20result%20of%20the%20test%20in> ;
    cosmos_sdtm:object "SCTESTCD" ;
    cosmos_sdtm:predicateTerm <https://www.cdisc.org/cosmos/sdtm_v1.0/PredicateTermEnum#IS_RESULT_OF> ;
    cosmos_sdtm:subject "SCSTRESC" .

<https://w3id.org/cdisc/cosmos/dss/SC/BRFEDIND/SCTEST/assignedTerm> a cosmos_sdtm:AssignedTerm ;
    cosmos_sdtm:conceptId NCIT:C112233 ;
    cosmos_sdtm:value "Breast Fed Indicator" .

<https://w3id.org/cdisc/cosmos/dss/SC/BRFEDIND/SCTEST/relationship> a cosmos_sdtm:RelationShip ;
    cosmos_sdtm:linkingPhrase <https://www.cdisc.org/cosmos/sdtm_v1.0/LinkingPhraseEnum#decodes%20the%20value%20in> ;
    cosmos_sdtm:object "SCTESTCD" ;
    cosmos_sdtm:predicateTerm <https://www.cdisc.org/cosmos/sdtm_v1.0/PredicateTermEnum#DECODES> ;
    cosmos_sdtm:subject "SCTEST" .

<https://w3id.org/cdisc/cosmos/dss/SC/BRFEDIND/SCTESTCD/assignedTerm> a cosmos_sdtm:AssignedTerm ;
    cosmos_sdtm:conceptId NCIT:C112233 ;
    cosmos_sdtm:value "BRFEDIND" .

<https://w3id.org/cdisc/cosmos/dss/SC/BRFEDIND/SCTESTCD/relationship> a cosmos_sdtm:RelationShip ;
    cosmos_sdtm:linkingPhrase <https://www.cdisc.org/cosmos/sdtm_v1.0/LinkingPhraseEnum#is%20the%20code%20for%20the%20value%20in> ;
    cosmos_sdtm:object "SCTEST" ;
    cosmos_sdtm:predicateTerm <https://www.cdisc.org/cosmos/sdtm_v1.0/PredicateTermEnum#IS_DECODED_BY> ;
    cosmos_sdtm:subject "SCTESTCD" .

<https://w3id.org/cdisc/cosmos/dss/SC/BTHPLRTY/SCCAT/relationship> a cosmos_sdtm:RelationShip ;
    cosmos_sdtm:linkingPhrase <https://www.cdisc.org/cosmos/sdtm_v1.0/LinkingPhraseEnum#groups%20values%20in> ;
    cosmos_sdtm:object "SCTESTCD" ;
    cosmos_sdtm:predicateTerm <https://www.cdisc.org/cosmos/sdtm_v1.0/PredicateTermEnum#GROUPS> ;
    cosmos_sdtm:subject "SCCAT" .

<https://w3id.org/cdisc/cosmos/dss/SC/BTHPLRTY/SCDTC/relationship> a cosmos_sdtm:RelationShip ;
    cosmos_sdtm:linkingPhrase <https://www.cdisc.org/cosmos/sdtm_v1.0/LinkingPhraseEnum#is%20the%20date%20of%20occurrence%20for> ;
    cosmos_sdtm:object "SCTESTCD" ;
    cosmos_sdtm:predicateTerm <https://www.cdisc.org/cosmos/sdtm_v1.0/PredicateTermEnum#IS_TIMING_FOR> ;
    cosmos_sdtm:subject "SCDTC" .

<https://w3id.org/cdisc/cosmos/dss/SC/BTHPLRTY/SCORRES/relationship> a cosmos_sdtm:RelationShip ;
    cosmos_sdtm:linkingPhrase <https://www.cdisc.org/cosmos/sdtm_v1.0/LinkingPhraseEnum#is%20the%20result%20of%20the%20test%20in> ;
    cosmos_sdtm:object "SCTESTCD" ;
    cosmos_sdtm:predicateTerm <https://www.cdisc.org/cosmos/sdtm_v1.0/PredicateTermEnum#IS_RESULT_OF> ;
    cosmos_sdtm:subject "SCORRES" .

<https://w3id.org/cdisc/cosmos/dss/SC/BTHPLRTY/SCSTRESC/relationship> a cosmos_sdtm:RelationShip ;
    cosmos_sdtm:linkingPhrase <https://www.cdisc.org/cosmos/sdtm_v1.0/LinkingPhraseEnum#is%20the%20result%20of%20the%20test%20in> ;
    cosmos_sdtm:object "SCTESTCD" ;
    cosmos_sdtm:predicateTerm <https://www.cdisc.org/cosmos/sdtm_v1.0/PredicateTermEnum#IS_RESULT_OF> ;
    cosmos_sdtm:subject "SCSTRESC" .

<https://w3id.org/cdisc/cosmos/dss/SC/BTHPLRTY/SCSTRESN/relationship> a cosmos_sdtm:RelationShip ;
    cosmos_sdtm:linkingPhrase <https://www.cdisc.org/cosmos/sdtm_v1.0/LinkingPhraseEnum#is%20the%20result%20of%20the%20test%20in> ;
    cosmos_sdtm:object "SCTESTCD" ;
    cosmos_sdtm:predicateTerm <https://www.cdisc.org/cosmos/sdtm_v1.0/PredicateTermEnum#IS_RESULT_OF> ;
    cosmos_sdtm:subject "SCSTRESN" .

<https://w3id.org/cdisc/cosmos/dss/SC/BTHPLRTY/SCTEST/assignedTerm> a cosmos_sdtm:AssignedTerm ;
    cosmos_sdtm:conceptId NCIT:C198361 ;
    cosmos_sdtm:value "Birth Plurality" .

<https://w3id.org/cdisc/cosmos/dss/SC/BTHPLRTY/SCTEST/relationship> a cosmos_sdtm:RelationShip ;
    cosmos_sdtm:linkingPhrase <https://www.cdisc.org/cosmos/sdtm_v1.0/LinkingPhraseEnum#decodes%20the%20value%20in> ;
    cosmos_sdtm:object "SCTESTCD" ;
    cosmos_sdtm:predicateTerm <https://www.cdisc.org/cosmos/sdtm_v1.0/PredicateTermEnum#DECODES> ;
    cosmos_sdtm:subject "SCTEST" .

<https://w3id.org/cdisc/cosmos/dss/SC/BTHPLRTY/SCTESTCD/assignedTerm> a cosmos_sdtm:AssignedTerm ;
    cosmos_sdtm:conceptId NCIT:C198361 ;
    cosmos_sdtm:value "BTHPLRTY" .

<https://w3id.org/cdisc/cosmos/dss/SC/BTHPLRTY/SCTESTCD/relationship> a cosmos_sdtm:RelationShip ;
    cosmos_sdtm:linkingPhrase <https://www.cdisc.org/cosmos/sdtm_v1.0/LinkingPhraseEnum#is%20the%20code%20for%20the%20value%20in> ;
    cosmos_sdtm:object "SCTEST" ;
    cosmos_sdtm:predicateTerm <https://www.cdisc.org/cosmos/sdtm_v1.0/PredicateTermEnum#IS_DECODED_BY> ;
    cosmos_sdtm:subject "SCTESTCD" .

<https://w3id.org/cdisc/cosmos/dss/SC/CHLDHSHN/SCCAT/relationship> a cosmos_sdtm:RelationShip ;
    cosmos_sdtm:linkingPhrase <https://www.cdisc.org/cosmos/sdtm_v1.0/LinkingPhraseEnum#groups%20values%20in> ;
    cosmos_sdtm:object "SCTESTCD" ;
    cosmos_sdtm:predicateTerm <https://www.cdisc.org/cosmos/sdtm_v1.0/PredicateTermEnum#GROUPS> ;
    cosmos_sdtm:subject "SCCAT" .

<https://w3id.org/cdisc/cosmos/dss/SC/CHLDHSHN/SCDTC/relationship> a cosmos_sdtm:RelationShip ;
    cosmos_sdtm:linkingPhrase <https://www.cdisc.org/cosmos/sdtm_v1.0/LinkingPhraseEnum#is%20the%20date%20of%20occurrence%20for> ;
    cosmos_sdtm:object "SCTESTCD" ;
    cosmos_sdtm:predicateTerm <https://www.cdisc.org/cosmos/sdtm_v1.0/PredicateTermEnum#IS_TIMING_FOR> ;
    cosmos_sdtm:subject "SCDTC" .

<https://w3id.org/cdisc/cosmos/dss/SC/CHLDHSHN/SCORRES/relationship> a cosmos_sdtm:RelationShip ;
    cosmos_sdtm:linkingPhrase <https://www.cdisc.org/cosmos/sdtm_v1.0/LinkingPhraseEnum#is%20the%20result%20of%20the%20test%20in> ;
    cosmos_sdtm:object "SCTESTCD" ;
    cosmos_sdtm:predicateTerm <https://www.cdisc.org/cosmos/sdtm_v1.0/PredicateTermEnum#IS_RESULT_OF> ;
    cosmos_sdtm:subject "SCORRES" .

<https://w3id.org/cdisc/cosmos/dss/SC/CHLDHSHN/SCSTRESC/relationship> a cosmos_sdtm:RelationShip ;
    cosmos_sdtm:linkingPhrase <https://www.cdisc.org/cosmos/sdtm_v1.0/LinkingPhraseEnum#is%20the%20result%20of%20the%20test%20in> ;
    cosmos_sdtm:object "SCTESTCD" ;
    cosmos_sdtm:predicateTerm <https://www.cdisc.org/cosmos/sdtm_v1.0/PredicateTermEnum#IS_RESULT_OF> ;
    cosmos_sdtm:subject "SCSTRESC" .

<https://w3id.org/cdisc/cosmos/dss/SC/CHLDHSHN/SCSTRESN/relationship> a cosmos_sdtm:RelationShip ;
    cosmos_sdtm:linkingPhrase <https://www.cdisc.org/cosmos/sdtm_v1.0/LinkingPhraseEnum#is%20the%20result%20of%20the%20test%20in> ;
    cosmos_sdtm:object "SCTESTCD" ;
    cosmos_sdtm:predicateTerm <https://www.cdisc.org/cosmos/sdtm_v1.0/PredicateTermEnum#IS_RESULT_OF> ;
    cosmos_sdtm:subject "SCSTRESN" .

<https://w3id.org/cdisc/cosmos/dss/SC/CHLDHSHN/SCTEST/assignedTerm> a cosmos_sdtm:AssignedTerm ;
    cosmos_sdtm:conceptId NCIT:C19309 ;
    cosmos_sdtm:value "Number of Children in Household" .

<https://w3id.org/cdisc/cosmos/dss/SC/CHLDHSHN/SCTEST/relationship> a cosmos_sdtm:RelationShip ;
    cosmos_sdtm:linkingPhrase <https://www.cdisc.org/cosmos/sdtm_v1.0/LinkingPhraseEnum#decodes%20the%20value%20in> ;
    cosmos_sdtm:object "SCTESTCD" ;
    cosmos_sdtm:predicateTerm <https://www.cdisc.org/cosmos/sdtm_v1.0/PredicateTermEnum#DECODES> ;
    cosmos_sdtm:subject "SCTEST" .

<https://w3id.org/cdisc/cosmos/dss/SC/CHLDHSHN/SCTESTCD/assignedTerm> a cosmos_sdtm:AssignedTerm ;
    cosmos_sdtm:conceptId NCIT:C19309 ;
    cosmos_sdtm:value "CHLDHSHN" .

<https://w3id.org/cdisc/cosmos/dss/SC/CHLDHSHN/SCTESTCD/relationship> a cosmos_sdtm:RelationShip ;
    cosmos_sdtm:linkingPhrase <https://www.cdisc.org/cosmos/sdtm_v1.0/LinkingPhraseEnum#is%20the%20code%20for%20the%20value%20in> ;
    cosmos_sdtm:object "SCTEST" ;
    cosmos_sdtm:predicateTerm <https://www.cdisc.org/cosmos/sdtm_v1.0/PredicateTermEnum#IS_DECODED_BY> ;
    cosmos_sdtm:subject "SCTESTCD" .

<https://w3id.org/cdisc/cosmos/dss/SC/CINVIND/SCCAT/relationship> a cosmos_sdtm:RelationShip ;
    cosmos_sdtm:linkingPhrase <https://www.cdisc.org/cosmos/sdtm_v1.0/LinkingPhraseEnum#groups%20values%20in> ;
    cosmos_sdtm:object "SCTESTCD" ;
    cosmos_sdtm:predicateTerm <https://www.cdisc.org/cosmos/sdtm_v1.0/PredicateTermEnum#GROUPS> ;
    cosmos_sdtm:subject "SCCAT" .

<https://w3id.org/cdisc/cosmos/dss/SC/CINVIND/SCDTC/relationship> a cosmos_sdtm:RelationShip ;
    cosmos_sdtm:linkingPhrase <https://www.cdisc.org/cosmos/sdtm_v1.0/LinkingPhraseEnum#is%20the%20date%20of%20occurrence%20for> ;
    cosmos_sdtm:object "SCTESTCD" ;
    cosmos_sdtm:predicateTerm <https://www.cdisc.org/cosmos/sdtm_v1.0/PredicateTermEnum#IS_TIMING_FOR> ;
    cosmos_sdtm:subject "SCDTC" .

<https://w3id.org/cdisc/cosmos/dss/SC/CINVIND/SCORRES/relationship> a cosmos_sdtm:RelationShip ;
    cosmos_sdtm:linkingPhrase <https://www.cdisc.org/cosmos/sdtm_v1.0/LinkingPhraseEnum#is%20the%20result%20of%20the%20test%20in> ;
    cosmos_sdtm:object "SCTESTCD" ;
    cosmos_sdtm:predicateTerm <https://www.cdisc.org/cosmos/sdtm_v1.0/PredicateTermEnum#IS_RESULT_OF> ;
    cosmos_sdtm:subject "SCORRES" .

<https://w3id.org/cdisc/cosmos/dss/SC/CINVIND/SCSTRESC/relationship> a cosmos_sdtm:RelationShip ;
    cosmos_sdtm:linkingPhrase <https://www.cdisc.org/cosmos/sdtm_v1.0/LinkingPhraseEnum#is%20the%20result%20of%20the%20test%20in> ;
    cosmos_sdtm:object "SCTESTCD" ;
    cosmos_sdtm:predicateTerm <https://www.cdisc.org/cosmos/sdtm_v1.0/PredicateTermEnum#IS_RESULT_OF> ;
    cosmos_sdtm:subject "SCSTRESC" .

<https://w3id.org/cdisc/cosmos/dss/SC/CINVIND/SCTEST/assignedTerm> a cosmos_sdtm:AssignedTerm ;
    cosmos_sdtm:conceptId NCIT:C202576 ;
    cosmos_sdtm:value "Contact Investigation Indicator" .

<https://w3id.org/cdisc/cosmos/dss/SC/CINVIND/SCTEST/relationship> a cosmos_sdtm:RelationShip ;
    cosmos_sdtm:linkingPhrase <https://www.cdisc.org/cosmos/sdtm_v1.0/LinkingPhraseEnum#decodes%20the%20value%20in> ;
    cosmos_sdtm:object "SCTESTCD" ;
    cosmos_sdtm:predicateTerm <https://www.cdisc.org/cosmos/sdtm_v1.0/PredicateTermEnum#DECODES> ;
    cosmos_sdtm:subject "SCTEST" .

<https://w3id.org/cdisc/cosmos/dss/SC/CINVIND/SCTESTCD/assignedTerm> a cosmos_sdtm:AssignedTerm ;
    cosmos_sdtm:conceptId NCIT:C202576 ;
    cosmos_sdtm:value "CINVIND" .

<https://w3id.org/cdisc/cosmos/dss/SC/CINVIND/SCTESTCD/relationship> a cosmos_sdtm:RelationShip ;
    cosmos_sdtm:linkingPhrase <https://www.cdisc.org/cosmos/sdtm_v1.0/LinkingPhraseEnum#is%20the%20code%20for%20the%20value%20in> ;
    cosmos_sdtm:object "SCTEST" ;
    cosmos_sdtm:predicateTerm <https://www.cdisc.org/cosmos/sdtm_v1.0/PredicateTermEnum#IS_DECODED_BY> ;
    cosmos_sdtm:subject "SCTESTCD" .

<https://w3id.org/cdisc/cosmos/dss/SC/CNTYPAD/SCCAT/relationship> a cosmos_sdtm:RelationShip ;
    cosmos_sdtm:linkingPhrase <https://www.cdisc.org/cosmos/sdtm_v1.0/LinkingPhraseEnum#groups%20values%20in> ;
    cosmos_sdtm:object "SCTESTCD" ;
    cosmos_sdtm:predicateTerm <https://www.cdisc.org/cosmos/sdtm_v1.0/PredicateTermEnum#GROUPS> ;
    cosmos_sdtm:subject "SCCAT" .

<https://w3id.org/cdisc/cosmos/dss/SC/CNTYPAD/SCDTC/relationship> a cosmos_sdtm:RelationShip ;
    cosmos_sdtm:linkingPhrase <https://www.cdisc.org/cosmos/sdtm_v1.0/LinkingPhraseEnum#is%20the%20date%20of%20occurrence%20for> ;
    cosmos_sdtm:object "SCTESTCD" ;
    cosmos_sdtm:predicateTerm <https://www.cdisc.org/cosmos/sdtm_v1.0/PredicateTermEnum#IS_TIMING_FOR> ;
    cosmos_sdtm:subject "SCDTC" .

<https://w3id.org/cdisc/cosmos/dss/SC/CNTYPAD/SCORRES/relationship> a cosmos_sdtm:RelationShip ;
    cosmos_sdtm:linkingPhrase <https://www.cdisc.org/cosmos/sdtm_v1.0/LinkingPhraseEnum#is%20the%20result%20of%20the%20test%20in> ;
    cosmos_sdtm:object "SCTESTCD" ;
    cosmos_sdtm:predicateTerm <https://www.cdisc.org/cosmos/sdtm_v1.0/PredicateTermEnum#IS_RESULT_OF> ;
    cosmos_sdtm:subject "SCORRES" .

<https://w3id.org/cdisc/cosmos/dss/SC/CNTYPAD/SCSTRESC/relationship> a cosmos_sdtm:RelationShip ;
    cosmos_sdtm:linkingPhrase <https://www.cdisc.org/cosmos/sdtm_v1.0/LinkingPhraseEnum#is%20the%20result%20of%20the%20test%20in> ;
    cosmos_sdtm:object "SCTESTCD" ;
    cosmos_sdtm:predicateTerm <https://www.cdisc.org/cosmos/sdtm_v1.0/PredicateTermEnum#IS_RESULT_OF> ;
    cosmos_sdtm:subject "SCSTRESC" .

<https://w3id.org/cdisc/cosmos/dss/SC/CNTYPAD/SCTEST/assignedTerm> a cosmos_sdtm:AssignedTerm ;
    cosmos_sdtm:conceptId NCIT:C176362 ;
    cosmos_sdtm:value "County of Permanent Address" .

<https://w3id.org/cdisc/cosmos/dss/SC/CNTYPAD/SCTEST/relationship> a cosmos_sdtm:RelationShip ;
    cosmos_sdtm:linkingPhrase <https://www.cdisc.org/cosmos/sdtm_v1.0/LinkingPhraseEnum#decodes%20the%20value%20in> ;
    cosmos_sdtm:object "SCTESTCD" ;
    cosmos_sdtm:predicateTerm <https://www.cdisc.org/cosmos/sdtm_v1.0/PredicateTermEnum#DECODES> ;
    cosmos_sdtm:subject "SCTEST" .

<https://w3id.org/cdisc/cosmos/dss/SC/CNTYPAD/SCTESTCD/assignedTerm> a cosmos_sdtm:AssignedTerm ;
    cosmos_sdtm:conceptId NCIT:C176362 ;
    cosmos_sdtm:value "CNTYPAD" .

<https://w3id.org/cdisc/cosmos/dss/SC/CNTYPAD/SCTESTCD/relationship> a cosmos_sdtm:RelationShip ;
    cosmos_sdtm:linkingPhrase <https://www.cdisc.org/cosmos/sdtm_v1.0/LinkingPhraseEnum#is%20the%20code%20for%20the%20value%20in> ;
    cosmos_sdtm:object "SCTEST" ;
    cosmos_sdtm:predicateTerm <https://www.cdisc.org/cosmos/sdtm_v1.0/PredicateTermEnum#IS_DECODED_BY> ;
    cosmos_sdtm:subject "SCTESTCD" .

<https://w3id.org/cdisc/cosmos/dss/SC/CTRYDDTC/SCCAT/relationship> a cosmos_sdtm:RelationShip ;
    cosmos_sdtm:linkingPhrase <https://www.cdisc.org/cosmos/sdtm_v1.0/LinkingPhraseEnum#groups%20values%20in> ;
    cosmos_sdtm:object "SCTESTCD" ;
    cosmos_sdtm:predicateTerm <https://www.cdisc.org/cosmos/sdtm_v1.0/PredicateTermEnum#GROUPS> ;
    cosmos_sdtm:subject "SCCAT" .

<https://w3id.org/cdisc/cosmos/dss/SC/CTRYDDTC/SCDTC/relationship> a cosmos_sdtm:RelationShip ;
    cosmos_sdtm:linkingPhrase <https://www.cdisc.org/cosmos/sdtm_v1.0/LinkingPhraseEnum#is%20the%20date%20of%20occurrence%20for> ;
    cosmos_sdtm:object "SCTESTCD" ;
    cosmos_sdtm:predicateTerm <https://www.cdisc.org/cosmos/sdtm_v1.0/PredicateTermEnum#IS_TIMING_FOR> ;
    cosmos_sdtm:subject "SCDTC" .

<https://w3id.org/cdisc/cosmos/dss/SC/CTRYDDTC/SCORRES/relationship> a cosmos_sdtm:RelationShip ;
    cosmos_sdtm:linkingPhrase <https://www.cdisc.org/cosmos/sdtm_v1.0/LinkingPhraseEnum#is%20the%20result%20of%20the%20test%20in> ;
    cosmos_sdtm:object "SCTESTCD" ;
    cosmos_sdtm:predicateTerm <https://www.cdisc.org/cosmos/sdtm_v1.0/PredicateTermEnum#IS_RESULT_OF> ;
    cosmos_sdtm:subject "SCORRES" .

<https://w3id.org/cdisc/cosmos/dss/SC/CTRYDDTC/SCSTRESC/relationship> a cosmos_sdtm:RelationShip ;
    cosmos_sdtm:linkingPhrase <https://www.cdisc.org/cosmos/sdtm_v1.0/LinkingPhraseEnum#is%20the%20result%20of%20the%20test%20in> ;
    cosmos_sdtm:object "SCTESTCD" ;
    cosmos_sdtm:predicateTerm <https://www.cdisc.org/cosmos/sdtm_v1.0/PredicateTermEnum#IS_RESULT_OF> ;
    cosmos_sdtm:subject "SCSTRESC" .

<https://w3id.org/cdisc/cosmos/dss/SC/CTRYDDTC/SCTEST/assignedTerm> a cosmos_sdtm:AssignedTerm ;
    cosmos_sdtm:conceptId NCIT:C102631 ;
    cosmos_sdtm:value "Entry Date from Ptntl Cntry Disease Exp" .

<https://w3id.org/cdisc/cosmos/dss/SC/CTRYDDTC/SCTEST/relationship> a cosmos_sdtm:RelationShip ;
    cosmos_sdtm:linkingPhrase <https://www.cdisc.org/cosmos/sdtm_v1.0/LinkingPhraseEnum#decodes%20the%20value%20in> ;
    cosmos_sdtm:object "SCTESTCD" ;
    cosmos_sdtm:predicateTerm <https://www.cdisc.org/cosmos/sdtm_v1.0/PredicateTermEnum#DECODES> ;
    cosmos_sdtm:subject "SCTEST" .

<https://w3id.org/cdisc/cosmos/dss/SC/CTRYDDTC/SCTESTCD/assignedTerm> a cosmos_sdtm:AssignedTerm ;
    cosmos_sdtm:conceptId NCIT:C102631 ;
    cosmos_sdtm:value "CTRYDDTC" .

<https://w3id.org/cdisc/cosmos/dss/SC/CTRYDDTC/SCTESTCD/relationship> a cosmos_sdtm:RelationShip ;
    cosmos_sdtm:linkingPhrase <https://www.cdisc.org/cosmos/sdtm_v1.0/LinkingPhraseEnum#is%20the%20code%20for%20the%20value%20in> ;
    cosmos_sdtm:object "SCTEST" ;
    cosmos_sdtm:predicateTerm <https://www.cdisc.org/cosmos/sdtm_v1.0/PredicateTermEnum#IS_DECODED_BY> ;
    cosmos_sdtm:subject "SCTESTCD" .

<https://w3id.org/cdisc/cosmos/dss/SC/CTRYDEXP/SCCAT/relationship> a cosmos_sdtm:RelationShip ;
    cosmos_sdtm:linkingPhrase <https://www.cdisc.org/cosmos/sdtm_v1.0/LinkingPhraseEnum#groups%20values%20in> ;
    cosmos_sdtm:object "SCTESTCD" ;
    cosmos_sdtm:predicateTerm <https://www.cdisc.org/cosmos/sdtm_v1.0/PredicateTermEnum#GROUPS> ;
    cosmos_sdtm:subject "SCCAT" .

<https://w3id.org/cdisc/cosmos/dss/SC/CTRYDEXP/SCDTC/relationship> a cosmos_sdtm:RelationShip ;
    cosmos_sdtm:linkingPhrase <https://www.cdisc.org/cosmos/sdtm_v1.0/LinkingPhraseEnum#is%20the%20date%20of%20occurrence%20for> ;
    cosmos_sdtm:object "SCTESTCD" ;
    cosmos_sdtm:predicateTerm <https://www.cdisc.org/cosmos/sdtm_v1.0/PredicateTermEnum#IS_TIMING_FOR> ;
    cosmos_sdtm:subject "SCDTC" .

<https://w3id.org/cdisc/cosmos/dss/SC/CTRYDEXP/SCORRES/relationship> a cosmos_sdtm:RelationShip ;
    cosmos_sdtm:linkingPhrase <https://www.cdisc.org/cosmos/sdtm_v1.0/LinkingPhraseEnum#is%20the%20result%20of%20the%20test%20in> ;
    cosmos_sdtm:object "SCTESTCD" ;
    cosmos_sdtm:predicateTerm <https://www.cdisc.org/cosmos/sdtm_v1.0/PredicateTermEnum#IS_RESULT_OF> ;
    cosmos_sdtm:subject "SCORRES" .

<https://w3id.org/cdisc/cosmos/dss/SC/CTRYDEXP/SCSTRESC/relationship> a cosmos_sdtm:RelationShip ;
    cosmos_sdtm:linkingPhrase <https://www.cdisc.org/cosmos/sdtm_v1.0/LinkingPhraseEnum#is%20the%20result%20of%20the%20test%20in> ;
    cosmos_sdtm:object "SCTESTCD" ;
    cosmos_sdtm:predicateTerm <https://www.cdisc.org/cosmos/sdtm_v1.0/PredicateTermEnum#IS_RESULT_OF> ;
    cosmos_sdtm:subject "SCSTRESC" .

<https://w3id.org/cdisc/cosmos/dss/SC/CTRYDEXP/SCTEST/assignedTerm> a cosmos_sdtm:AssignedTerm ;
    cosmos_sdtm:conceptId NCIT:C102612 ;
    cosmos_sdtm:value "Country of Potential Disease Exposure" .

<https://w3id.org/cdisc/cosmos/dss/SC/CTRYDEXP/SCTEST/relationship> a cosmos_sdtm:RelationShip ;
    cosmos_sdtm:linkingPhrase <https://www.cdisc.org/cosmos/sdtm_v1.0/LinkingPhraseEnum#decodes%20the%20value%20in> ;
    cosmos_sdtm:object "SCTESTCD" ;
    cosmos_sdtm:predicateTerm <https://www.cdisc.org/cosmos/sdtm_v1.0/PredicateTermEnum#DECODES> ;
    cosmos_sdtm:subject "SCTEST" .

<https://w3id.org/cdisc/cosmos/dss/SC/CTRYDEXP/SCTESTCD/assignedTerm> a cosmos_sdtm:AssignedTerm ;
    cosmos_sdtm:conceptId NCIT:C102612 ;
    cosmos_sdtm:value "CTRYDEXP" .

<https://w3id.org/cdisc/cosmos/dss/SC/CTRYDEXP/SCTESTCD/relationship> a cosmos_sdtm:RelationShip ;
    cosmos_sdtm:linkingPhrase <https://www.cdisc.org/cosmos/sdtm_v1.0/LinkingPhraseEnum#is%20the%20code%20for%20the%20value%20in> ;
    cosmos_sdtm:object "SCTEST" ;
    cosmos_sdtm:predicateTerm <https://www.cdisc.org/cosmos/sdtm_v1.0/PredicateTermEnum#IS_DECODED_BY> ;
    cosmos_sdtm:subject "SCTESTCD" .

<https://w3id.org/cdisc/cosmos/dss/SC/CTRYPAD/SCCAT/relationship> a cosmos_sdtm:RelationShip ;
    cosmos_sdtm:linkingPhrase <https://www.cdisc.org/cosmos/sdtm_v1.0/LinkingPhraseEnum#groups%20values%20in> ;
    cosmos_sdtm:object "SCTESTCD" ;
    cosmos_sdtm:predicateTerm <https://www.cdisc.org/cosmos/sdtm_v1.0/PredicateTermEnum#GROUPS> ;
    cosmos_sdtm:subject "SCCAT" .

<https://w3id.org/cdisc/cosmos/dss/SC/CTRYPAD/SCDTC/relationship> a cosmos_sdtm:RelationShip ;
    cosmos_sdtm:linkingPhrase <https://www.cdisc.org/cosmos/sdtm_v1.0/LinkingPhraseEnum#is%20the%20date%20of%20occurrence%20for> ;
    cosmos_sdtm:object "SCTESTCD" ;
    cosmos_sdtm:predicateTerm <https://www.cdisc.org/cosmos/sdtm_v1.0/PredicateTermEnum#IS_TIMING_FOR> ;
    cosmos_sdtm:subject "SCDTC" .

<https://w3id.org/cdisc/cosmos/dss/SC/CTRYPAD/SCORRES/relationship> a cosmos_sdtm:RelationShip ;
    cosmos_sdtm:linkingPhrase <https://www.cdisc.org/cosmos/sdtm_v1.0/LinkingPhraseEnum#is%20the%20result%20of%20the%20test%20in> ;
    cosmos_sdtm:object "SCTESTCD" ;
    cosmos_sdtm:predicateTerm <https://www.cdisc.org/cosmos/sdtm_v1.0/PredicateTermEnum#IS_RESULT_OF> ;
    cosmos_sdtm:subject "SCORRES" .

<https://w3id.org/cdisc/cosmos/dss/SC/CTRYPAD/SCSTRESC/relationship> a cosmos_sdtm:RelationShip ;
    cosmos_sdtm:linkingPhrase <https://www.cdisc.org/cosmos/sdtm_v1.0/LinkingPhraseEnum#is%20the%20result%20of%20the%20test%20in> ;
    cosmos_sdtm:object "SCTESTCD" ;
    cosmos_sdtm:predicateTerm <https://www.cdisc.org/cosmos/sdtm_v1.0/PredicateTermEnum#IS_RESULT_OF> ;
    cosmos_sdtm:subject "SCSTRESC" .

<https://w3id.org/cdisc/cosmos/dss/SC/CTRYPAD/SCTEST/assignedTerm> a cosmos_sdtm:AssignedTerm ;
    cosmos_sdtm:conceptId NCIT:C176365 ;
    cosmos_sdtm:value "Country of Permanent Address" .

<https://w3id.org/cdisc/cosmos/dss/SC/CTRYPAD/SCTEST/relationship> a cosmos_sdtm:RelationShip ;
    cosmos_sdtm:linkingPhrase <https://www.cdisc.org/cosmos/sdtm_v1.0/LinkingPhraseEnum#decodes%20the%20value%20in> ;
    cosmos_sdtm:object "SCTESTCD" ;
    cosmos_sdtm:predicateTerm <https://www.cdisc.org/cosmos/sdtm_v1.0/PredicateTermEnum#DECODES> ;
    cosmos_sdtm:subject "SCTEST" .

<https://w3id.org/cdisc/cosmos/dss/SC/CTRYPAD/SCTESTCD/assignedTerm> a cosmos_sdtm:AssignedTerm ;
    cosmos_sdtm:conceptId NCIT:C176365 ;
    cosmos_sdtm:value "CTRYPAD" .

<https://w3id.org/cdisc/cosmos/dss/SC/CTRYPAD/SCTESTCD/relationship> a cosmos_sdtm:RelationShip ;
    cosmos_sdtm:linkingPhrase <https://www.cdisc.org/cosmos/sdtm_v1.0/LinkingPhraseEnum#is%20the%20code%20for%20the%20value%20in> ;
    cosmos_sdtm:object "SCTEST" ;
    cosmos_sdtm:predicateTerm <https://www.cdisc.org/cosmos/sdtm_v1.0/PredicateTermEnum#IS_DECODED_BY> ;
    cosmos_sdtm:subject "SCTESTCD" .

<https://w3id.org/cdisc/cosmos/dss/SC/DAYCRIND/SCCAT/relationship> a cosmos_sdtm:RelationShip ;
    cosmos_sdtm:linkingPhrase <https://www.cdisc.org/cosmos/sdtm_v1.0/LinkingPhraseEnum#groups%20values%20in> ;
    cosmos_sdtm:object "SCTESTCD" ;
    cosmos_sdtm:predicateTerm <https://www.cdisc.org/cosmos/sdtm_v1.0/PredicateTermEnum#GROUPS> ;
    cosmos_sdtm:subject "SCCAT" .

<https://w3id.org/cdisc/cosmos/dss/SC/DAYCRIND/SCDTC/relationship> a cosmos_sdtm:RelationShip ;
    cosmos_sdtm:linkingPhrase <https://www.cdisc.org/cosmos/sdtm_v1.0/LinkingPhraseEnum#is%20the%20date%20of%20occurrence%20for> ;
    cosmos_sdtm:object "SCTESTCD" ;
    cosmos_sdtm:predicateTerm <https://www.cdisc.org/cosmos/sdtm_v1.0/PredicateTermEnum#IS_TIMING_FOR> ;
    cosmos_sdtm:subject "SCDTC" .

<https://w3id.org/cdisc/cosmos/dss/SC/DAYCRIND/SCORRES/relationship> a cosmos_sdtm:RelationShip ;
    cosmos_sdtm:linkingPhrase <https://www.cdisc.org/cosmos/sdtm_v1.0/LinkingPhraseEnum#is%20the%20result%20of%20the%20test%20in> ;
    cosmos_sdtm:object "SCTESTCD" ;
    cosmos_sdtm:predicateTerm <https://www.cdisc.org/cosmos/sdtm_v1.0/PredicateTermEnum#IS_RESULT_OF> ;
    cosmos_sdtm:subject "SCORRES" .

<https://w3id.org/cdisc/cosmos/dss/SC/DAYCRIND/SCSTRESC/relationship> a cosmos_sdtm:RelationShip ;
    cosmos_sdtm:linkingPhrase <https://www.cdisc.org/cosmos/sdtm_v1.0/LinkingPhraseEnum#is%20the%20result%20of%20the%20test%20in> ;
    cosmos_sdtm:object "SCTESTCD" ;
    cosmos_sdtm:predicateTerm <https://www.cdisc.org/cosmos/sdtm_v1.0/PredicateTermEnum#IS_RESULT_OF> ;
    cosmos_sdtm:subject "SCSTRESC" .

<https://w3id.org/cdisc/cosmos/dss/SC/DAYCRIND/SCTEST/assignedTerm> a cosmos_sdtm:AssignedTerm ;
    cosmos_sdtm:conceptId NCIT:C198362 ;
    cosmos_sdtm:value "Daycare Indicator" .

<https://w3id.org/cdisc/cosmos/dss/SC/DAYCRIND/SCTEST/relationship> a cosmos_sdtm:RelationShip ;
    cosmos_sdtm:linkingPhrase <https://www.cdisc.org/cosmos/sdtm_v1.0/LinkingPhraseEnum#decodes%20the%20value%20in> ;
    cosmos_sdtm:object "SCTESTCD" ;
    cosmos_sdtm:predicateTerm <https://www.cdisc.org/cosmos/sdtm_v1.0/PredicateTermEnum#DECODES> ;
    cosmos_sdtm:subject "SCTEST" .

<https://w3id.org/cdisc/cosmos/dss/SC/DAYCRIND/SCTESTCD/assignedTerm> a cosmos_sdtm:AssignedTerm ;
    cosmos_sdtm:conceptId NCIT:C198362 ;
    cosmos_sdtm:value "DAYCRIND" .

<https://w3id.org/cdisc/cosmos/dss/SC/DAYCRIND/SCTESTCD/relationship> a cosmos_sdtm:RelationShip ;
    cosmos_sdtm:linkingPhrase <https://www.cdisc.org/cosmos/sdtm_v1.0/LinkingPhraseEnum#is%20the%20code%20for%20the%20value%20in> ;
    cosmos_sdtm:object "SCTEST" ;
    cosmos_sdtm:predicateTerm <https://www.cdisc.org/cosmos/sdtm_v1.0/PredicateTermEnum#IS_DECODED_BY> ;
    cosmos_sdtm:subject "SCTESTCD" .

<https://w3id.org/cdisc/cosmos/dss/SC/DDDTYPE/SCCAT/relationship> a cosmos_sdtm:RelationShip ;
    cosmos_sdtm:linkingPhrase <https://www.cdisc.org/cosmos/sdtm_v1.0/LinkingPhraseEnum#groups%20values%20in> ;
    cosmos_sdtm:object "SCTESTCD" ;
    cosmos_sdtm:predicateTerm <https://www.cdisc.org/cosmos/sdtm_v1.0/PredicateTermEnum#GROUPS> ;
    cosmos_sdtm:subject "SCCAT" .

<https://w3id.org/cdisc/cosmos/dss/SC/DDDTYPE/SCDTC/relationship> a cosmos_sdtm:RelationShip ;
    cosmos_sdtm:linkingPhrase <https://www.cdisc.org/cosmos/sdtm_v1.0/LinkingPhraseEnum#is%20the%20date%20of%20occurrence%20for> ;
    cosmos_sdtm:object "SCTESTCD" ;
    cosmos_sdtm:predicateTerm <https://www.cdisc.org/cosmos/sdtm_v1.0/PredicateTermEnum#IS_TIMING_FOR> ;
    cosmos_sdtm:subject "SCDTC" .

<https://w3id.org/cdisc/cosmos/dss/SC/DDDTYPE/SCORRES/relationship> a cosmos_sdtm:RelationShip ;
    cosmos_sdtm:linkingPhrase <https://www.cdisc.org/cosmos/sdtm_v1.0/LinkingPhraseEnum#is%20the%20result%20of%20the%20test%20in> ;
    cosmos_sdtm:object "SCTESTCD" ;
    cosmos_sdtm:predicateTerm <https://www.cdisc.org/cosmos/sdtm_v1.0/PredicateTermEnum#IS_RESULT_OF> ;
    cosmos_sdtm:subject "SCORRES" .

<https://w3id.org/cdisc/cosmos/dss/SC/DDDTYPE/SCSTRESC/relationship> a cosmos_sdtm:RelationShip ;
    cosmos_sdtm:linkingPhrase <https://www.cdisc.org/cosmos/sdtm_v1.0/LinkingPhraseEnum#is%20the%20result%20of%20the%20test%20in> ;
    cosmos_sdtm:object "SCTESTCD" ;
    cosmos_sdtm:predicateTerm <https://www.cdisc.org/cosmos/sdtm_v1.0/PredicateTermEnum#IS_RESULT_OF> ;
    cosmos_sdtm:subject "SCSTRESC" .

<https://w3id.org/cdisc/cosmos/dss/SC/DDDTYPE/SCTEST/assignedTerm> a cosmos_sdtm:AssignedTerm ;
    cosmos_sdtm:conceptId NCIT:C139270 ;
    cosmos_sdtm:value "Deceased Donor Donation Type" .

<https://w3id.org/cdisc/cosmos/dss/SC/DDDTYPE/SCTEST/relationship> a cosmos_sdtm:RelationShip ;
    cosmos_sdtm:linkingPhrase <https://www.cdisc.org/cosmos/sdtm_v1.0/LinkingPhraseEnum#decodes%20the%20value%20in> ;
    cosmos_sdtm:object "SCTESTCD" ;
    cosmos_sdtm:predicateTerm <https://www.cdisc.org/cosmos/sdtm_v1.0/PredicateTermEnum#DECODES> ;
    cosmos_sdtm:subject "SCTEST" .

<https://w3id.org/cdisc/cosmos/dss/SC/DDDTYPE/SCTESTCD/assignedTerm> a cosmos_sdtm:AssignedTerm ;
    cosmos_sdtm:conceptId NCIT:C139270 ;
    cosmos_sdtm:value "DDDTYPE" .

<https://w3id.org/cdisc/cosmos/dss/SC/DDDTYPE/SCTESTCD/relationship> a cosmos_sdtm:RelationShip ;
    cosmos_sdtm:linkingPhrase <https://www.cdisc.org/cosmos/sdtm_v1.0/LinkingPhraseEnum#is%20the%20code%20for%20the%20value%20in> ;
    cosmos_sdtm:object "SCTEST" ;
    cosmos_sdtm:predicateTerm <https://www.cdisc.org/cosmos/sdtm_v1.0/PredicateTermEnum#IS_DECODED_BY> ;
    cosmos_sdtm:subject "SCTESTCD" .

<https://w3id.org/cdisc/cosmos/dss/SC/DISTDEXP/SCCAT/relationship> a cosmos_sdtm:RelationShip ;
    cosmos_sdtm:linkingPhrase <https://www.cdisc.org/cosmos/sdtm_v1.0/LinkingPhraseEnum#groups%20values%20in> ;
    cosmos_sdtm:object "SCTESTCD" ;
    cosmos_sdtm:predicateTerm <https://www.cdisc.org/cosmos/sdtm_v1.0/PredicateTermEnum#GROUPS> ;
    cosmos_sdtm:subject "SCCAT" .

<https://w3id.org/cdisc/cosmos/dss/SC/DISTDEXP/SCDTC/relationship> a cosmos_sdtm:RelationShip ;
    cosmos_sdtm:linkingPhrase <https://www.cdisc.org/cosmos/sdtm_v1.0/LinkingPhraseEnum#is%20the%20date%20of%20occurrence%20for> ;
    cosmos_sdtm:object "SCTESTCD" ;
    cosmos_sdtm:predicateTerm <https://www.cdisc.org/cosmos/sdtm_v1.0/PredicateTermEnum#IS_TIMING_FOR> ;
    cosmos_sdtm:subject "SCDTC" .

<https://w3id.org/cdisc/cosmos/dss/SC/DISTDEXP/SCORRES/relationship> a cosmos_sdtm:RelationShip ;
    cosmos_sdtm:linkingPhrase <https://www.cdisc.org/cosmos/sdtm_v1.0/LinkingPhraseEnum#is%20the%20result%20of%20the%20test%20in> ;
    cosmos_sdtm:object "SCTESTCD" ;
    cosmos_sdtm:predicateTerm <https://www.cdisc.org/cosmos/sdtm_v1.0/PredicateTermEnum#IS_RESULT_OF> ;
    cosmos_sdtm:subject "SCORRES" .

<https://w3id.org/cdisc/cosmos/dss/SC/DISTDEXP/SCSTRESC/relationship> a cosmos_sdtm:RelationShip ;
    cosmos_sdtm:linkingPhrase <https://www.cdisc.org/cosmos/sdtm_v1.0/LinkingPhraseEnum#is%20the%20result%20of%20the%20test%20in> ;
    cosmos_sdtm:object "SCTESTCD" ;
    cosmos_sdtm:predicateTerm <https://www.cdisc.org/cosmos/sdtm_v1.0/PredicateTermEnum#IS_RESULT_OF> ;
    cosmos_sdtm:subject "SCSTRESC" .

<https://w3id.org/cdisc/cosmos/dss/SC/DISTDEXP/SCTEST/assignedTerm> a cosmos_sdtm:AssignedTerm ;
    cosmos_sdtm:conceptId NCIT:C174364 ;
    cosmos_sdtm:value "District of Potential Disease Exposure" .

<https://w3id.org/cdisc/cosmos/dss/SC/DISTDEXP/SCTEST/relationship> a cosmos_sdtm:RelationShip ;
    cosmos_sdtm:linkingPhrase <https://www.cdisc.org/cosmos/sdtm_v1.0/LinkingPhraseEnum#decodes%20the%20value%20in> ;
    cosmos_sdtm:object "SCTESTCD" ;
    cosmos_sdtm:predicateTerm <https://www.cdisc.org/cosmos/sdtm_v1.0/PredicateTermEnum#DECODES> ;
    cosmos_sdtm:subject "SCTEST" .

<https://w3id.org/cdisc/cosmos/dss/SC/DISTDEXP/SCTESTCD/assignedTerm> a cosmos_sdtm:AssignedTerm ;
    cosmos_sdtm:conceptId NCIT:C174364 ;
    cosmos_sdtm:value "DISTDEXP" .

<https://w3id.org/cdisc/cosmos/dss/SC/DISTDEXP/SCTESTCD/relationship> a cosmos_sdtm:RelationShip ;
    cosmos_sdtm:linkingPhrase <https://www.cdisc.org/cosmos/sdtm_v1.0/LinkingPhraseEnum#is%20the%20code%20for%20the%20value%20in> ;
    cosmos_sdtm:object "SCTEST" ;
    cosmos_sdtm:predicateTerm <https://www.cdisc.org/cosmos/sdtm_v1.0/PredicateTermEnum#IS_DECODED_BY> ;
    cosmos_sdtm:subject "SCTESTCD" .

<https://w3id.org/cdisc/cosmos/dss/SC/DISTPAD/SCCAT/relationship> a cosmos_sdtm:RelationShip ;
    cosmos_sdtm:linkingPhrase <https://www.cdisc.org/cosmos/sdtm_v1.0/LinkingPhraseEnum#groups%20values%20in> ;
    cosmos_sdtm:object "SCTESTCD" ;
    cosmos_sdtm:predicateTerm <https://www.cdisc.org/cosmos/sdtm_v1.0/PredicateTermEnum#GROUPS> ;
    cosmos_sdtm:subject "SCCAT" .

<https://w3id.org/cdisc/cosmos/dss/SC/DISTPAD/SCDTC/relationship> a cosmos_sdtm:RelationShip ;
    cosmos_sdtm:linkingPhrase <https://www.cdisc.org/cosmos/sdtm_v1.0/LinkingPhraseEnum#is%20the%20date%20of%20occurrence%20for> ;
    cosmos_sdtm:object "SCTESTCD" ;
    cosmos_sdtm:predicateTerm <https://www.cdisc.org/cosmos/sdtm_v1.0/PredicateTermEnum#IS_TIMING_FOR> ;
    cosmos_sdtm:subject "SCDTC" .

<https://w3id.org/cdisc/cosmos/dss/SC/DISTPAD/SCORRES/relationship> a cosmos_sdtm:RelationShip ;
    cosmos_sdtm:linkingPhrase <https://www.cdisc.org/cosmos/sdtm_v1.0/LinkingPhraseEnum#is%20the%20result%20of%20the%20test%20in> ;
    cosmos_sdtm:object "SCTESTCD" ;
    cosmos_sdtm:predicateTerm <https://www.cdisc.org/cosmos/sdtm_v1.0/PredicateTermEnum#IS_RESULT_OF> ;
    cosmos_sdtm:subject "SCORRES" .

<https://w3id.org/cdisc/cosmos/dss/SC/DISTPAD/SCSTRESC/relationship> a cosmos_sdtm:RelationShip ;
    cosmos_sdtm:linkingPhrase <https://www.cdisc.org/cosmos/sdtm_v1.0/LinkingPhraseEnum#is%20the%20result%20of%20the%20test%20in> ;
    cosmos_sdtm:object "SCTESTCD" ;
    cosmos_sdtm:predicateTerm <https://www.cdisc.org/cosmos/sdtm_v1.0/PredicateTermEnum#IS_RESULT_OF> ;
    cosmos_sdtm:subject "SCSTRESC" .

<https://w3id.org/cdisc/cosmos/dss/SC/DISTPAD/SCTEST/assignedTerm> a cosmos_sdtm:AssignedTerm ;
    cosmos_sdtm:conceptId NCIT:C176363 ;
    cosmos_sdtm:value "District of Permanent Address" .

<https://w3id.org/cdisc/cosmos/dss/SC/DISTPAD/SCTEST/relationship> a cosmos_sdtm:RelationShip ;
    cosmos_sdtm:linkingPhrase <https://www.cdisc.org/cosmos/sdtm_v1.0/LinkingPhraseEnum#decodes%20the%20value%20in> ;
    cosmos_sdtm:object "SCTESTCD" ;
    cosmos_sdtm:predicateTerm <https://www.cdisc.org/cosmos/sdtm_v1.0/PredicateTermEnum#DECODES> ;
    cosmos_sdtm:subject "SCTEST" .

<https://w3id.org/cdisc/cosmos/dss/SC/DISTPAD/SCTESTCD/assignedTerm> a cosmos_sdtm:AssignedTerm ;
    cosmos_sdtm:conceptId NCIT:C176363 ;
    cosmos_sdtm:value "DISTPAD" .

<https://w3id.org/cdisc/cosmos/dss/SC/DISTPAD/SCTESTCD/relationship> a cosmos_sdtm:RelationShip ;
    cosmos_sdtm:linkingPhrase <https://www.cdisc.org/cosmos/sdtm_v1.0/LinkingPhraseEnum#is%20the%20code%20for%20the%20value%20in> ;
    cosmos_sdtm:object "SCTEST" ;
    cosmos_sdtm:predicateTerm <https://www.cdisc.org/cosmos/sdtm_v1.0/PredicateTermEnum#IS_DECODED_BY> ;
    cosmos_sdtm:subject "SCTESTCD" .

<https://w3id.org/cdisc/cosmos/dss/SC/DSTATTOD/SCCAT/relationship> a cosmos_sdtm:RelationShip ;
    cosmos_sdtm:linkingPhrase <https://www.cdisc.org/cosmos/sdtm_v1.0/LinkingPhraseEnum#groups%20values%20in> ;
    cosmos_sdtm:object "SCTESTCD" ;
    cosmos_sdtm:predicateTerm <https://www.cdisc.org/cosmos/sdtm_v1.0/PredicateTermEnum#GROUPS> ;
    cosmos_sdtm:subject "SCCAT" .

<https://w3id.org/cdisc/cosmos/dss/SC/DSTATTOD/SCDTC/relationship> a cosmos_sdtm:RelationShip ;
    cosmos_sdtm:linkingPhrase <https://www.cdisc.org/cosmos/sdtm_v1.0/LinkingPhraseEnum#is%20the%20date%20of%20occurrence%20for> ;
    cosmos_sdtm:object "SCTESTCD" ;
    cosmos_sdtm:predicateTerm <https://www.cdisc.org/cosmos/sdtm_v1.0/PredicateTermEnum#IS_TIMING_FOR> ;
    cosmos_sdtm:subject "SCDTC" .

<https://w3id.org/cdisc/cosmos/dss/SC/DSTATTOD/SCORRES/relationship> a cosmos_sdtm:RelationShip ;
    cosmos_sdtm:linkingPhrase <https://www.cdisc.org/cosmos/sdtm_v1.0/LinkingPhraseEnum#is%20the%20result%20of%20the%20test%20in> ;
    cosmos_sdtm:object "SCTESTCD" ;
    cosmos_sdtm:predicateTerm <https://www.cdisc.org/cosmos/sdtm_v1.0/PredicateTermEnum#IS_RESULT_OF> ;
    cosmos_sdtm:subject "SCORRES" .

<https://w3id.org/cdisc/cosmos/dss/SC/DSTATTOD/SCSTRESC/relationship> a cosmos_sdtm:RelationShip ;
    cosmos_sdtm:linkingPhrase <https://www.cdisc.org/cosmos/sdtm_v1.0/LinkingPhraseEnum#is%20the%20result%20of%20the%20test%20in> ;
    cosmos_sdtm:object "SCTESTCD" ;
    cosmos_sdtm:predicateTerm <https://www.cdisc.org/cosmos/sdtm_v1.0/PredicateTermEnum#IS_RESULT_OF> ;
    cosmos_sdtm:subject "SCSTRESC" .

<https://w3id.org/cdisc/cosmos/dss/SC/DSTATTOD/SCTEST/assignedTerm> a cosmos_sdtm:AssignedTerm ;
    cosmos_sdtm:conceptId NCIT:C139269 ;
    cosmos_sdtm:value "Donor Status at Time of Organ Donation" .

<https://w3id.org/cdisc/cosmos/dss/SC/DSTATTOD/SCTEST/relationship> a cosmos_sdtm:RelationShip ;
    cosmos_sdtm:linkingPhrase <https://www.cdisc.org/cosmos/sdtm_v1.0/LinkingPhraseEnum#decodes%20the%20value%20in> ;
    cosmos_sdtm:object "SCTESTCD" ;
    cosmos_sdtm:predicateTerm <https://www.cdisc.org/cosmos/sdtm_v1.0/PredicateTermEnum#DECODES> ;
    cosmos_sdtm:subject "SCTEST" .

<https://w3id.org/cdisc/cosmos/dss/SC/DSTATTOD/SCTESTCD/assignedTerm> a cosmos_sdtm:AssignedTerm ;
    cosmos_sdtm:conceptId NCIT:C139269 ;
    cosmos_sdtm:value "DSTATTOD" .

<https://w3id.org/cdisc/cosmos/dss/SC/DSTATTOD/SCTESTCD/relationship> a cosmos_sdtm:RelationShip ;
    cosmos_sdtm:linkingPhrase <https://www.cdisc.org/cosmos/sdtm_v1.0/LinkingPhraseEnum#is%20the%20code%20for%20the%20value%20in> ;
    cosmos_sdtm:object "SCTEST" ;
    cosmos_sdtm:predicateTerm <https://www.cdisc.org/cosmos/sdtm_v1.0/PredicateTermEnum#IS_DECODED_BY> ;
    cosmos_sdtm:subject "SCTESTCD" .

<https://w3id.org/cdisc/cosmos/dss/SC/DWELLTYP/SCCAT/relationship> a cosmos_sdtm:RelationShip ;
    cosmos_sdtm:linkingPhrase <https://www.cdisc.org/cosmos/sdtm_v1.0/LinkingPhraseEnum#groups%20values%20in> ;
    cosmos_sdtm:object "SCTESTCD" ;
    cosmos_sdtm:predicateTerm <https://www.cdisc.org/cosmos/sdtm_v1.0/PredicateTermEnum#GROUPS> ;
    cosmos_sdtm:subject "SCCAT" .

<https://w3id.org/cdisc/cosmos/dss/SC/DWELLTYP/SCDTC/relationship> a cosmos_sdtm:RelationShip ;
    cosmos_sdtm:linkingPhrase <https://www.cdisc.org/cosmos/sdtm_v1.0/LinkingPhraseEnum#is%20the%20date%20of%20occurrence%20for> ;
    cosmos_sdtm:object "SCTESTCD" ;
    cosmos_sdtm:predicateTerm <https://www.cdisc.org/cosmos/sdtm_v1.0/PredicateTermEnum#IS_TIMING_FOR> ;
    cosmos_sdtm:subject "SCDTC" .

<https://w3id.org/cdisc/cosmos/dss/SC/DWELLTYP/SCORRES/relationship> a cosmos_sdtm:RelationShip ;
    cosmos_sdtm:linkingPhrase <https://www.cdisc.org/cosmos/sdtm_v1.0/LinkingPhraseEnum#is%20the%20result%20of%20the%20test%20in> ;
    cosmos_sdtm:object "SCTESTCD" ;
    cosmos_sdtm:predicateTerm <https://www.cdisc.org/cosmos/sdtm_v1.0/PredicateTermEnum#IS_RESULT_OF> ;
    cosmos_sdtm:subject "SCORRES" .

<https://w3id.org/cdisc/cosmos/dss/SC/DWELLTYP/SCSTRESC/relationship> a cosmos_sdtm:RelationShip ;
    cosmos_sdtm:linkingPhrase <https://www.cdisc.org/cosmos/sdtm_v1.0/LinkingPhraseEnum#is%20the%20result%20of%20the%20test%20in> ;
    cosmos_sdtm:object "SCTESTCD" ;
    cosmos_sdtm:predicateTerm <https://www.cdisc.org/cosmos/sdtm_v1.0/PredicateTermEnum#IS_RESULT_OF> ;
    cosmos_sdtm:subject "SCSTRESC" .

<https://w3id.org/cdisc/cosmos/dss/SC/DWELLTYP/SCTEST/assignedTerm> a cosmos_sdtm:AssignedTerm ;
    cosmos_sdtm:conceptId NCIT:C86029 ;
    cosmos_sdtm:value "Dwelling Type" .

<https://w3id.org/cdisc/cosmos/dss/SC/DWELLTYP/SCTEST/relationship> a cosmos_sdtm:RelationShip ;
    cosmos_sdtm:linkingPhrase <https://www.cdisc.org/cosmos/sdtm_v1.0/LinkingPhraseEnum#decodes%20the%20value%20in> ;
    cosmos_sdtm:object "SCTESTCD" ;
    cosmos_sdtm:predicateTerm <https://www.cdisc.org/cosmos/sdtm_v1.0/PredicateTermEnum#DECODES> ;
    cosmos_sdtm:subject "SCTEST" .

<https://w3id.org/cdisc/cosmos/dss/SC/DWELLTYP/SCTESTCD/assignedTerm> a cosmos_sdtm:AssignedTerm ;
    cosmos_sdtm:conceptId NCIT:C86029 ;
    cosmos_sdtm:value "DWELLTYP" .

<https://w3id.org/cdisc/cosmos/dss/SC/DWELLTYP/SCTESTCD/relationship> a cosmos_sdtm:RelationShip ;
    cosmos_sdtm:linkingPhrase <https://www.cdisc.org/cosmos/sdtm_v1.0/LinkingPhraseEnum#is%20the%20code%20for%20the%20value%20in> ;
    cosmos_sdtm:object "SCTEST" ;
    cosmos_sdtm:predicateTerm <https://www.cdisc.org/cosmos/sdtm_v1.0/PredicateTermEnum#IS_DECODED_BY> ;
    cosmos_sdtm:subject "SCTESTCD" .

<https://w3id.org/cdisc/cosmos/dss/SC/EDLVRDTC/SCCAT/relationship> a cosmos_sdtm:RelationShip ;
    cosmos_sdtm:linkingPhrase <https://www.cdisc.org/cosmos/sdtm_v1.0/LinkingPhraseEnum#groups%20values%20in> ;
    cosmos_sdtm:object "SCTESTCD" ;
    cosmos_sdtm:predicateTerm <https://www.cdisc.org/cosmos/sdtm_v1.0/PredicateTermEnum#GROUPS> ;
    cosmos_sdtm:subject "SCCAT" .

<https://w3id.org/cdisc/cosmos/dss/SC/EDLVRDTC/SCDTC/relationship> a cosmos_sdtm:RelationShip ;
    cosmos_sdtm:linkingPhrase <https://www.cdisc.org/cosmos/sdtm_v1.0/LinkingPhraseEnum#is%20the%20date%20of%20occurrence%20for> ;
    cosmos_sdtm:object "SCTESTCD" ;
    cosmos_sdtm:predicateTerm <https://www.cdisc.org/cosmos/sdtm_v1.0/PredicateTermEnum#IS_TIMING_FOR> ;
    cosmos_sdtm:subject "SCDTC" .

<https://w3id.org/cdisc/cosmos/dss/SC/EDLVRDTC/SCORRES/relationship> a cosmos_sdtm:RelationShip ;
    cosmos_sdtm:linkingPhrase <https://www.cdisc.org/cosmos/sdtm_v1.0/LinkingPhraseEnum#is%20the%20result%20of%20the%20test%20in> ;
    cosmos_sdtm:object "SCTESTCD" ;
    cosmos_sdtm:predicateTerm <https://www.cdisc.org/cosmos/sdtm_v1.0/PredicateTermEnum#IS_RESULT_OF> ;
    cosmos_sdtm:subject "SCORRES" .

<https://w3id.org/cdisc/cosmos/dss/SC/EDLVRDTC/SCSTRESC/relationship> a cosmos_sdtm:RelationShip ;
    cosmos_sdtm:linkingPhrase <https://www.cdisc.org/cosmos/sdtm_v1.0/LinkingPhraseEnum#is%20the%20result%20of%20the%20test%20in> ;
    cosmos_sdtm:object "SCTESTCD" ;
    cosmos_sdtm:predicateTerm <https://www.cdisc.org/cosmos/sdtm_v1.0/PredicateTermEnum#IS_RESULT_OF> ;
    cosmos_sdtm:subject "SCSTRESC" .

<https://w3id.org/cdisc/cosmos/dss/SC/EDLVRDTC/SCTEST/assignedTerm> a cosmos_sdtm:AssignedTerm ;
    cosmos_sdtm:conceptId NCIT:C81247 ;
    cosmos_sdtm:value "Estimated Date of Delivery" .

<https://w3id.org/cdisc/cosmos/dss/SC/EDLVRDTC/SCTEST/relationship> a cosmos_sdtm:RelationShip ;
    cosmos_sdtm:linkingPhrase <https://www.cdisc.org/cosmos/sdtm_v1.0/LinkingPhraseEnum#decodes%20the%20value%20in> ;
    cosmos_sdtm:object "SCTESTCD" ;
    cosmos_sdtm:predicateTerm <https://www.cdisc.org/cosmos/sdtm_v1.0/PredicateTermEnum#DECODES> ;
    cosmos_sdtm:subject "SCTEST" .

<https://w3id.org/cdisc/cosmos/dss/SC/EDLVRDTC/SCTESTCD/assignedTerm> a cosmos_sdtm:AssignedTerm ;
    cosmos_sdtm:conceptId NCIT:C81247 ;
    cosmos_sdtm:value "EDLVRDTC" .

<https://w3id.org/cdisc/cosmos/dss/SC/EDLVRDTC/SCTESTCD/relationship> a cosmos_sdtm:RelationShip ;
    cosmos_sdtm:linkingPhrase <https://www.cdisc.org/cosmos/sdtm_v1.0/LinkingPhraseEnum#is%20the%20code%20for%20the%20value%20in> ;
    cosmos_sdtm:object "SCTEST" ;
    cosmos_sdtm:predicateTerm <https://www.cdisc.org/cosmos/sdtm_v1.0/PredicateTermEnum#IS_DECODED_BY> ;
    cosmos_sdtm:subject "SCTESTCD" .

<https://w3id.org/cdisc/cosmos/dss/SC/EDULEVEL/SCCAT/relationship> a cosmos_sdtm:RelationShip ;
    cosmos_sdtm:linkingPhrase <https://www.cdisc.org/cosmos/sdtm_v1.0/LinkingPhraseEnum#groups%20values%20in> ;
    cosmos_sdtm:object "SCTESTCD" ;
    cosmos_sdtm:predicateTerm <https://www.cdisc.org/cosmos/sdtm_v1.0/PredicateTermEnum#GROUPS> ;
    cosmos_sdtm:subject "SCCAT" .

<https://w3id.org/cdisc/cosmos/dss/SC/EDULEVEL/SCDTC/relationship> a cosmos_sdtm:RelationShip ;
    cosmos_sdtm:linkingPhrase <https://www.cdisc.org/cosmos/sdtm_v1.0/LinkingPhraseEnum#is%20the%20date%20of%20occurrence%20for> ;
    cosmos_sdtm:object "SCTESTCD" ;
    cosmos_sdtm:predicateTerm <https://www.cdisc.org/cosmos/sdtm_v1.0/PredicateTermEnum#IS_TIMING_FOR> ;
    cosmos_sdtm:subject "SCDTC" .

<https://w3id.org/cdisc/cosmos/dss/SC/EDULEVEL/SCORRES/relationship> a cosmos_sdtm:RelationShip ;
    cosmos_sdtm:linkingPhrase <https://www.cdisc.org/cosmos/sdtm_v1.0/LinkingPhraseEnum#is%20the%20result%20of%20the%20test%20in> ;
    cosmos_sdtm:object "SCTESTCD" ;
    cosmos_sdtm:predicateTerm <https://www.cdisc.org/cosmos/sdtm_v1.0/PredicateTermEnum#IS_RESULT_OF> ;
    cosmos_sdtm:subject "SCORRES" .

<https://w3id.org/cdisc/cosmos/dss/SC/EDULEVEL/SCSTRESC/relationship> a cosmos_sdtm:RelationShip ;
    cosmos_sdtm:linkingPhrase <https://www.cdisc.org/cosmos/sdtm_v1.0/LinkingPhraseEnum#is%20the%20result%20of%20the%20test%20in> ;
    cosmos_sdtm:object "SCTESTCD" ;
    cosmos_sdtm:predicateTerm <https://www.cdisc.org/cosmos/sdtm_v1.0/PredicateTermEnum#IS_RESULT_OF> ;
    cosmos_sdtm:subject "SCSTRESC" .

<https://w3id.org/cdisc/cosmos/dss/SC/EDULEVEL/SCTEST/assignedTerm> a cosmos_sdtm:AssignedTerm ;
    cosmos_sdtm:conceptId NCIT:C17953 ;
    cosmos_sdtm:value "Level of Education Attained" .

<https://w3id.org/cdisc/cosmos/dss/SC/EDULEVEL/SCTEST/relationship> a cosmos_sdtm:RelationShip ;
    cosmos_sdtm:linkingPhrase <https://www.cdisc.org/cosmos/sdtm_v1.0/LinkingPhraseEnum#decodes%20the%20value%20in> ;
    cosmos_sdtm:object "SCTESTCD" ;
    cosmos_sdtm:predicateTerm <https://www.cdisc.org/cosmos/sdtm_v1.0/PredicateTermEnum#DECODES> ;
    cosmos_sdtm:subject "SCTEST" .

<https://w3id.org/cdisc/cosmos/dss/SC/EDULEVEL/SCTESTCD/assignedTerm> a cosmos_sdtm:AssignedTerm ;
    cosmos_sdtm:conceptId NCIT:C17953 ;
    cosmos_sdtm:value "EDULEVEL" .

<https://w3id.org/cdisc/cosmos/dss/SC/EDULEVEL/SCTESTCD/relationship> a cosmos_sdtm:RelationShip ;
    cosmos_sdtm:linkingPhrase <https://www.cdisc.org/cosmos/sdtm_v1.0/LinkingPhraseEnum#is%20the%20code%20for%20the%20value%20in> ;
    cosmos_sdtm:object "SCTEST" ;
    cosmos_sdtm:predicateTerm <https://www.cdisc.org/cosmos/sdtm_v1.0/PredicateTermEnum#IS_DECODED_BY> ;
    cosmos_sdtm:subject "SCTESTCD" .

<https://w3id.org/cdisc/cosmos/dss/SC/EDUYRNUM/SCCAT/relationship> a cosmos_sdtm:RelationShip ;
    cosmos_sdtm:linkingPhrase <https://www.cdisc.org/cosmos/sdtm_v1.0/LinkingPhraseEnum#groups%20values%20in> ;
    cosmos_sdtm:object "SCTESTCD" ;
    cosmos_sdtm:predicateTerm <https://www.cdisc.org/cosmos/sdtm_v1.0/PredicateTermEnum#GROUPS> ;
    cosmos_sdtm:subject "SCCAT" .

<https://w3id.org/cdisc/cosmos/dss/SC/EDUYRNUM/SCDTC/relationship> a cosmos_sdtm:RelationShip ;
    cosmos_sdtm:linkingPhrase <https://www.cdisc.org/cosmos/sdtm_v1.0/LinkingPhraseEnum#is%20the%20date%20of%20occurrence%20for> ;
    cosmos_sdtm:object "SCTESTCD" ;
    cosmos_sdtm:predicateTerm <https://www.cdisc.org/cosmos/sdtm_v1.0/PredicateTermEnum#IS_TIMING_FOR> ;
    cosmos_sdtm:subject "SCDTC" .

<https://w3id.org/cdisc/cosmos/dss/SC/EDUYRNUM/SCORRES/relationship> a cosmos_sdtm:RelationShip ;
    cosmos_sdtm:linkingPhrase <https://www.cdisc.org/cosmos/sdtm_v1.0/LinkingPhraseEnum#is%20the%20result%20of%20the%20test%20in> ;
    cosmos_sdtm:object "SCTESTCD" ;
    cosmos_sdtm:predicateTerm <https://www.cdisc.org/cosmos/sdtm_v1.0/PredicateTermEnum#IS_RESULT_OF> ;
    cosmos_sdtm:subject "SCORRES" .

<https://w3id.org/cdisc/cosmos/dss/SC/EDUYRNUM/SCSTRESC/relationship> a cosmos_sdtm:RelationShip ;
    cosmos_sdtm:linkingPhrase <https://www.cdisc.org/cosmos/sdtm_v1.0/LinkingPhraseEnum#is%20the%20result%20of%20the%20test%20in> ;
    cosmos_sdtm:object "SCTESTCD" ;
    cosmos_sdtm:predicateTerm <https://www.cdisc.org/cosmos/sdtm_v1.0/PredicateTermEnum#IS_RESULT_OF> ;
    cosmos_sdtm:subject "SCSTRESC" .

<https://w3id.org/cdisc/cosmos/dss/SC/EDUYRNUM/SCSTRESN/relationship> a cosmos_sdtm:RelationShip ;
    cosmos_sdtm:linkingPhrase <https://www.cdisc.org/cosmos/sdtm_v1.0/LinkingPhraseEnum#is%20the%20result%20of%20the%20test%20in> ;
    cosmos_sdtm:object "SCTESTCD" ;
    cosmos_sdtm:predicateTerm <https://www.cdisc.org/cosmos/sdtm_v1.0/PredicateTermEnum#IS_RESULT_OF> ;
    cosmos_sdtm:subject "SCSTRESN" .

<https://w3id.org/cdisc/cosmos/dss/SC/EDUYRNUM/SCTEST/assignedTerm> a cosmos_sdtm:AssignedTerm ;
    cosmos_sdtm:conceptId NCIT:C122393 ;
    cosmos_sdtm:value "Number of Years of Education" .

<https://w3id.org/cdisc/cosmos/dss/SC/EDUYRNUM/SCTEST/relationship> a cosmos_sdtm:RelationShip ;
    cosmos_sdtm:linkingPhrase <https://www.cdisc.org/cosmos/sdtm_v1.0/LinkingPhraseEnum#decodes%20the%20value%20in> ;
    cosmos_sdtm:object "SCTESTCD" ;
    cosmos_sdtm:predicateTerm <https://www.cdisc.org/cosmos/sdtm_v1.0/PredicateTermEnum#DECODES> ;
    cosmos_sdtm:subject "SCTEST" .

<https://w3id.org/cdisc/cosmos/dss/SC/EDUYRNUM/SCTESTCD/assignedTerm> a cosmos_sdtm:AssignedTerm ;
    cosmos_sdtm:conceptId NCIT:C122393 ;
    cosmos_sdtm:value "EDUYRNUM" .

<https://w3id.org/cdisc/cosmos/dss/SC/EDUYRNUM/SCTESTCD/relationship> a cosmos_sdtm:RelationShip ;
    cosmos_sdtm:linkingPhrase <https://www.cdisc.org/cosmos/sdtm_v1.0/LinkingPhraseEnum#is%20the%20code%20for%20the%20value%20in> ;
    cosmos_sdtm:object "SCTEST" ;
    cosmos_sdtm:predicateTerm <https://www.cdisc.org/cosmos/sdtm_v1.0/PredicateTermEnum#IS_DECODED_BY> ;
    cosmos_sdtm:subject "SCTESTCD" .

<https://w3id.org/cdisc/cosmos/dss/SC/EGESTAGE/SCCAT/relationship> a cosmos_sdtm:RelationShip ;
    cosmos_sdtm:linkingPhrase <https://www.cdisc.org/cosmos/sdtm_v1.0/LinkingPhraseEnum#groups%20values%20in> ;
    cosmos_sdtm:object "SCTESTCD" ;
    cosmos_sdtm:predicateTerm <https://www.cdisc.org/cosmos/sdtm_v1.0/PredicateTermEnum#GROUPS> ;
    cosmos_sdtm:subject "SCCAT" .

<https://w3id.org/cdisc/cosmos/dss/SC/EGESTAGE/SCDTC/relationship> a cosmos_sdtm:RelationShip ;
    cosmos_sdtm:linkingPhrase <https://www.cdisc.org/cosmos/sdtm_v1.0/LinkingPhraseEnum#is%20the%20date%20of%20occurrence%20for> ;
    cosmos_sdtm:object "SCTESTCD" ;
    cosmos_sdtm:predicateTerm <https://www.cdisc.org/cosmos/sdtm_v1.0/PredicateTermEnum#IS_TIMING_FOR> ;
    cosmos_sdtm:subject "SCDTC" .

<https://w3id.org/cdisc/cosmos/dss/SC/EGESTAGE/SCORRES/relationship> a cosmos_sdtm:RelationShip ;
    cosmos_sdtm:linkingPhrase <https://www.cdisc.org/cosmos/sdtm_v1.0/LinkingPhraseEnum#is%20the%20result%20of%20the%20test%20in> ;
    cosmos_sdtm:object "SCTESTCD" ;
    cosmos_sdtm:predicateTerm <https://www.cdisc.org/cosmos/sdtm_v1.0/PredicateTermEnum#IS_RESULT_OF> ;
    cosmos_sdtm:subject "SCORRES" .

<https://w3id.org/cdisc/cosmos/dss/SC/EGESTAGE/SCORRESU/relationship> a cosmos_sdtm:RelationShip ;
    cosmos_sdtm:linkingPhrase <https://www.cdisc.org/cosmos/sdtm_v1.0/LinkingPhraseEnum#is%20the%20unit%20for%20the%20value%20in> ;
    cosmos_sdtm:object "SCORRES" ;
    cosmos_sdtm:predicateTerm <https://www.cdisc.org/cosmos/sdtm_v1.0/PredicateTermEnum#IS_UNIT_FOR> ;
    cosmos_sdtm:subject "SCORRESU" .

<https://w3id.org/cdisc/cosmos/dss/SC/EGESTAGE/SCSTRESC/relationship> a cosmos_sdtm:RelationShip ;
    cosmos_sdtm:linkingPhrase <https://www.cdisc.org/cosmos/sdtm_v1.0/LinkingPhraseEnum#is%20the%20result%20of%20the%20test%20in> ;
    cosmos_sdtm:object "SCTESTCD" ;
    cosmos_sdtm:predicateTerm <https://www.cdisc.org/cosmos/sdtm_v1.0/PredicateTermEnum#IS_RESULT_OF> ;
    cosmos_sdtm:subject "SCSTRESC" .

<https://w3id.org/cdisc/cosmos/dss/SC/EGESTAGE/SCSTRESN/relationship> a cosmos_sdtm:RelationShip ;
    cosmos_sdtm:linkingPhrase <https://www.cdisc.org/cosmos/sdtm_v1.0/LinkingPhraseEnum#is%20the%20result%20of%20the%20test%20in> ;
    cosmos_sdtm:object "SCTESTCD" ;
    cosmos_sdtm:predicateTerm <https://www.cdisc.org/cosmos/sdtm_v1.0/PredicateTermEnum#IS_RESULT_OF> ;
    cosmos_sdtm:subject "SCSTRESN" .

<https://w3id.org/cdisc/cosmos/dss/SC/EGESTAGE/SCSTRESU/relationship> a cosmos_sdtm:RelationShip ;
    cosmos_sdtm:linkingPhrase <https://www.cdisc.org/cosmos/sdtm_v1.0/LinkingPhraseEnum#is%20the%20unit%20for%20the%20value%20in> ;
    cosmos_sdtm:object "SCSTRES" ;
    cosmos_sdtm:predicateTerm <https://www.cdisc.org/cosmos/sdtm_v1.0/PredicateTermEnum#IS_UNIT_FOR> ;
    cosmos_sdtm:subject "SCSTRESU" .

<https://w3id.org/cdisc/cosmos/dss/SC/EGESTAGE/SCTEST/assignedTerm> a cosmos_sdtm:AssignedTerm ;
    cosmos_sdtm:conceptId NCIT:C122188 ;
    cosmos_sdtm:value "Estimated Gestational Age" .

<https://w3id.org/cdisc/cosmos/dss/SC/EGESTAGE/SCTEST/relationship> a cosmos_sdtm:RelationShip ;
    cosmos_sdtm:linkingPhrase <https://www.cdisc.org/cosmos/sdtm_v1.0/LinkingPhraseEnum#decodes%20the%20value%20in> ;
    cosmos_sdtm:object "SCTESTCD" ;
    cosmos_sdtm:predicateTerm <https://www.cdisc.org/cosmos/sdtm_v1.0/PredicateTermEnum#DECODES> ;
    cosmos_sdtm:subject "SCTEST" .

<https://w3id.org/cdisc/cosmos/dss/SC/EGESTAGE/SCTESTCD/assignedTerm> a cosmos_sdtm:AssignedTerm ;
    cosmos_sdtm:conceptId NCIT:C122188 ;
    cosmos_sdtm:value "EGESTAGE" .

<https://w3id.org/cdisc/cosmos/dss/SC/EGESTAGE/SCTESTCD/relationship> a cosmos_sdtm:RelationShip ;
    cosmos_sdtm:linkingPhrase <https://www.cdisc.org/cosmos/sdtm_v1.0/LinkingPhraseEnum#is%20the%20code%20for%20the%20value%20in> ;
    cosmos_sdtm:object "SCTEST" ;
    cosmos_sdtm:predicateTerm <https://www.cdisc.org/cosmos/sdtm_v1.0/PredicateTermEnum#IS_DECODED_BY> ;
    cosmos_sdtm:subject "SCTESTCD" .

<https://w3id.org/cdisc/cosmos/dss/SC/EMPJOB/SCCAT/relationship> a cosmos_sdtm:RelationShip ;
    cosmos_sdtm:linkingPhrase <https://www.cdisc.org/cosmos/sdtm_v1.0/LinkingPhraseEnum#groups%20values%20in> ;
    cosmos_sdtm:object "SCTESTCD" ;
    cosmos_sdtm:predicateTerm <https://www.cdisc.org/cosmos/sdtm_v1.0/PredicateTermEnum#GROUPS> ;
    cosmos_sdtm:subject "SCCAT" .

<https://w3id.org/cdisc/cosmos/dss/SC/EMPJOB/SCDTC/relationship> a cosmos_sdtm:RelationShip ;
    cosmos_sdtm:linkingPhrase <https://www.cdisc.org/cosmos/sdtm_v1.0/LinkingPhraseEnum#is%20the%20date%20of%20occurrence%20for> ;
    cosmos_sdtm:object "SCTESTCD" ;
    cosmos_sdtm:predicateTerm <https://www.cdisc.org/cosmos/sdtm_v1.0/PredicateTermEnum#IS_TIMING_FOR> ;
    cosmos_sdtm:subject "SCDTC" .

<https://w3id.org/cdisc/cosmos/dss/SC/EMPJOB/SCORRES/relationship> a cosmos_sdtm:RelationShip ;
    cosmos_sdtm:linkingPhrase <https://www.cdisc.org/cosmos/sdtm_v1.0/LinkingPhraseEnum#is%20the%20result%20of%20the%20test%20in> ;
    cosmos_sdtm:object "SCTESTCD" ;
    cosmos_sdtm:predicateTerm <https://www.cdisc.org/cosmos/sdtm_v1.0/PredicateTermEnum#IS_RESULT_OF> ;
    cosmos_sdtm:subject "SCORRES" .

<https://w3id.org/cdisc/cosmos/dss/SC/EMPJOB/SCSTRESC/relationship> a cosmos_sdtm:RelationShip ;
    cosmos_sdtm:linkingPhrase <https://www.cdisc.org/cosmos/sdtm_v1.0/LinkingPhraseEnum#is%20the%20result%20of%20the%20test%20in> ;
    cosmos_sdtm:object "SCTESTCD" ;
    cosmos_sdtm:predicateTerm <https://www.cdisc.org/cosmos/sdtm_v1.0/PredicateTermEnum#IS_RESULT_OF> ;
    cosmos_sdtm:subject "SCSTRESC" .

<https://w3id.org/cdisc/cosmos/dss/SC/EMPJOB/SCTEST/assignedTerm> a cosmos_sdtm:AssignedTerm ;
    cosmos_sdtm:conceptId NCIT:C25193 ;
    cosmos_sdtm:value "Employee Job" .

<https://w3id.org/cdisc/cosmos/dss/SC/EMPJOB/SCTEST/relationship> a cosmos_sdtm:RelationShip ;
    cosmos_sdtm:linkingPhrase <https://www.cdisc.org/cosmos/sdtm_v1.0/LinkingPhraseEnum#decodes%20the%20value%20in> ;
    cosmos_sdtm:object "SCTESTCD" ;
    cosmos_sdtm:predicateTerm <https://www.cdisc.org/cosmos/sdtm_v1.0/PredicateTermEnum#DECODES> ;
    cosmos_sdtm:subject "SCTEST" .

<https://w3id.org/cdisc/cosmos/dss/SC/EMPJOB/SCTESTCD/assignedTerm> a cosmos_sdtm:AssignedTerm ;
    cosmos_sdtm:conceptId NCIT:C25193 ;
    cosmos_sdtm:value "EMPJOB" .

<https://w3id.org/cdisc/cosmos/dss/SC/EMPJOB/SCTESTCD/relationship> a cosmos_sdtm:RelationShip ;
    cosmos_sdtm:linkingPhrase <https://www.cdisc.org/cosmos/sdtm_v1.0/LinkingPhraseEnum#is%20the%20code%20for%20the%20value%20in> ;
    cosmos_sdtm:object "SCTEST" ;
    cosmos_sdtm:predicateTerm <https://www.cdisc.org/cosmos/sdtm_v1.0/PredicateTermEnum#IS_DECODED_BY> ;
    cosmos_sdtm:subject "SCTESTCD" .

<https://w3id.org/cdisc/cosmos/dss/SC/EMPSTAT/SCCAT/relationship> a cosmos_sdtm:RelationShip ;
    cosmos_sdtm:linkingPhrase <https://www.cdisc.org/cosmos/sdtm_v1.0/LinkingPhraseEnum#groups%20values%20in> ;
    cosmos_sdtm:object "SCTESTCD" ;
    cosmos_sdtm:predicateTerm <https://www.cdisc.org/cosmos/sdtm_v1.0/PredicateTermEnum#GROUPS> ;
    cosmos_sdtm:subject "SCCAT" .

<https://w3id.org/cdisc/cosmos/dss/SC/EMPSTAT/SCDTC/relationship> a cosmos_sdtm:RelationShip ;
    cosmos_sdtm:linkingPhrase <https://www.cdisc.org/cosmos/sdtm_v1.0/LinkingPhraseEnum#is%20the%20date%20of%20occurrence%20for> ;
    cosmos_sdtm:object "SCTESTCD" ;
    cosmos_sdtm:predicateTerm <https://www.cdisc.org/cosmos/sdtm_v1.0/PredicateTermEnum#IS_TIMING_FOR> ;
    cosmos_sdtm:subject "SCDTC" .

<https://w3id.org/cdisc/cosmos/dss/SC/EMPSTAT/SCORRES/relationship> a cosmos_sdtm:RelationShip ;
    cosmos_sdtm:linkingPhrase <https://www.cdisc.org/cosmos/sdtm_v1.0/LinkingPhraseEnum#is%20the%20result%20of%20the%20test%20in> ;
    cosmos_sdtm:object "SCTESTCD" ;
    cosmos_sdtm:predicateTerm <https://www.cdisc.org/cosmos/sdtm_v1.0/PredicateTermEnum#IS_RESULT_OF> ;
    cosmos_sdtm:subject "SCORRES" .

<https://w3id.org/cdisc/cosmos/dss/SC/EMPSTAT/SCSTRESC/relationship> a cosmos_sdtm:RelationShip ;
    cosmos_sdtm:linkingPhrase <https://www.cdisc.org/cosmos/sdtm_v1.0/LinkingPhraseEnum#is%20the%20result%20of%20the%20test%20in> ;
    cosmos_sdtm:object "SCTESTCD" ;
    cosmos_sdtm:predicateTerm <https://www.cdisc.org/cosmos/sdtm_v1.0/PredicateTermEnum#IS_RESULT_OF> ;
    cosmos_sdtm:subject "SCSTRESC" .

<https://w3id.org/cdisc/cosmos/dss/SC/EMPSTAT/SCTEST/assignedTerm> a cosmos_sdtm:AssignedTerm ;
    cosmos_sdtm:conceptId NCIT:C179143 ;
    cosmos_sdtm:value "Employment Status" .

<https://w3id.org/cdisc/cosmos/dss/SC/EMPSTAT/SCTEST/relationship> a cosmos_sdtm:RelationShip ;
    cosmos_sdtm:linkingPhrase <https://www.cdisc.org/cosmos/sdtm_v1.0/LinkingPhraseEnum#decodes%20the%20value%20in> ;
    cosmos_sdtm:object "SCTESTCD" ;
    cosmos_sdtm:predicateTerm <https://www.cdisc.org/cosmos/sdtm_v1.0/PredicateTermEnum#DECODES> ;
    cosmos_sdtm:subject "SCTEST" .

<https://w3id.org/cdisc/cosmos/dss/SC/EMPSTAT/SCTESTCD/assignedTerm> a cosmos_sdtm:AssignedTerm ;
    cosmos_sdtm:conceptId NCIT:C179143 ;
    cosmos_sdtm:value "EMPSTAT" .

<https://w3id.org/cdisc/cosmos/dss/SC/EMPSTAT/SCTESTCD/relationship> a cosmos_sdtm:RelationShip ;
    cosmos_sdtm:linkingPhrase <https://www.cdisc.org/cosmos/sdtm_v1.0/LinkingPhraseEnum#is%20the%20code%20for%20the%20value%20in> ;
    cosmos_sdtm:object "SCTEST" ;
    cosmos_sdtm:predicateTerm <https://www.cdisc.org/cosmos/sdtm_v1.0/PredicateTermEnum#IS_DECODED_BY> ;
    cosmos_sdtm:subject "SCTESTCD" .

<https://w3id.org/cdisc/cosmos/dss/SC/FRTLSTAT/SCCAT/relationship> a cosmos_sdtm:RelationShip ;
    cosmos_sdtm:linkingPhrase <https://www.cdisc.org/cosmos/sdtm_v1.0/LinkingPhraseEnum#groups%20values%20in> ;
    cosmos_sdtm:object "SCTESTCD" ;
    cosmos_sdtm:predicateTerm <https://www.cdisc.org/cosmos/sdtm_v1.0/PredicateTermEnum#GROUPS> ;
    cosmos_sdtm:subject "SCCAT" .

<https://w3id.org/cdisc/cosmos/dss/SC/FRTLSTAT/SCDTC/relationship> a cosmos_sdtm:RelationShip ;
    cosmos_sdtm:linkingPhrase <https://www.cdisc.org/cosmos/sdtm_v1.0/LinkingPhraseEnum#is%20the%20date%20of%20occurrence%20for> ;
    cosmos_sdtm:object "SCTESTCD" ;
    cosmos_sdtm:predicateTerm <https://www.cdisc.org/cosmos/sdtm_v1.0/PredicateTermEnum#IS_TIMING_FOR> ;
    cosmos_sdtm:subject "SCDTC" .

<https://w3id.org/cdisc/cosmos/dss/SC/FRTLSTAT/SCORRES/relationship> a cosmos_sdtm:RelationShip ;
    cosmos_sdtm:linkingPhrase <https://www.cdisc.org/cosmos/sdtm_v1.0/LinkingPhraseEnum#is%20the%20result%20of%20the%20test%20in> ;
    cosmos_sdtm:object "SCTESTCD" ;
    cosmos_sdtm:predicateTerm <https://www.cdisc.org/cosmos/sdtm_v1.0/PredicateTermEnum#IS_RESULT_OF> ;
    cosmos_sdtm:subject "SCORRES" .

<https://w3id.org/cdisc/cosmos/dss/SC/FRTLSTAT/SCSTRESC/relationship> a cosmos_sdtm:RelationShip ;
    cosmos_sdtm:linkingPhrase <https://www.cdisc.org/cosmos/sdtm_v1.0/LinkingPhraseEnum#is%20the%20result%20of%20the%20test%20in> ;
    cosmos_sdtm:object "SCTESTCD" ;
    cosmos_sdtm:predicateTerm <https://www.cdisc.org/cosmos/sdtm_v1.0/PredicateTermEnum#IS_RESULT_OF> ;
    cosmos_sdtm:subject "SCSTRESC" .

<https://w3id.org/cdisc/cosmos/dss/SC/FRTLSTAT/SCTEST/assignedTerm> a cosmos_sdtm:AssignedTerm ;
    cosmos_sdtm:conceptId NCIT:C186214 ;
    cosmos_sdtm:value "Fertility Status" .

<https://w3id.org/cdisc/cosmos/dss/SC/FRTLSTAT/SCTEST/relationship> a cosmos_sdtm:RelationShip ;
    cosmos_sdtm:linkingPhrase <https://www.cdisc.org/cosmos/sdtm_v1.0/LinkingPhraseEnum#decodes%20the%20value%20in> ;
    cosmos_sdtm:object "SCTESTCD" ;
    cosmos_sdtm:predicateTerm <https://www.cdisc.org/cosmos/sdtm_v1.0/PredicateTermEnum#DECODES> ;
    cosmos_sdtm:subject "SCTEST" .

<https://w3id.org/cdisc/cosmos/dss/SC/FRTLSTAT/SCTESTCD/assignedTerm> a cosmos_sdtm:AssignedTerm ;
    cosmos_sdtm:conceptId NCIT:C186214 ;
    cosmos_sdtm:value "FRTLSTAT" .

<https://w3id.org/cdisc/cosmos/dss/SC/FRTLSTAT/SCTESTCD/relationship> a cosmos_sdtm:RelationShip ;
    cosmos_sdtm:linkingPhrase <https://www.cdisc.org/cosmos/sdtm_v1.0/LinkingPhraseEnum#is%20the%20code%20for%20the%20value%20in> ;
    cosmos_sdtm:object "SCTEST" ;
    cosmos_sdtm:predicateTerm <https://www.cdisc.org/cosmos/sdtm_v1.0/PredicateTermEnum#IS_DECODED_BY> ;
    cosmos_sdtm:subject "SCTESTCD" .

<https://w3id.org/cdisc/cosmos/dss/SC/FTSTUIND/SCCAT/relationship> a cosmos_sdtm:RelationShip ;
    cosmos_sdtm:linkingPhrase <https://www.cdisc.org/cosmos/sdtm_v1.0/LinkingPhraseEnum#groups%20values%20in> ;
    cosmos_sdtm:object "SCTESTCD" ;
    cosmos_sdtm:predicateTerm <https://www.cdisc.org/cosmos/sdtm_v1.0/PredicateTermEnum#GROUPS> ;
    cosmos_sdtm:subject "SCCAT" .

<https://w3id.org/cdisc/cosmos/dss/SC/FTSTUIND/SCDTC/relationship> a cosmos_sdtm:RelationShip ;
    cosmos_sdtm:linkingPhrase <https://www.cdisc.org/cosmos/sdtm_v1.0/LinkingPhraseEnum#is%20the%20date%20of%20occurrence%20for> ;
    cosmos_sdtm:object "SCTESTCD" ;
    cosmos_sdtm:predicateTerm <https://www.cdisc.org/cosmos/sdtm_v1.0/PredicateTermEnum#IS_TIMING_FOR> ;
    cosmos_sdtm:subject "SCDTC" .

<https://w3id.org/cdisc/cosmos/dss/SC/FTSTUIND/SCORRES/relationship> a cosmos_sdtm:RelationShip ;
    cosmos_sdtm:linkingPhrase <https://www.cdisc.org/cosmos/sdtm_v1.0/LinkingPhraseEnum#is%20the%20result%20of%20the%20test%20in> ;
    cosmos_sdtm:object "SCTESTCD" ;
    cosmos_sdtm:predicateTerm <https://www.cdisc.org/cosmos/sdtm_v1.0/PredicateTermEnum#IS_RESULT_OF> ;
    cosmos_sdtm:subject "SCORRES" .

<https://w3id.org/cdisc/cosmos/dss/SC/FTSTUIND/SCSTRESC/relationship> a cosmos_sdtm:RelationShip ;
    cosmos_sdtm:linkingPhrase <https://www.cdisc.org/cosmos/sdtm_v1.0/LinkingPhraseEnum#is%20the%20result%20of%20the%20test%20in> ;
    cosmos_sdtm:object "SCTESTCD" ;
    cosmos_sdtm:predicateTerm <https://www.cdisc.org/cosmos/sdtm_v1.0/PredicateTermEnum#IS_RESULT_OF> ;
    cosmos_sdtm:subject "SCSTRESC" .

<https://w3id.org/cdisc/cosmos/dss/SC/FTSTUIND/SCTEST/assignedTerm> a cosmos_sdtm:AssignedTerm ;
    cosmos_sdtm:conceptId NCIT:C209682 ;
    cosmos_sdtm:value "Full-Time Student Indicator" .

<https://w3id.org/cdisc/cosmos/dss/SC/FTSTUIND/SCTEST/relationship> a cosmos_sdtm:RelationShip ;
    cosmos_sdtm:linkingPhrase <https://www.cdisc.org/cosmos/sdtm_v1.0/LinkingPhraseEnum#decodes%20the%20value%20in> ;
    cosmos_sdtm:object "SCTESTCD" ;
    cosmos_sdtm:predicateTerm <https://www.cdisc.org/cosmos/sdtm_v1.0/PredicateTermEnum#DECODES> ;
    cosmos_sdtm:subject "SCTEST" .

<https://w3id.org/cdisc/cosmos/dss/SC/FTSTUIND/SCTESTCD/assignedTerm> a cosmos_sdtm:AssignedTerm ;
    cosmos_sdtm:conceptId NCIT:C209682 ;
    cosmos_sdtm:value "FTSTUIND" .

<https://w3id.org/cdisc/cosmos/dss/SC/FTSTUIND/SCTESTCD/relationship> a cosmos_sdtm:RelationShip ;
    cosmos_sdtm:linkingPhrase <https://www.cdisc.org/cosmos/sdtm_v1.0/LinkingPhraseEnum#is%20the%20code%20for%20the%20value%20in> ;
    cosmos_sdtm:object "SCTEST" ;
    cosmos_sdtm:predicateTerm <https://www.cdisc.org/cosmos/sdtm_v1.0/PredicateTermEnum#IS_DECODED_BY> ;
    cosmos_sdtm:subject "SCTESTCD" .

<https://w3id.org/cdisc/cosmos/dss/SC/GENIDENT/SCCAT/relationship> a cosmos_sdtm:RelationShip ;
    cosmos_sdtm:linkingPhrase <https://www.cdisc.org/cosmos/sdtm_v1.0/LinkingPhraseEnum#groups%20values%20in> ;
    cosmos_sdtm:object "SCTESTCD" ;
    cosmos_sdtm:predicateTerm <https://www.cdisc.org/cosmos/sdtm_v1.0/PredicateTermEnum#GROUPS> ;
    cosmos_sdtm:subject "SCCAT" .

<https://w3id.org/cdisc/cosmos/dss/SC/GENIDENT/SCDTC/relationship> a cosmos_sdtm:RelationShip ;
    cosmos_sdtm:linkingPhrase <https://www.cdisc.org/cosmos/sdtm_v1.0/LinkingPhraseEnum#is%20the%20date%20of%20occurrence%20for> ;
    cosmos_sdtm:object "SCTESTCD" ;
    cosmos_sdtm:predicateTerm <https://www.cdisc.org/cosmos/sdtm_v1.0/PredicateTermEnum#IS_TIMING_FOR> ;
    cosmos_sdtm:subject "SCDTC" .

<https://w3id.org/cdisc/cosmos/dss/SC/GENIDENT/SCORRES/relationship> a cosmos_sdtm:RelationShip ;
    cosmos_sdtm:linkingPhrase <https://www.cdisc.org/cosmos/sdtm_v1.0/LinkingPhraseEnum#is%20the%20result%20of%20the%20test%20in> ;
    cosmos_sdtm:object "SCTESTCD" ;
    cosmos_sdtm:predicateTerm <https://www.cdisc.org/cosmos/sdtm_v1.0/PredicateTermEnum#IS_RESULT_OF> ;
    cosmos_sdtm:subject "SCORRES" .

<https://w3id.org/cdisc/cosmos/dss/SC/GENIDENT/SCSTRESC/relationship> a cosmos_sdtm:RelationShip ;
    cosmos_sdtm:linkingPhrase <https://www.cdisc.org/cosmos/sdtm_v1.0/LinkingPhraseEnum#is%20the%20result%20of%20the%20test%20in> ;
    cosmos_sdtm:object "SCTESTCD" ;
    cosmos_sdtm:predicateTerm <https://www.cdisc.org/cosmos/sdtm_v1.0/PredicateTermEnum#IS_RESULT_OF> ;
    cosmos_sdtm:subject "SCSTRESC" .

<https://w3id.org/cdisc/cosmos/dss/SC/GENIDENT/SCTEST/assignedTerm> a cosmos_sdtm:AssignedTerm ;
    cosmos_sdtm:conceptId NCIT:C158277 ;
    cosmos_sdtm:value "Gender Identity" .

<https://w3id.org/cdisc/cosmos/dss/SC/GENIDENT/SCTEST/relationship> a cosmos_sdtm:RelationShip ;
    cosmos_sdtm:linkingPhrase <https://www.cdisc.org/cosmos/sdtm_v1.0/LinkingPhraseEnum#decodes%20the%20value%20in> ;
    cosmos_sdtm:object "SCTESTCD" ;
    cosmos_sdtm:predicateTerm <https://www.cdisc.org/cosmos/sdtm_v1.0/PredicateTermEnum#DECODES> ;
    cosmos_sdtm:subject "SCTEST" .

<https://w3id.org/cdisc/cosmos/dss/SC/GENIDENT/SCTESTCD/assignedTerm> a cosmos_sdtm:AssignedTerm ;
    cosmos_sdtm:conceptId NCIT:C158277 ;
    cosmos_sdtm:value "GENIDENT" .

<https://w3id.org/cdisc/cosmos/dss/SC/GENIDENT/SCTESTCD/relationship> a cosmos_sdtm:RelationShip ;
    cosmos_sdtm:linkingPhrase <https://www.cdisc.org/cosmos/sdtm_v1.0/LinkingPhraseEnum#is%20the%20code%20for%20the%20value%20in> ;
    cosmos_sdtm:object "SCTEST" ;
    cosmos_sdtm:predicateTerm <https://www.cdisc.org/cosmos/sdtm_v1.0/PredicateTermEnum#IS_DECODED_BY> ;
    cosmos_sdtm:subject "SCTESTCD" .

<https://w3id.org/cdisc/cosmos/dss/SC/GPSDEXP/SCCAT/relationship> a cosmos_sdtm:RelationShip ;
    cosmos_sdtm:linkingPhrase <https://www.cdisc.org/cosmos/sdtm_v1.0/LinkingPhraseEnum#groups%20values%20in> ;
    cosmos_sdtm:object "SCTESTCD" ;
    cosmos_sdtm:predicateTerm <https://www.cdisc.org/cosmos/sdtm_v1.0/PredicateTermEnum#GROUPS> ;
    cosmos_sdtm:subject "SCCAT" .

<https://w3id.org/cdisc/cosmos/dss/SC/GPSDEXP/SCDTC/relationship> a cosmos_sdtm:RelationShip ;
    cosmos_sdtm:linkingPhrase <https://www.cdisc.org/cosmos/sdtm_v1.0/LinkingPhraseEnum#is%20the%20date%20of%20occurrence%20for> ;
    cosmos_sdtm:object "SCTESTCD" ;
    cosmos_sdtm:predicateTerm <https://www.cdisc.org/cosmos/sdtm_v1.0/PredicateTermEnum#IS_TIMING_FOR> ;
    cosmos_sdtm:subject "SCDTC" .

<https://w3id.org/cdisc/cosmos/dss/SC/GPSDEXP/SCORRES/relationship> a cosmos_sdtm:RelationShip ;
    cosmos_sdtm:linkingPhrase <https://www.cdisc.org/cosmos/sdtm_v1.0/LinkingPhraseEnum#is%20the%20result%20of%20the%20test%20in> ;
    cosmos_sdtm:object "SCTESTCD" ;
    cosmos_sdtm:predicateTerm <https://www.cdisc.org/cosmos/sdtm_v1.0/PredicateTermEnum#IS_RESULT_OF> ;
    cosmos_sdtm:subject "SCORRES" .

<https://w3id.org/cdisc/cosmos/dss/SC/GPSDEXP/SCSTRESC/relationship> a cosmos_sdtm:RelationShip ;
    cosmos_sdtm:linkingPhrase <https://www.cdisc.org/cosmos/sdtm_v1.0/LinkingPhraseEnum#is%20the%20result%20of%20the%20test%20in> ;
    cosmos_sdtm:object "SCTESTCD" ;
    cosmos_sdtm:predicateTerm <https://www.cdisc.org/cosmos/sdtm_v1.0/PredicateTermEnum#IS_RESULT_OF> ;
    cosmos_sdtm:subject "SCSTRESC" .

<https://w3id.org/cdisc/cosmos/dss/SC/GPSDEXP/SCTEST/assignedTerm> a cosmos_sdtm:AssignedTerm ;
    cosmos_sdtm:conceptId NCIT:C174365 ;
    cosmos_sdtm:value "GPS Coord of Potential Disease Exposure" .

<https://w3id.org/cdisc/cosmos/dss/SC/GPSDEXP/SCTEST/relationship> a cosmos_sdtm:RelationShip ;
    cosmos_sdtm:linkingPhrase <https://www.cdisc.org/cosmos/sdtm_v1.0/LinkingPhraseEnum#decodes%20the%20value%20in> ;
    cosmos_sdtm:object "SCTESTCD" ;
    cosmos_sdtm:predicateTerm <https://www.cdisc.org/cosmos/sdtm_v1.0/PredicateTermEnum#DECODES> ;
    cosmos_sdtm:subject "SCTEST" .

<https://w3id.org/cdisc/cosmos/dss/SC/GPSDEXP/SCTESTCD/assignedTerm> a cosmos_sdtm:AssignedTerm ;
    cosmos_sdtm:conceptId NCIT:C174365 ;
    cosmos_sdtm:value "GPSDEXP" .

<https://w3id.org/cdisc/cosmos/dss/SC/GPSDEXP/SCTESTCD/relationship> a cosmos_sdtm:RelationShip ;
    cosmos_sdtm:linkingPhrase <https://www.cdisc.org/cosmos/sdtm_v1.0/LinkingPhraseEnum#is%20the%20code%20for%20the%20value%20in> ;
    cosmos_sdtm:object "SCTEST" ;
    cosmos_sdtm:predicateTerm <https://www.cdisc.org/cosmos/sdtm_v1.0/PredicateTermEnum#IS_DECODED_BY> ;
    cosmos_sdtm:subject "SCTESTCD" .

<https://w3id.org/cdisc/cosmos/dss/SC/GSTABRTH/SCCAT/relationship> a cosmos_sdtm:RelationShip ;
    cosmos_sdtm:linkingPhrase <https://www.cdisc.org/cosmos/sdtm_v1.0/LinkingPhraseEnum#groups%20values%20in> ;
    cosmos_sdtm:object "SCTESTCD" ;
    cosmos_sdtm:predicateTerm <https://www.cdisc.org/cosmos/sdtm_v1.0/PredicateTermEnum#GROUPS> ;
    cosmos_sdtm:subject "SCCAT" .

<https://w3id.org/cdisc/cosmos/dss/SC/GSTABRTH/SCDTC/relationship> a cosmos_sdtm:RelationShip ;
    cosmos_sdtm:linkingPhrase <https://www.cdisc.org/cosmos/sdtm_v1.0/LinkingPhraseEnum#is%20the%20date%20of%20occurrence%20for> ;
    cosmos_sdtm:object "SCTESTCD" ;
    cosmos_sdtm:predicateTerm <https://www.cdisc.org/cosmos/sdtm_v1.0/PredicateTermEnum#IS_TIMING_FOR> ;
    cosmos_sdtm:subject "SCDTC" .

<https://w3id.org/cdisc/cosmos/dss/SC/GSTABRTH/SCORRES/relationship> a cosmos_sdtm:RelationShip ;
    cosmos_sdtm:linkingPhrase <https://www.cdisc.org/cosmos/sdtm_v1.0/LinkingPhraseEnum#is%20the%20result%20of%20the%20test%20in> ;
    cosmos_sdtm:object "SCTESTCD" ;
    cosmos_sdtm:predicateTerm <https://www.cdisc.org/cosmos/sdtm_v1.0/PredicateTermEnum#IS_RESULT_OF> ;
    cosmos_sdtm:subject "SCORRES" .

<https://w3id.org/cdisc/cosmos/dss/SC/GSTABRTH/SCORRESU/relationship> a cosmos_sdtm:RelationShip ;
    cosmos_sdtm:linkingPhrase <https://www.cdisc.org/cosmos/sdtm_v1.0/LinkingPhraseEnum#is%20the%20unit%20for%20the%20value%20in> ;
    cosmos_sdtm:object "SCORRES" ;
    cosmos_sdtm:predicateTerm <https://www.cdisc.org/cosmos/sdtm_v1.0/PredicateTermEnum#IS_UNIT_FOR> ;
    cosmos_sdtm:subject "SCORRESU" .

<https://w3id.org/cdisc/cosmos/dss/SC/GSTABRTH/SCSTRESC/relationship> a cosmos_sdtm:RelationShip ;
    cosmos_sdtm:linkingPhrase <https://www.cdisc.org/cosmos/sdtm_v1.0/LinkingPhraseEnum#is%20the%20result%20of%20the%20test%20in> ;
    cosmos_sdtm:object "SCTESTCD" ;
    cosmos_sdtm:predicateTerm <https://www.cdisc.org/cosmos/sdtm_v1.0/PredicateTermEnum#IS_RESULT_OF> ;
    cosmos_sdtm:subject "SCSTRESC" .

<https://w3id.org/cdisc/cosmos/dss/SC/GSTABRTH/SCSTRESN/relationship> a cosmos_sdtm:RelationShip ;
    cosmos_sdtm:linkingPhrase <https://www.cdisc.org/cosmos/sdtm_v1.0/LinkingPhraseEnum#is%20the%20result%20of%20the%20test%20in> ;
    cosmos_sdtm:object "SCTESTCD" ;
    cosmos_sdtm:predicateTerm <https://www.cdisc.org/cosmos/sdtm_v1.0/PredicateTermEnum#IS_RESULT_OF> ;
    cosmos_sdtm:subject "SCSTRESN" .

<https://w3id.org/cdisc/cosmos/dss/SC/GSTABRTH/SCSTRESU/relationship> a cosmos_sdtm:RelationShip ;
    cosmos_sdtm:linkingPhrase <https://www.cdisc.org/cosmos/sdtm_v1.0/LinkingPhraseEnum#is%20the%20unit%20for%20the%20value%20in> ;
    cosmos_sdtm:object "SCSTRES" ;
    cosmos_sdtm:predicateTerm <https://www.cdisc.org/cosmos/sdtm_v1.0/PredicateTermEnum#IS_UNIT_FOR> ;
    cosmos_sdtm:subject "SCSTRESU" .

<https://w3id.org/cdisc/cosmos/dss/SC/GSTABRTH/SCTEST/assignedTerm> a cosmos_sdtm:AssignedTerm ;
    cosmos_sdtm:conceptId NCIT:C124435 ;
    cosmos_sdtm:value "Gestational Age at Birth" .

<https://w3id.org/cdisc/cosmos/dss/SC/GSTABRTH/SCTEST/relationship> a cosmos_sdtm:RelationShip ;
    cosmos_sdtm:linkingPhrase <https://www.cdisc.org/cosmos/sdtm_v1.0/LinkingPhraseEnum#decodes%20the%20value%20in> ;
    cosmos_sdtm:object "SCTESTCD" ;
    cosmos_sdtm:predicateTerm <https://www.cdisc.org/cosmos/sdtm_v1.0/PredicateTermEnum#DECODES> ;
    cosmos_sdtm:subject "SCTEST" .

<https://w3id.org/cdisc/cosmos/dss/SC/GSTABRTH/SCTESTCD/assignedTerm> a cosmos_sdtm:AssignedTerm ;
    cosmos_sdtm:conceptId NCIT:C124435 ;
    cosmos_sdtm:value "GSTABRTH" .

<https://w3id.org/cdisc/cosmos/dss/SC/GSTABRTH/SCTESTCD/relationship> a cosmos_sdtm:RelationShip ;
    cosmos_sdtm:linkingPhrase <https://www.cdisc.org/cosmos/sdtm_v1.0/LinkingPhraseEnum#is%20the%20code%20for%20the%20value%20in> ;
    cosmos_sdtm:object "SCTEST" ;
    cosmos_sdtm:predicateTerm <https://www.cdisc.org/cosmos/sdtm_v1.0/PredicateTermEnum#IS_DECODED_BY> ;
    cosmos_sdtm:subject "SCTESTCD" .

<https://w3id.org/cdisc/cosmos/dss/SC/HANDDOM/SCCAT/relationship> a cosmos_sdtm:RelationShip ;
    cosmos_sdtm:linkingPhrase <https://www.cdisc.org/cosmos/sdtm_v1.0/LinkingPhraseEnum#groups%20values%20in> ;
    cosmos_sdtm:object "SCTESTCD" ;
    cosmos_sdtm:predicateTerm <https://www.cdisc.org/cosmos/sdtm_v1.0/PredicateTermEnum#GROUPS> ;
    cosmos_sdtm:subject "SCCAT" .

<https://w3id.org/cdisc/cosmos/dss/SC/HANDDOM/SCDTC/relationship> a cosmos_sdtm:RelationShip ;
    cosmos_sdtm:linkingPhrase <https://www.cdisc.org/cosmos/sdtm_v1.0/LinkingPhraseEnum#is%20the%20date%20of%20occurrence%20for> ;
    cosmos_sdtm:object "SCTESTCD" ;
    cosmos_sdtm:predicateTerm <https://www.cdisc.org/cosmos/sdtm_v1.0/PredicateTermEnum#IS_TIMING_FOR> ;
    cosmos_sdtm:subject "SCDTC" .

<https://w3id.org/cdisc/cosmos/dss/SC/HANDDOM/SCORRES/relationship> a cosmos_sdtm:RelationShip ;
    cosmos_sdtm:linkingPhrase <https://www.cdisc.org/cosmos/sdtm_v1.0/LinkingPhraseEnum#is%20the%20result%20of%20the%20test%20in> ;
    cosmos_sdtm:object "SCTESTCD" ;
    cosmos_sdtm:predicateTerm <https://www.cdisc.org/cosmos/sdtm_v1.0/PredicateTermEnum#IS_RESULT_OF> ;
    cosmos_sdtm:subject "SCORRES" .

<https://w3id.org/cdisc/cosmos/dss/SC/HANDDOM/SCSTRESC/relationship> a cosmos_sdtm:RelationShip ;
    cosmos_sdtm:linkingPhrase <https://www.cdisc.org/cosmos/sdtm_v1.0/LinkingPhraseEnum#is%20the%20result%20of%20the%20test%20in> ;
    cosmos_sdtm:object "SCTESTCD" ;
    cosmos_sdtm:predicateTerm <https://www.cdisc.org/cosmos/sdtm_v1.0/PredicateTermEnum#IS_RESULT_OF> ;
    cosmos_sdtm:subject "SCSTRESC" .

<https://w3id.org/cdisc/cosmos/dss/SC/HANDDOM/SCTEST/assignedTerm> a cosmos_sdtm:AssignedTerm ;
    cosmos_sdtm:conceptId NCIT:C114182 ;
    cosmos_sdtm:value "Dominant Hand" .

<https://w3id.org/cdisc/cosmos/dss/SC/HANDDOM/SCTEST/relationship> a cosmos_sdtm:RelationShip ;
    cosmos_sdtm:linkingPhrase <https://www.cdisc.org/cosmos/sdtm_v1.0/LinkingPhraseEnum#decodes%20the%20value%20in> ;
    cosmos_sdtm:object "SCTESTCD" ;
    cosmos_sdtm:predicateTerm <https://www.cdisc.org/cosmos/sdtm_v1.0/PredicateTermEnum#DECODES> ;
    cosmos_sdtm:subject "SCTEST" .

<https://w3id.org/cdisc/cosmos/dss/SC/HANDDOM/SCTESTCD/assignedTerm> a cosmos_sdtm:AssignedTerm ;
    cosmos_sdtm:conceptId NCIT:C114182 ;
    cosmos_sdtm:value "HANDDOM" .

<https://w3id.org/cdisc/cosmos/dss/SC/HANDDOM/SCTESTCD/relationship> a cosmos_sdtm:RelationShip ;
    cosmos_sdtm:linkingPhrase <https://www.cdisc.org/cosmos/sdtm_v1.0/LinkingPhraseEnum#is%20the%20code%20for%20the%20value%20in> ;
    cosmos_sdtm:object "SCTEST" ;
    cosmos_sdtm:predicateTerm <https://www.cdisc.org/cosmos/sdtm_v1.0/PredicateTermEnum#IS_DECODED_BY> ;
    cosmos_sdtm:subject "SCTESTCD" .

<https://w3id.org/cdisc/cosmos/dss/SC/HIEMPIND/SCCAT/relationship> a cosmos_sdtm:RelationShip ;
    cosmos_sdtm:linkingPhrase <https://www.cdisc.org/cosmos/sdtm_v1.0/LinkingPhraseEnum#groups%20values%20in> ;
    cosmos_sdtm:object "SCTESTCD" ;
    cosmos_sdtm:predicateTerm <https://www.cdisc.org/cosmos/sdtm_v1.0/PredicateTermEnum#GROUPS> ;
    cosmos_sdtm:subject "SCCAT" .

<https://w3id.org/cdisc/cosmos/dss/SC/HIEMPIND/SCDTC/relationship> a cosmos_sdtm:RelationShip ;
    cosmos_sdtm:linkingPhrase <https://www.cdisc.org/cosmos/sdtm_v1.0/LinkingPhraseEnum#is%20the%20date%20of%20occurrence%20for> ;
    cosmos_sdtm:object "SCTESTCD" ;
    cosmos_sdtm:predicateTerm <https://www.cdisc.org/cosmos/sdtm_v1.0/PredicateTermEnum#IS_TIMING_FOR> ;
    cosmos_sdtm:subject "SCDTC" .

<https://w3id.org/cdisc/cosmos/dss/SC/HIEMPIND/SCORRES/relationship> a cosmos_sdtm:RelationShip ;
    cosmos_sdtm:linkingPhrase <https://www.cdisc.org/cosmos/sdtm_v1.0/LinkingPhraseEnum#is%20the%20result%20of%20the%20test%20in> ;
    cosmos_sdtm:object "SCTESTCD" ;
    cosmos_sdtm:predicateTerm <https://www.cdisc.org/cosmos/sdtm_v1.0/PredicateTermEnum#IS_RESULT_OF> ;
    cosmos_sdtm:subject "SCORRES" .

<https://w3id.org/cdisc/cosmos/dss/SC/HIEMPIND/SCSTRESC/relationship> a cosmos_sdtm:RelationShip ;
    cosmos_sdtm:linkingPhrase <https://www.cdisc.org/cosmos/sdtm_v1.0/LinkingPhraseEnum#is%20the%20result%20of%20the%20test%20in> ;
    cosmos_sdtm:object "SCTESTCD" ;
    cosmos_sdtm:predicateTerm <https://www.cdisc.org/cosmos/sdtm_v1.0/PredicateTermEnum#IS_RESULT_OF> ;
    cosmos_sdtm:subject "SCSTRESC" .

<https://w3id.org/cdisc/cosmos/dss/SC/HIEMPIND/SCTEST/assignedTerm> a cosmos_sdtm:AssignedTerm ;
    cosmos_sdtm:conceptId NCIT:C209683 ;
    cosmos_sdtm:value "Employer Based Health Insurance Ind" .

<https://w3id.org/cdisc/cosmos/dss/SC/HIEMPIND/SCTEST/relationship> a cosmos_sdtm:RelationShip ;
    cosmos_sdtm:linkingPhrase <https://www.cdisc.org/cosmos/sdtm_v1.0/LinkingPhraseEnum#decodes%20the%20value%20in> ;
    cosmos_sdtm:object "SCTESTCD" ;
    cosmos_sdtm:predicateTerm <https://www.cdisc.org/cosmos/sdtm_v1.0/PredicateTermEnum#DECODES> ;
    cosmos_sdtm:subject "SCTEST" .

<https://w3id.org/cdisc/cosmos/dss/SC/HIEMPIND/SCTESTCD/assignedTerm> a cosmos_sdtm:AssignedTerm ;
    cosmos_sdtm:conceptId NCIT:C209683 ;
    cosmos_sdtm:value "HIEMPIND" .

<https://w3id.org/cdisc/cosmos/dss/SC/HIEMPIND/SCTESTCD/relationship> a cosmos_sdtm:RelationShip ;
    cosmos_sdtm:linkingPhrase <https://www.cdisc.org/cosmos/sdtm_v1.0/LinkingPhraseEnum#is%20the%20code%20for%20the%20value%20in> ;
    cosmos_sdtm:object "SCTEST" ;
    cosmos_sdtm:predicateTerm <https://www.cdisc.org/cosmos/sdtm_v1.0/PredicateTermEnum#IS_DECODED_BY> ;
    cosmos_sdtm:subject "SCTESTCD" .

<https://w3id.org/cdisc/cosmos/dss/SC/HIIHSIND/SCCAT/relationship> a cosmos_sdtm:RelationShip ;
    cosmos_sdtm:linkingPhrase <https://www.cdisc.org/cosmos/sdtm_v1.0/LinkingPhraseEnum#groups%20values%20in> ;
    cosmos_sdtm:object "SCTESTCD" ;
    cosmos_sdtm:predicateTerm <https://www.cdisc.org/cosmos/sdtm_v1.0/PredicateTermEnum#GROUPS> ;
    cosmos_sdtm:subject "SCCAT" .

<https://w3id.org/cdisc/cosmos/dss/SC/HIIHSIND/SCDTC/relationship> a cosmos_sdtm:RelationShip ;
    cosmos_sdtm:linkingPhrase <https://www.cdisc.org/cosmos/sdtm_v1.0/LinkingPhraseEnum#is%20the%20date%20of%20occurrence%20for> ;
    cosmos_sdtm:object "SCTESTCD" ;
    cosmos_sdtm:predicateTerm <https://www.cdisc.org/cosmos/sdtm_v1.0/PredicateTermEnum#IS_TIMING_FOR> ;
    cosmos_sdtm:subject "SCDTC" .

<https://w3id.org/cdisc/cosmos/dss/SC/HIIHSIND/SCORRES/relationship> a cosmos_sdtm:RelationShip ;
    cosmos_sdtm:linkingPhrase <https://www.cdisc.org/cosmos/sdtm_v1.0/LinkingPhraseEnum#is%20the%20result%20of%20the%20test%20in> ;
    cosmos_sdtm:object "SCTESTCD" ;
    cosmos_sdtm:predicateTerm <https://www.cdisc.org/cosmos/sdtm_v1.0/PredicateTermEnum#IS_RESULT_OF> ;
    cosmos_sdtm:subject "SCORRES" .

<https://w3id.org/cdisc/cosmos/dss/SC/HIIHSIND/SCSTRESC/relationship> a cosmos_sdtm:RelationShip ;
    cosmos_sdtm:linkingPhrase <https://www.cdisc.org/cosmos/sdtm_v1.0/LinkingPhraseEnum#is%20the%20result%20of%20the%20test%20in> ;
    cosmos_sdtm:object "SCTESTCD" ;
    cosmos_sdtm:predicateTerm <https://www.cdisc.org/cosmos/sdtm_v1.0/PredicateTermEnum#IS_RESULT_OF> ;
    cosmos_sdtm:subject "SCSTRESC" .

<https://w3id.org/cdisc/cosmos/dss/SC/HIIHSIND/SCTEST/assignedTerm> a cosmos_sdtm:AssignedTerm ;
    cosmos_sdtm:conceptId NCIT:C209684 ;
    cosmos_sdtm:value "Indian Health Service Insurance Ind" .

<https://w3id.org/cdisc/cosmos/dss/SC/HIIHSIND/SCTEST/relationship> a cosmos_sdtm:RelationShip ;
    cosmos_sdtm:linkingPhrase <https://www.cdisc.org/cosmos/sdtm_v1.0/LinkingPhraseEnum#decodes%20the%20value%20in> ;
    cosmos_sdtm:object "SCTESTCD" ;
    cosmos_sdtm:predicateTerm <https://www.cdisc.org/cosmos/sdtm_v1.0/PredicateTermEnum#DECODES> ;
    cosmos_sdtm:subject "SCTEST" .

<https://w3id.org/cdisc/cosmos/dss/SC/HIIHSIND/SCTESTCD/assignedTerm> a cosmos_sdtm:AssignedTerm ;
    cosmos_sdtm:conceptId NCIT:C209684 ;
    cosmos_sdtm:value "HIIHSIND" .

<https://w3id.org/cdisc/cosmos/dss/SC/HIIHSIND/SCTESTCD/relationship> a cosmos_sdtm:RelationShip ;
    cosmos_sdtm:linkingPhrase <https://www.cdisc.org/cosmos/sdtm_v1.0/LinkingPhraseEnum#is%20the%20code%20for%20the%20value%20in> ;
    cosmos_sdtm:object "SCTEST" ;
    cosmos_sdtm:predicateTerm <https://www.cdisc.org/cosmos/sdtm_v1.0/PredicateTermEnum#IS_DECODED_BY> ;
    cosmos_sdtm:subject "SCTESTCD" .

<https://w3id.org/cdisc/cosmos/dss/SC/HIIND/SCCAT/relationship> a cosmos_sdtm:RelationShip ;
    cosmos_sdtm:linkingPhrase <https://www.cdisc.org/cosmos/sdtm_v1.0/LinkingPhraseEnum#groups%20values%20in> ;
    cosmos_sdtm:object "SCTESTCD" ;
    cosmos_sdtm:predicateTerm <https://www.cdisc.org/cosmos/sdtm_v1.0/PredicateTermEnum#GROUPS> ;
    cosmos_sdtm:subject "SCCAT" .

<https://w3id.org/cdisc/cosmos/dss/SC/HIIND/SCDTC/relationship> a cosmos_sdtm:RelationShip ;
    cosmos_sdtm:linkingPhrase <https://www.cdisc.org/cosmos/sdtm_v1.0/LinkingPhraseEnum#is%20the%20date%20of%20occurrence%20for> ;
    cosmos_sdtm:object "SCTESTCD" ;
    cosmos_sdtm:predicateTerm <https://www.cdisc.org/cosmos/sdtm_v1.0/PredicateTermEnum#IS_TIMING_FOR> ;
    cosmos_sdtm:subject "SCDTC" .

<https://w3id.org/cdisc/cosmos/dss/SC/HIIND/SCORRES/relationship> a cosmos_sdtm:RelationShip ;
    cosmos_sdtm:linkingPhrase <https://www.cdisc.org/cosmos/sdtm_v1.0/LinkingPhraseEnum#is%20the%20result%20of%20the%20test%20in> ;
    cosmos_sdtm:object "SCTESTCD" ;
    cosmos_sdtm:predicateTerm <https://www.cdisc.org/cosmos/sdtm_v1.0/PredicateTermEnum#IS_RESULT_OF> ;
    cosmos_sdtm:subject "SCORRES" .

<https://w3id.org/cdisc/cosmos/dss/SC/HIIND/SCSTRESC/relationship> a cosmos_sdtm:RelationShip ;
    cosmos_sdtm:linkingPhrase <https://www.cdisc.org/cosmos/sdtm_v1.0/LinkingPhraseEnum#is%20the%20result%20of%20the%20test%20in> ;
    cosmos_sdtm:object "SCTESTCD" ;
    cosmos_sdtm:predicateTerm <https://www.cdisc.org/cosmos/sdtm_v1.0/PredicateTermEnum#IS_RESULT_OF> ;
    cosmos_sdtm:subject "SCSTRESC" .

<https://w3id.org/cdisc/cosmos/dss/SC/HIIND/SCTEST/assignedTerm> a cosmos_sdtm:AssignedTerm ;
    cosmos_sdtm:conceptId NCIT:C209446 ;
